Datetime, ECGRaw , AvgECG , ampECG , MAX , GSRRaw , Resistance , GSR(kohm) , SCL , GSRRMS , GSRMAV , EMGRaw , EMGRMS , EMGMAV , EMGVAR , EMGSSI , IEMG , AccX , AccY, AccZ , GyroX , GyroY , GyroZ , Aroll , Apitch , Groll , Gpitch, Gyaw , Combroll , Combpitch,Features
25:29.5,1001,820,1230,1003,301,2.4,416.9,1.47,151.03,297,63,56.14,56,3151,0,0,0.97,-0.26,0.06,-2.15,-0.72,-1.75,-15.79,-72.81,-31.86,-31.24,-3.63,-31.22,-32.91,Standing
25:29.7,1002,824,1236,1003,292,2.5,399.45,1.43,151.03,297,56,56.14,56,3151,3136,56,0.99,-0.27,0.04,0.34,3.95,0.5,-15.98,-72.84,-31.75,-31,-3.47,-31.12,-32.67,Standing
25:29.8,1002,828,1242,1003,291,2.52,397.54,1.42,151.03,297,62,56.14,56,3151,6980,118,0.98,-0.27,0.06,-4.33,3.32,0.38,-15.98,-72.65,-32.22,-30.83,-3.33,-31.57,-32.51,Standing
25:29.9,1002,834,1251,1003,298,2.43,411.03,1.46,151.03,297,63,56.14,56,3151,10949,181,0.97,-0.25,0.06,-2.6,2.34,1.35,-15.26,-73.32,-32.47,-30.79,-3.06,-31.79,-32.49,Standing
25:30.0,1001,839,1258.5,1003,301,2.4,416.9,1.47,151.03,297,65,56.14,56,3151,15174,246,1.01,-0.27,0.07,-2.66,-3.35,-2.79,-15.69,-72.88,-32.74,-31.46,-3.31,-32.06,-33.12,Standing
25:30.2,1001,844,1266,1003,292,2.5,399.45,1.43,151.03,297,57,56.14,56,3151,18423,303,0.96,-0.26,0.06,-1.31,2.24,-1.05,-15.85,-72.7,-32.83,-31.43,-3.34,-32.15,-33.08,Standing
25:30.3,1001,848,1272,1003,293,2.49,401.37,1.43,151.03,297,62,56.14,56,3151,22267,365,1,-0.27,0.06,-4.74,-3.24,-2.51,-15.38,-73.21,-33.35,-32.09,-3.56,-32.64,-33.73,Standing
25:30.4,1002,854,1281,1003,301,2.4,416.9,1.47,151.03,297,68,56.14,56,3151,26891,433,0.98,-0.27,0.06,-2.98,2.92,-0.27,-15.92,-72.68,-33.66,-31.97,-3.49,-32.95,-33.6,Standing
25:30.5,1001,859,1288.5,1003,297,2.44,409.09,1.45,151.03,297,65,56.14,56,3151,31116,498,0.98,-0.26,0.06,-3.37,1.89,-1.66,-15.4,-73.22,-34.01,-31.98,-3.6,-33.27,-33.63,Standing
25:30.7,1002,863,1294.5,1003,291,2.52,397.54,1.42,151.03,297,63,56.14,56,3151,35085,561,0.98,-0.28,0.06,-0.73,3.2,-0.44,-16.2,-72.44,-34.03,-31.83,-3.55,-33.32,-33.46,Standing
25:30.8,1002,866,1299,1003,298,2.43,411.03,1.46,147.44,295,68,63.01,62,3969,0,0,0.98,-0.28,0.06,-1.21,0.76,-1.56,-16.39,-72.25,-34.11,-31.99,-3.65,-33.41,-33.6,Standing
25:30.9,1003,868,1302,1003,303,2.38,420.83,1.48,147.44,295,70,63.01,62,3969,4900,70,0.98,-0.26,0.05,-1.39,0.24,-2.05,-15.72,-72.97,-34.22,-32.21,-3.81,-33.48,-33.84,Standing
25:31.0,1002,873,1309.5,1003,298,2.43,411.03,1.46,147.44,295,62,63.01,62,3969,8744,132,0.98,-0.27,0.06,-0.44,0.88,-0.76,-15.75,-72.91,-34.2,-32.35,-3.8,-33.47,-33.97,Standing
25:31.2,1002,879,1318.5,1003,292,2.5,399.45,1.43,147.44,295,68,63.01,62,3969,13368,200,0.99,-0.26,0.05,-1.04,1.29,-1.85,-15.36,-73.31,-34.26,-32.44,-3.94,-33.51,-34.07,Standing
25:31.3,1002,889,1333.5,1003,299,2.42,412.98,1.46,147.44,295,69,63.01,62,3969,18129,269,0.98,-0.27,0.06,-1.14,3.97,-0.08,-15.66,-72.97,-34.34,-32.19,-3.85,-33.59,-33.82,Standing
25:31.4,1003,897,1345.5,1003,304,2.37,422.81,1.49,147.44,295,73,63.01,62,3969,23458,342,0.99,-0.27,0.06,-3.69,2.55,-0.63,-15.75,-72.86,-34.72,-32.12,-3.83,-33.97,-33.75,Standing
25:31.5,1001,901,1351.5,1003,293,2.49,401.37,1.43,147.44,295,62,63.01,62,3969,27302,404,0.97,-0.26,0.06,-2.49,1.63,1.28,-15.71,-72.89,-34.97,-32.17,-3.57,-34.2,-33.8,Standing
25:31.7,1001,909,1363.5,1003,293,2.49,401.37,1.43,147.44,295,67,63.01,62,3969,31791,471,0.99,-0.27,0.08,-4.88,-2.27,-2.15,-16.04,-72.34,-35.51,-32.7,-3.74,-34.73,-34.29,Standing
25:31.8,1001,917,1375.5,1003,299,2.42,412.98,1.46,147.44,295,68,63.01,62,3969,36415,539,0.98,-0.28,0.08,-0.52,4.95,-0.37,-16.51,-71.91,-35.5,-32.33,-3.68,-34.74,-33.92,Standing
25:31.9,1001,920,1380,1003,301,2.4,416.9,1.47,147.44,295,71,63.01,62,3969,41456,610,0.97,-0.28,0.08,0.24,3.47,-0.45,-16.75,-71.59,-35.4,-32.15,-3.64,-34.65,-33.73,Standing
25:32.0,1002,924,1386,1003,291,2.52,397.54,1.42,151.23,297,63,67.39,67,4541,0,0,0.97,-0.27,0.08,-1.19,0.71,0.04,-16.3,-72.06,-35.48,-32.31,-3.54,-34.71,-33.9,Standing
25:32.2,1001,928,1392,1003,292,2.5,399.45,1.43,151.23,297,67,67.39,67,4541,4489,67,0.97,-0.27,0.07,-1.82,-0.89,-1.4,-15.93,-72.53,-35.64,-32.67,-3.61,-34.85,-34.27,Standing
25:32.3,1002,932,1398,1003,300,2.41,414.94,1.47,151.23,297,73,67.39,67,4541,9818,140,0.98,-0.27,0.09,-2.24,-0.45,-0.8,-15.91,-72.28,-35.85,-32.98,-3.61,-35.05,-34.55,Standing
25:32.4,1002,935,1402.5,1003,299,2.42,412.98,1.46,151.23,297,71,67.39,67,4541,14859,211,0.97,-0.28,0.08,-1.64,1.64,-0.51,-16.72,-71.68,-35.98,-33.02,-3.58,-35.21,-34.57,Standing
25:32.5,1001,939,1408.5,1003,291,2.52,397.54,1.42,151.23,297,62,67.39,67,4541,18703,273,0.97,-0.28,0.07,-2.26,1.47,-1,-16.62,-71.8,-36.2,-33.09,-3.61,-35.41,-34.64,Standing
25:32.7,1000,944,1416,1003,295,2.47,405.22,1.44,151.23,297,69,67.39,67,4541,23464,342,0.97,-0.28,0.08,-2.66,1.81,-0.44,-16.7,-71.7,-36.46,-33.11,-3.56,-35.67,-34.66,Standing
25:32.8,1001,952,1428,1003,301,2.4,416.9,1.47,151.23,297,72,67.39,67,4541,28648,414,0.98,-0.28,0.07,-2.99,-0.95,-1.69,-16.36,-72.14,-36.77,-33.48,-3.67,-35.95,-35.03,Standing
25:32.9,1001,955,1432.5,1003,295,2.47,405.22,1.44,151.23,297,65,67.39,67,4541,32873,479,0.98,-0.28,0.08,-2.4,-1.08,-1.71,-16.72,-71.67,-37,-33.87,-3.79,-36.19,-35.38,Standing
25:33.0,1002,959,1438.5,1003,291,2.52,397.54,1.42,151.23,297,68,67.39,67,4541,37497,547,0.98,-0.28,0.07,-0.92,2.1,0.18,-16.67,-71.83,-37.04,-33.86,-3.67,-36.23,-35.38,Standing
25:33.2,1001,963,1444.5,1003,297,2.44,409.09,1.45,151.23,297,68,67.39,67,4541,42121,615,0.98,-0.27,0.05,-1.6,1.38,-1.21,-16.26,-72.45,-37.17,-33.93,-3.72,-36.34,-35.47,Standing
25:33.3,1000,969,1453.5,1003,302,2.39,418.86,1.48,149.24,296,71,68.67,68,4715,0,0,0.97,-0.27,0.07,-1.76,0.38,-1.4,-16.21,-72.32,-37.32,-34.14,-3.8,-36.48,-35.66,Standing
25:33.4,1001,975,1462.5,1003,294,2.48,403.29,1.44,149.24,296,65,68.67,68,4715,4225,65,0.99,-0.29,0.07,-2.01,0.18,-1.61,-16.65,-71.84,-37.5,-34.36,-3.9,-36.67,-35.86,Standing
25:33.5,1001,983,1474.5,1003,292,2.5,399.45,1.43,149.24,296,68,68.67,68,4715,8849,133,0.97,-0.28,0.07,-1.82,0.9,-1.72,-16.77,-71.7,-37.66,-34.5,-4.01,-36.82,-35.99,Standing
25:33.7,1001,989,1483.5,1003,298,2.43,411.03,1.46,149.24,296,71,68.67,68,4715,13890,204,0.98,-0.27,0.07,-3.05,-1.66,-3.69,-16.09,-72.44,-37.97,-34.96,-4.38,-37.1,-36.46,Standing
25:33.8,1000,995,1492.5,1003,300,2.41,414.94,1.47,149.24,296,72,68.67,68,4715,19074,276,0.99,-0.27,0.07,-1.71,1.09,0.05,-16,-72.45,-38.12,-35.07,-4.28,-37.23,-36.57,Standing
25:33.9,1002,995,1492.5,1003,292,2.5,399.45,1.43,149.24,296,63,68.67,68,4715,23043,339,0.97,-0.28,0.07,-2.41,2.08,0.07,-16.53,-71.9,-38.35,-35.06,-4.17,-37.47,-36.54,Standing
25:34.0,1002,995,1492.5,1003,292,2.5,399.45,1.43,149.24,296,69,68.67,68,4715,27804,408,0.98,-0.28,0.07,-1.65,1.52,-1.18,-16.38,-72.12,-38.48,-35.12,-4.22,-37.6,-36.6,Standing
25:34.2,1001,999,1498.5,1003,300,2.41,414.94,1.47,149.24,296,73,68.67,68,4715,33133,481,0.98,-0.27,0.07,-1.69,0.05,-1.78,-15.9,-72.65,-38.63,-35.37,-4.34,-37.72,-36.86,Standing
25:34.3,1002,1001,1501.5,1003,298,2.43,411.03,1.46,149.24,296,73,68.67,68,4715,38462,554,0.98,-0.28,0.06,-1.76,0.46,-2.24,-16.37,-72.24,-38.78,-35.56,-4.52,-37.88,-37.03,Standing
25:34.4,1001,1001,1501.5,1003,290,2.53,395.63,1.42,149.24,296,66,68.67,68,4715,42818,620,0.98,-0.27,0.06,-1.15,1.34,-0.57,-16.1,-72.57,-38.85,-35.64,-4.49,-37.94,-37.12,Standing
25:34.5,1002,1001,1501.5,1003,295,2.47,405.22,1.44,146.83,295,70,69.07,69,4770,0,0,0.99,-0.27,0.06,-1.89,0.32,-1.58,-15.74,-72.85,-39.02,-35.85,-4.59,-38.09,-37.33,Standing
25:34.6,1001,1001,1501.5,1003,301,2.4,416.9,1.47,146.83,295,73,69.07,69,4770,5329,73,0.98,-0.27,0.07,-2.94,-0.13,-2.11,-15.92,-72.58,-39.31,-36.12,-4.76,-38.38,-37.58,Standing
25:34.8,1001,1001,1501.5,1003,295,2.47,405.22,1.44,146.83,295,66,69.07,69,4770,9685,139,0.98,-0.28,0.06,-1.91,4.18,0.06,-16.52,-72.1,-39.48,-35.85,-4.65,-38.56,-37.3,Standing
25:34.9,1002,1001,1501.5,1003,290,2.53,395.63,1.42,146.83,295,69,69.07,69,4770,14446,208,0.97,-0.28,0.06,-0.98,0.18,-2.08,-16.66,-71.91,-39.54,-36.07,-4.81,-38.62,-37.51,Standing
25:35.0,1000,1001,1501.5,1003,298,2.43,411.03,1.46,146.83,295,68,69.07,69,4770,19070,276,0.98,-0.27,0.09,0.07,-1.37,-8.38,-15.87,-72.31,-39.46,-36.5,-5.76,-38.51,-37.93,Standing
25:35.2,1001,1001,1501.5,1003,304,2.37,422.81,1.49,146.83,295,73,69.07,69,4770,24399,349,0.97,-0.25,0.06,0.18,4.95,2.21,-15.2,-73.42,-39.36,-36.12,-5.39,-38.4,-37.62,Standing
25:35.3,817,999,1498.5,1003,294,2.48,403.29,1.44,146.83,295,66,69.07,69,4770,28755,415,0.97,-0.26,0.07,-1.5,-0.2,0.48,-15.71,-72.72,-39.48,-36.4,-5.23,-38.53,-37.85,Standing
25:35.4,1002,999,1498.5,1003,296,2.46,407.15,1.45,146.83,295,69,69.07,69,4770,33516,484,0.99,-0.26,0.07,-1.28,-0.34,-2.25,-15.29,-73.13,-39.57,-36.69,-5.41,-38.6,-38.15,Standing
25:35.5,514,994,1491,1003,303,2.38,420.83,1.48,146.83,295,72,69.07,69,4770,38700,556,0.98,-0.27,0.09,-1.47,4.55,1.14,-16.17,-72.08,-39.68,-36.37,-5.17,-38.74,-37.8,Standing
25:35.6,997,994,1491,1003,304,2.37,422.81,1.49,146.83,295,72,69.07,69,4770,43884,628,0.98,-0.26,0.08,-1.66,2.43,-0.08,-15.7,-72.52,-39.82,-36.31,-5.08,-38.86,-37.76,Standing
25:35.8,748,992,1488,1003,295,2.47,405.22,1.44,152.6,298,65,69.35,69,4809,0,0,0.97,-0.27,0.08,-2.16,-2.77,-2.58,-16,-72.28,-40.02,-36.91,-5.3,-39.06,-38.32,Standing
25:35.9,512,987,1480.5,1003,296,2.46,407.15,1.45,152.6,298,71,69.35,69,4809,5041,71,0.99,-0.27,0.08,0.66,-3.07,-3.02,-15.88,-72.4,-39.87,-37.54,-5.58,-38.91,-38.93,Standing
25:36.0,510,982,1473,1003,302,2.39,418.86,1.48,152.6,298,71,69.35,69,4809,10082,142,0.99,-0.27,0.08,0.4,-1.48,-2.65,-15.72,-72.66,-39.75,-37.97,-5.81,-38.79,-39.36,Standing
25:36.1,1001,982,1473,1003,305,2.35,424.79,1.49,152.6,298,75,69.35,69,4809,15707,217,0.98,-0.27,0.05,0.23,2.92,-0.15,-16.01,-72.67,-39.65,-37.86,-5.73,-38.7,-39.25,Standing
25:36.3,1001,982,1473,1003,295,2.47,405.22,1.44,152.6,298,67,69.35,69,4809,20196,284,0.98,-0.26,0.07,-0.88,1.37,-1.22,-15.26,-73.25,-39.69,-37.94,-5.79,-38.71,-39.35,Standing
25:36.4,1001,982,1473,1003,299,2.42,412.98,1.46,152.6,298,69,69.35,69,4809,24957,353,0.98,-0.26,0.07,-1.56,0.55,-0.76,-15.2,-73.27,-39.81,-38.12,-5.78,-38.83,-39.52,Standing
25:36.5,1003,982,1473,1003,305,2.35,424.79,1.49,152.6,298,75,69.35,69,4809,30582,428,0.98,-0.26,0.06,-1.93,1.15,-1.17,-15.17,-73.45,-39.98,-38.23,-5.83,-38.99,-39.64,Standing
25:36.6,1003,982,1473,1003,300,2.41,414.94,1.47,152.6,298,66,69.35,69,4809,34938,494,0.99,-0.26,0.06,-2.74,0.26,-1.86,-15.51,-73.04,-40.26,-38.44,-5.96,-39.27,-39.83,Standing
25:36.8,1001,982,1473,1003,294,2.48,403.29,1.44,152.6,298,68,69.35,69,4809,39562,562,0.99,-0.26,0.07,-2.5,0.83,-1.66,-15.13,-73.31,-40.5,-38.59,-6.07,-39.48,-39.98,Standing
25:36.9,812,980,1470,1003,300,2.41,414.94,1.47,152.6,298,72,69.35,69,4809,44746,634,0.97,-0.26,0.07,-1.57,0.69,-1.11,-15.34,-73.05,-40.63,-38.75,-6.11,-39.62,-40.13,Standing
25:37.0,2,970,1455,1003,306,2.34,426.78,1.5,156.84,300,73,70.76,70,5006,0,0,0.98,-0.26,0.07,-1.94,0.91,-1.11,-15.39,-73.14,-40.8,-38.89,-6.15,-39.78,-40.26,Standing
25:37.1,4,960,1440,1003,299,2.42,412.98,1.46,156.84,300,69,70.76,70,5006,4761,69,0.98,-0.26,0.06,-2.05,1.87,-0.63,-15.21,-73.39,-40.98,-38.9,-6.13,-39.95,-40.28,Standing
25:37.3,2,950,1425,1003,294,2.48,403.29,1.44,156.84,300,63,70.76,70,5006,8730,132,0.98,-0.26,0.07,-2.5,0.09,-0.85,-15.5,-72.9,-41.22,-39.14,-6.14,-40.19,-40.49,Standing
25:37.4,1,940,1410,1003,297,2.44,409.09,1.45,156.84,300,68,70.76,70,5006,13354,200,0.98,-0.26,0.07,-2.53,0.86,-1.9,-15.49,-73.01,-41.47,-39.28,-6.28,-40.43,-40.63,Standing
25:37.5,2,930,1395,1003,303,2.38,420.83,1.48,156.84,300,71,70.76,70,5006,18395,271,0.98,-0.26,0.07,-1.71,0.53,-0.79,-15.39,-73.1,-41.61,-39.47,-6.28,-40.56,-40.81,Standing
25:37.6,2,920,1380,1003,300,2.41,414.94,1.47,156.84,300,70,70.76,70,5006,23295,341,0.98,-0.27,0.06,-1.9,0.5,-0.73,-16.05,-72.54,-41.78,-39.65,-6.27,-40.75,-40.97,Standing
25:37.8,2,910,1365,1003,294,2.48,403.29,1.44,156.84,300,63,70.76,70,5006,27264,404,0.98,-0.26,0.06,-1.81,0.63,-0.98,-15.5,-73.16,-41.94,-39.83,-6.3,-40.88,-41.16,Standing
25:37.9,3,900,1350,1003,298,2.43,411.03,1.46,156.84,300,68,70.76,70,5006,31888,472,0.98,-0.26,0.07,-1.99,0.65,-0.4,-15.38,-73.07,-42.11,-39.99,-6.25,-41.05,-41.32,Standing
25:38.0,2,890,1335,1003,304,2.37,422.81,1.49,156.84,300,71,70.76,70,5006,36929,543,0.99,-0.26,0.07,-1.8,1.46,-1.15,-15.55,-72.92,-42.27,-40.06,-6.29,-41.2,-41.38,Standing
25:38.1,1,880,1320,1003,301,2.4,416.9,1.47,156.84,300,71,70.76,70,5006,41970,614,0.98,-0.26,0.07,-1.78,1.1,-0.34,-15.6,-72.84,-42.42,-40.18,-6.23,-41.35,-41.48,Standing
25:38.3,2,870,1305,1003,293,2.49,401.37,1.43,153.17,298,63,67.77,67,4592,0,0,0.98,-0.27,0.07,-1.37,0.51,-1.13,-15.78,-72.69,-42.52,-40.36,-6.28,-41.45,-41.65,Standing
25:38.4,2,860,1290,1003,296,2.46,407.15,1.45,153.17,298,68,67.77,67,4592,4624,68,0.98,-0.26,0.06,-1.41,1.42,-1.05,-15.56,-72.99,-42.63,-40.43,-6.31,-41.55,-41.73,Standing
25:38.5,1,850,1275,1003,302,2.39,418.86,1.48,153.17,298,68,67.77,67,4592,9248,136,0.98,-0.26,0.06,-1.82,1.12,-1.2,-15.59,-72.98,-42.79,-40.54,-6.36,-41.7,-41.84,Standing
25:38.6,3,840,1260,1003,304,2.37,422.81,1.49,153.17,298,70,67.77,67,4592,14148,206,0.99,-0.27,0.07,-2.85,0.07,-1.67,-15.63,-72.87,-43.07,-40.78,-6.47,-41.97,-42.06,Standing
25:38.8,155,832,1248,1003,294,2.48,403.29,1.44,153.17,298,64,67.77,67,4592,18244,270,0.99,-0.26,0.06,-2.77,1.47,-0.56,-15.17,-73.42,-43.35,-40.85,-6.44,-42.22,-42.15,Standing
25:38.9,272,824,1236,1003,295,2.47,405.22,1.44,153.17,298,68,67.77,67,4592,22868,338,0.98,-0.27,0.07,-2.63,-0.77,-1,-15.79,-72.73,-43.61,-41.2,-6.47,-42.5,-42.46,Standing
25:39.0,2,814,1221,1003,303,2.38,420.83,1.48,153.17,298,69,67.77,67,4592,27629,407,0.98,-0.27,0.06,-2.34,-0.4,-0.79,-16.12,-72.53,-43.83,-41.5,-6.47,-42.72,-42.74,Standing
25:39.1,26,805,1207.5,1003,303,2.38,420.83,1.48,153.17,298,71,67.77,67,4592,32670,478,0.98,-0.27,0.06,-1.75,0,-0.73,-15.89,-72.74,-43.98,-41.75,-6.46,-42.86,-42.99,Standing
25:39.3,463,799,1198.5,1003,294,2.48,403.29,1.44,153.17,298,64,67.77,67,4592,36766,542,0.98,-0.28,0.06,-0.76,0.52,-1.32,-16.32,-72.29,-44.01,-41.93,-6.53,-42.9,-43.15,Standing
25:39.4,364,793,1189.5,1003,296,2.46,407.15,1.45,153.17,298,69,67.77,67,4592,41527,611,0.98,-0.27,0.06,-1.21,1.47,-1.16,-15.87,-72.76,-44.09,-42,-6.57,-42.96,-43.23,Standing
25:39.5,1,783,1174.5,1003,303,2.38,420.83,1.48,154.53,299,72,68.34,68,4670,0,0,0.98,-0.27,0.06,-1.29,1.96,-1.17,-15.89,-72.75,-44.18,-42,-6.62,-43.05,-43.23,Standing
25:39.6,52,773,1159.5,1003,303,2.38,420.83,1.48,154.53,299,70,68.34,68,4670,4900,70,0.99,-0.27,0.05,-2.76,-0.97,-2.98,-15.66,-73.03,-44.45,-42.37,-6.89,-43.3,-43.6,Standing
25:39.8,447,768,1152,1003,294,2.48,403.29,1.44,154.53,299,64,68.34,68,4670,8996,134,0.98,-0.26,0.06,-4.06,1.15,-0.41,-15.6,-73.06,-44.89,-42.48,-6.85,-43.72,-43.7,Standing
25:39.9,487,763,1144.5,1003,296,2.46,407.15,1.45,154.53,299,70,68.34,68,4670,13896,204,0.98,-0.26,0.05,-3.27,2.05,-0.24,-15.39,-73.3,-45.23,-42.47,-6.78,-44.04,-43.71,Standing
25:40.0,57,753,1129.5,1003,303,2.38,420.83,1.48,154.53,299,71,68.34,68,4670,18937,275,0.99,-0.27,0.06,-2.29,-0.02,-1.51,-16,-72.66,-45.45,-42.73,-6.87,-44.27,-43.92,Standing
25:40.1,140,745,1117.5,1003,302,2.39,418.86,1.48,154.53,299,71,68.34,68,4670,23978,346,0.98,-0.27,0.05,-0.4,2,-1.79,-15.8,-72.98,-45.43,-42.73,-6.99,-44.24,-43.94,Standing
25:40.3,639,741,1111.5,1003,294,2.48,403.29,1.44,154.53,299,64,68.34,68,4670,28074,410,0.98,-0.26,0.05,-1.27,0.57,-1.15,-15.63,-73.11,-45.52,-42.91,-7.04,-44.32,-44.11,Standing
25:40.4,491,736,1104,1003,299,2.42,412.98,1.46,154.53,299,71,68.34,68,4670,33115,481,0.98,-0.26,0.07,-2.31,1.04,-0.82,-15.37,-73.12,-45.73,-43.03,-7.04,-44.52,-44.23,Standing
25:40.5,45,726,1089,1003,304,2.37,422.81,1.49,154.53,299,71,68.34,68,4670,38156,552,0.98,-0.26,0.05,-2.05,0.86,-0.53,-15.65,-73.1,-45.92,-43.17,-7.01,-44.71,-44.36,Standing
25:40.6,294,719,1078.5,1003,300,2.41,414.94,1.47,154.53,299,70,68.34,68,4670,43056,622,0.98,-0.27,0.05,-2.45,1.18,-0.57,-16.09,-72.59,-46.16,-43.27,-6.98,-44.95,-44.44,Standing
25:40.8,682,716,1074,1003,294,2.48,403.29,1.44,154.34,298,68,69.05,69,4767,0,0,0.99,-0.27,0.05,-2,0.82,-0.21,-16.02,-72.73,-46.34,-43.42,-6.91,-45.12,-44.59,Standing
25:40.9,492,711,1066.5,1003,298,2.43,411.03,1.46,154.34,298,70,69.05,69,4767,4900,70,0.99,-0.27,0.05,-1.86,0.33,-1.61,-16.03,-72.73,-46.5,-43.63,-7.01,-45.28,-44.79,Standing
25:41.0,82,702,1053,1003,304,2.37,422.81,1.49,154.34,298,71,69.05,69,4767,9941,141,0.98,-0.27,0.05,-1.79,1.51,-0.76,-16.19,-72.49,-46.65,-43.69,-7.01,-45.43,-44.84,Standing
25:41.1,248,694,1041,1003,302,2.39,418.86,1.48,154.34,298,71,69.05,69,4767,14982,212,0.98,-0.27,0.05,-1.89,1.54,-0.82,-15.8,-72.88,-46.82,-43.74,-7.01,-45.58,-44.91,Standing
25:41.3,698,691,1036.5,1003,295,2.47,405.22,1.44,154.34,298,64,69.05,69,4767,19078,276,0.99,-0.27,0.05,-2.55,-0.65,-1.53,-15.83,-72.88,-47.07,-44.07,-7.1,-45.82,-45.23,Standing
25:41.4,454,686,1029,1003,298,2.43,411.03,1.46,154.34,298,68,69.05,69,4767,23702,344,0.98,-0.27,0.06,-1.82,2.55,-0.1,-16,-72.57,-47.22,-44.01,-7.02,-45.98,-45.15,Standing
25:41.5,42,676,1014,1003,306,2.34,426.78,1.5,154.34,298,72,69.05,69,4767,28886,416,0.98,-0.28,0.05,-2.18,0.63,-1.26,-16.41,-72.31,-47.43,-44.18,-7.08,-46.19,-45.3,Standing
25:41.6,399,670,1005,1003,299,2.42,412.98,1.46,154.34,298,65,69.05,69,4767,33111,481,0.98,-0.27,0.07,-1.33,1.31,-0.94,-16.11,-72.44,-47.52,-44.26,-7.09,-46.27,-45.39,Standing
25:41.8,729,667,1000.5,1003,293,2.49,401.37,1.43,154.34,298,67,69.05,69,4767,37600,548,0.98,-0.27,0.06,-1.61,0.3,-1.18,-16.14,-72.52,-47.66,-44.48,-7.14,-46.39,-45.6,Standing
25:41.9,395,661,991.5,1003,300,2.41,414.94,1.47,154.34,298,70,69.05,69,4767,42500,618,0.97,-0.28,0.07,-1.6,0.92,-0.5,-16.63,-71.88,-47.79,-44.61,-7.11,-46.54,-45.7,Standing
25:42.0,44,652,978,1003,306,2.34,426.78,1.5,156.66,300,71,68.95,68,4753,0,0,0.97,-0.28,0.05,-1.31,2.49,-0.63,-16.38,-72.35,-47.88,-44.55,-7.09,-46.62,-45.66,Standing
25:42.1,370,645,967.5,1003,299,2.42,412.98,1.46,156.66,300,66,68.95,68,4753,4356,66,0.98,-0.28,0.05,-2,0.72,-0.82,-16.35,-72.37,-48.06,-44.71,-7.09,-46.79,-45.82,Standing
25:42.3,725,643,964.5,1003,293,2.49,401.37,1.43,156.66,300,65,68.95,68,4753,8581,131,0.98,-0.27,0.06,-2.6,0.53,-1.47,-16.22,-72.43,-48.31,-44.89,-7.17,-47.03,-45.99,Standing
25:42.4,390,636,954,1003,298,2.43,411.03,1.46,156.66,300,70,68.95,68,4753,13481,201,0.98,-0.28,0.06,-2.27,0.69,-1.6,-16.44,-72.22,-48.53,-45.06,-7.28,-47.24,-46.14,Standing
25:42.5,97,627,940.5,1003,305,2.35,424.79,1.49,156.66,300,71,68.95,68,4753,18522,272,0.97,-0.28,0.05,-1.66,1.13,-0.76,-16.68,-72.04,-48.66,-45.16,-7.27,-47.38,-46.24,Standing
25:42.6,362,621,931.5,1003,299,2.42,412.98,1.46,156.66,300,69,68.95,68,4753,23283,341,0.98,-0.28,0.04,-1.27,1.15,-1.41,-16.26,-72.54,-48.75,-45.27,-7.35,-47.45,-46.36,Standing
25:42.8,748,618,927,1003,294,2.48,403.29,1.44,156.66,300,65,68.95,68,4753,27508,406,0.98,-0.27,0.05,-1.69,0.32,-2.17,-15.93,-72.74,-48.89,-45.48,-7.52,-47.57,-46.57,Standing
25:42.9,483,613,919.5,1003,299,2.42,412.98,1.46,156.66,300,69,68.95,68,4753,32269,475,0.98,-0.27,0.06,-2.03,1.97,-1.28,-16.08,-72.51,-49.08,-45.49,-7.59,-47.76,-46.57,Standing
25:43.0,130,605,907.5,1003,305,2.35,424.79,1.49,156.66,300,71,68.95,68,4753,37310,546,0.98,-0.28,0.06,-2.9,0.79,-1.15,-16.24,-72.41,-49.37,-45.64,-7.63,-48.04,-46.71,Standing
25:43.2,419,599,898.5,1003,299,2.42,412.98,1.46,156.66,300,65,68.95,68,4753,41535,611,0.98,-0.27,0.05,-2.85,1.17,-1.31,-16.1,-72.59,-49.66,-45.74,-7.7,-48.31,-46.82,Standing
25:43.3,760,596,894,1003,293,2.49,401.37,1.43,153.37,298,70,68.14,68,4642,0,0,0.98,-0.28,0.06,-1.3,1.99,-1.82,-16.36,-72.29,-49.75,-45.74,-7.82,-48.41,-46.8,Standing
25:43.4,535,592,888,1003,298,2.43,411.03,1.46,153.37,298,69,68.14,68,4642,4761,69,0.98,-0.27,0.06,-1.89,1.03,-0.59,-15.69,-72.94,-49.91,-45.86,-7.8,-48.54,-46.95,Standing
25:43.5,119,583,874.5,1003,304,2.37,422.81,1.49,153.37,298,72,68.14,68,4642,9945,141,0.98,-0.28,0.06,-2.59,0.43,-0.68,-16.62,-72.06,-50.16,-46.06,-7.78,-48.82,-47.1,Standing
25:43.6,297,576,864,1003,301,2.4,416.9,1.47,153.37,298,71,68.14,68,4642,14986,212,0.99,-0.28,0.06,-1.73,1.17,-1.22,-16.18,-72.46,-50.31,-46.16,-7.84,-48.94,-47.21,Standing
25:43.8,761,573,859.5,1003,294,2.48,403.29,1.44,153.37,298,65,68.14,68,4642,19211,277,0.98,-0.27,0.06,-1.64,1.46,-0.95,-16.18,-72.47,-50.45,-46.23,-7.86,-49.08,-47.28,Standing
25:43.9,537,569,853.5,1003,298,2.43,411.03,1.46,153.37,298,70,68.14,68,4642,24111,347,0.98,-0.27,0.06,-2,1.46,-1.42,-16.08,-72.59,-50.62,-46.3,-7.94,-49.24,-47.35,Standing
25:44.0,93,560,840,1003,304,2.37,422.81,1.49,153.37,298,70,68.14,68,4642,29011,417,0.99,-0.27,0.07,-0.67,1.42,-2.2,-15.87,-72.67,-50.64,-46.37,-8.11,-49.25,-47.42,Standing
25:44.1,342,553,829.5,1003,300,2.41,414.94,1.47,153.37,298,70,68.14,68,4642,33911,487,0.98,-0.27,0.07,-1.04,-0.14,-2.68,-15.9,-72.64,-50.7,-46.64,-8.35,-49.31,-47.68,Standing
25:44.3,759,551,826.5,1003,294,2.48,403.29,1.44,153.37,298,68,68.14,68,4642,38535,555,0.98,-0.26,0.06,-0.87,2.94,-0.82,-15.38,-73.19,-50.74,-46.52,-8.35,-49.32,-47.59,Standing
25:44.4,500,546,819,1003,299,2.42,412.98,1.46,153.37,298,71,68.14,68,4642,43576,626,0.98,-0.26,0.07,-1.75,0.21,-1.87,-15.54,-72.89,-50.89,-46.75,-8.49,-49.47,-47.79,Standing
25:44.5,92,536,804,1003,304,2.37,422.81,1.49,155.68,299,70,69.62,69,4846,0,0,0.98,-0.27,0.04,-2.09,-0.73,-1.4,-16.01,-72.79,-51.08,-47.08,-8.56,-49.67,-48.11,Standing
25:44.6,314,530,795,1003,301,2.4,416.9,1.47,155.68,299,70,69.62,69,4846,4900,70,0.99,-0.27,0.06,-2.55,1.25,-0.64,-15.85,-72.77,-51.32,-47.18,-8.54,-49.91,-48.2,Standing
25:44.8,758,527,790.5,1003,293,2.49,401.37,1.43,155.68,299,65,69.62,69,4846,9125,135,0.99,-0.27,0.06,-1.94,1.63,-0.21,-15.79,-72.83,-51.5,-47.22,-8.47,-50.07,-48.25,Standing
25:44.9,581,523,784.5,1003,297,2.44,409.09,1.45,155.68,299,69,69.62,69,4846,13886,204,0.98,-0.28,0.05,-2.37,0.15,-0.66,-16.36,-72.33,-51.72,-47.46,-8.46,-50.31,-48.45,Standing
25:45.0,169,515,772.5,1003,303,2.38,420.83,1.48,155.68,299,70,69.62,69,4846,18786,274,0.98,-0.26,0.06,-1.89,0.24,-1.11,-15.65,-73.01,-51.89,-47.68,-8.5,-50.44,-48.69,Standing
25:52.2,720,720,1080,720,290,2.53,395.63,1.42,0,0,63,0,0,0,8194,128,0.98,-0.25,0.09,2.45,-0.76,-4.24,-14.63,-73.34,0.81,-0.32,-0.76,0.19,-3.24,Left Fall while Standing
25:52.3,735,727,1090.5,735,293,2.49,401.37,1.43,0,0,69,0,0,0,12955,197,0.98,-0.23,0.09,2.39,2.85,-2.85,-13.7,-74.39,1.17,-0.21,-1.01,0.57,-3.18,Left Fall while Standing
25:52.5,541,665,997.5,735,295,2.47,405.22,1.44,0,0,69,0,0,0,17716,266,0.98,-0.22,0.1,1.01,3.57,-1.71,-13.35,-74.39,1.36,-0.02,-1.12,0.77,-2.99,Left Fall while Standing
25:52.6,333,582,873,735,299,2.42,412.98,1.46,0,0,68,0,0,0,22340,334,0.99,-0.22,0.1,-0.95,1.73,-2.75,-13.11,-74.64,1.31,-0.05,-1.36,0.74,-3.04,Left Fall while Standing
25:52.7,124,490,735,735,301,2.4,416.9,1.47,0,0,70,0,0,0,27240,404,0.99,-0.22,0.11,0,2.32,-3.68,-13.01,-74.41,1.38,-0.01,-1.72,0.8,-2.99,Left Fall while Standing
25:52.8,111,427,640.5,735,302,2.39,418.86,1.48,0,0,71,0,0,0,32281,475,1,-0.21,0.11,2.15,2.84,-8.21,-12.55,-74.91,1.71,0.09,-2.62,1.14,-2.91,Left Fall while Standing
25:52.9,275,405,607.5,735,299,2.42,412.98,1.46,0,0,70,0,0,0,37181,545,1,-0.18,0.11,4.18,1.26,-14.29,-10.85,-76.36,2.29,0,-4.27,1.76,-3.06,Left Fall while Standing
25:53.1,557,424,636,735,295,2.47,405.22,1.44,0,0,62,0,0,0,41025,607,0.99,-0.16,0.12,5.11,0.65,-16.73,-9.84,-77.02,2.98,-0.17,-6.21,2.47,-3.24,Left Fall while Standing
25:53.2,757,461,691.5,757,291,2.52,397.54,1.42,148.84,296,63,67.07,67,4498,0,0,1,-0.14,0.12,5.76,0.88,-14.44,-8.32,-78.03,3.76,-0.3,-7.89,3.28,-3.41,Left Fall while Standing
25:53.3,774,492,738,774,292,2.5,399.45,1.43,148.84,296,67,67.07,67,4498,4489,67,0.99,-0.11,0.12,8.71,1.05,-7.05,-6.85,-79.11,4.9,-0.42,-8.66,4.43,-3.57,Left Fall while Standing
25:53.4,576,500,750,774,295,2.47,405.22,1.44,148.84,296,69,67.07,67,4498,9250,136,1,-0.12,0.13,9.16,-1.71,2.46,-7.12,-78.68,6.09,-0.88,-8.26,5.57,-3.99,Left Fall while Standing
25:53.6,255,479,718.5,774,300,2.41,414.94,1.47,148.84,296,67,67.07,67,4498,13739,203,1.02,-0.1,0.12,10.24,3.77,3.19,-6,-79.98,7.43,-0.66,-7.77,6.9,-3.83,Left Fall while Standing
25:53.7,130,452,678,774,303,2.38,420.83,1.48,148.84,296,70,67.07,67,4498,18639,273,0.99,-0.09,0.12,4.99,-1.06,-0.21,-5.62,-80.03,8.12,-1.04,-7.7,7.57,-4.2,Left Fall while Standing
25:53.8,433,451,676.5,774,297,2.44,409.09,1.45,148.84,296,67,67.07,67,4498,23128,340,1,-0.08,0.12,0,0.66,-0.2,-5.07,-80.07,8.19,-1.2,-7.62,7.66,-4.35,Left Fall while Standing
25:53.9,753,471,706.5,774,293,2.49,401.37,1.43,148.84,296,61,67.07,67,4498,26849,401,1,-0.09,0.13,-1.44,0.47,2.5,-5.86,-79.24,8.08,-1.39,-7.21,7.52,-4.5,Left Fall while Standing
25:54.1,689,485,727.5,774,297,2.44,409.09,1.45,148.84,296,66,67.07,67,4498,31205,467,1,-0.11,0.11,0.01,-4.17,3.37,-6.72,-79.49,8.15,-2.15,-6.7,7.56,-5.24,Left Fall while Standing
25:54.2,512,486,729,774,310,2.3,434.78,1.52,148.84,296,67,67.07,67,4498,35694,534,1,-0.1,0.11,-2.64,2.21,1.75,-6.01,-80.18,7.89,-2.12,-6.39,7.34,-5.25,Left Fall while Standing
25:54.3,307,476,714,774,316,2.24,446.96,1.54,148.84,296,70,67.07,67,4498,40594,604,1.01,-0.1,0.13,-2.36,5.64,2.08,-6.37,-79.1,7.67,-1.67,-6.04,7.11,-4.77,Left Fall while Standing
25:54.4,188,461,691.5,774,310,2.3,434.78,1.52,136.94,301,69,67.34,67,4534,0,0,1.04,-0.14,0.17,-4.69,5.04,-16.55,-7.88,-76.58,7.16,-1.3,-7.97,6.56,-4.31,Left Fall while Standing
25:54.5,547,465,697.5,774,298,2.43,411.03,1.46,136.94,301,61,67.34,67,4534,3721,61,1.06,-0.13,0.15,0.34,9.6,-37.4,-7.45,-77.78,7.27,-0.37,-12.48,6.69,-3.46,Left Fall while Standing
25:54.7,845,483,724.5,845,292,2.5,399.45,1.43,136.94,301,60,67.34,67,4534,7321,121,0.93,-0.02,0.19,13.43,24.95,-38.69,-2.08,-76.74,9.01,2.48,-17.18,8.56,-0.69,Left Fall while Standing
25:54.8,689,493,739.5,845,294,2.48,403.29,1.44,136.94,301,64,67.34,67,4534,11417,185,0.99,0.1,0.18,-9.15,-13.47,-52.18,4.94,-76.77,7.94,0.56,-23.55,7.82,-2.53,Left Fall while Standing
25:54.9,1001,515,772.5,1001,339,2.02,495.61,1.66,136.94,301,68,67.34,67,4534,16041,253,0.92,0.16,0.23,-3.79,9.16,-37.86,8.94,-71.62,7.54,1.45,-28.15,7.6,-1.48,Left Fall while Standing
25:55.0,1002,535,802.5,1002,370,1.76,566.62,1.81,136.94,301,68,67.34,67,4534,20665,321,0.95,0.28,0.24,-1.93,7.13,-33.47,15.52,-66.93,7.37,2.08,-32.17,7.7,-0.68,Left Fall while Standing
25:55.2,1001,554,831,1002,378,1.71,586.05,1.85,136.94,301,70,67.34,67,4534,25565,391,0.88,0.33,0.18,-1.15,5.66,-27.97,19.83,-65.06,7.3,2.53,-35.54,7.8,-0.17,Left Fall while Standing
25:55.3,1003,571,856.5,1003,380,1.69,590.98,1.86,136.94,301,74,67.34,67,4534,31041,465,0.87,0.38,0.17,-8.63,-3.13,-29.96,22.66,-62.93,6.3,1.9,-39.15,6.95,-0.7,Left Fall while Standing
25:55.4,1003,587,880.5,1003,382,1.68,595.94,1.87,136.94,301,85,67.34,67,4534,38266,550,0.91,0.45,0.21,-9.38,-0.23,-30.75,25.19,-59.86,5.2,1.62,-42.9,6,-0.84,Left Fall while Standing
25:55.5,1002,602,903,1003,385,1.66,603.45,1.88,136.94,301,87,67.34,67,4534,45835,637,0.84,0.42,0.13,-9.27,-0.93,-20.89,25.91,-60.58,4.12,1.25,-45.39,4.99,-1.22,Left Fall while Standing
25:55.7,1003,616,924,1003,384,1.66,600.94,1.88,112.74,350,77,71.94,71,5175,0,0,0.77,0.5,0.26,-5.36,4.47,-7.92,30.73,-52.36,3.53,1.56,-46.27,4.62,-0.6,Left Fall while Standing
25:55.8,1001,628,942,1003,381,1.69,593.46,1.86,112.74,350,77,71.94,71,5175,5929,77,0.79,0.53,0.28,-0.73,10.21,-6.95,31.87,-51.19,3.51,2.57,-47.02,4.64,0.42,Left Fall while Standing
25:55.9,1003,640,960,1003,380,1.69,590.98,1.86,112.74,350,79,71.94,71,5175,12170,156,0.78,0.56,0.26,-2.18,2.38,-20.9,33.55,-50.26,3.31,2.62,-49.52,4.52,0.5,Left Fall while Standing
25:56.0,514,637,955.5,1003,382,1.68,595.94,1.87,112.74,350,78,71.94,71,5175,18254,234,0.73,0.55,0.27,-6.5,1.47,-13.14,34.78,-48.25,2.57,2.55,-51.05,3.86,0.52,Left Fall while Standing
25:56.1,1002,648,972,1003,386,1.65,605.97,1.89,112.74,350,79,71.94,71,5175,24495,313,0.74,0.57,0.28,-4.93,5.76,-10.75,34.92,-48.18,2.03,3.02,-52.28,3.34,0.97,Left Fall while Standing
25:56.3,518,644,966,1003,384,1.66,600.94,1.88,112.74,350,80,71.94,71,5175,30895,393,0.73,0.58,0.29,-4.38,4.15,-12.5,35.83,-46.85,1.56,3.28,-53.72,2.93,1.28,Left Fall while Standing
25:56.4,516,640,960,1003,364,1.81,552.35,1.78,112.74,350,80,71.94,71,5175,37295,473,0.71,0.58,0.31,-2.05,4.97,-9.47,36.47,-45.41,1.37,3.65,-54.79,2.78,1.68,Left Fall while Standing
25:56.5,990,650,975,1003,343,1.98,504.41,1.68,112.74,350,76,71.94,71,5175,43071,549,0.71,0.63,0.29,1.56,7.92,-4.92,38.85,-43.93,1.64,4.38,-55.3,3.12,2.45,Left Fall while Standing
25:56.6,1001,659,988.5,1003,329,2.11,474.06,1.61,112.74,350,74,71.94,71,5175,48547,623,0.69,0.62,0.3,0.9,0.97,-7.44,38.69,-43.8,1.82,4.25,-56.12,3.29,2.33,Left Fall while Standing
25:56.8,529,656,984,1003,326,2.14,467.72,1.59,112.74,350,77,71.94,71,5175,54476,700,0.68,0.62,0.3,-0.35,-4.96,-8.31,39.2,-43.2,1.84,3.39,-57.05,3.34,1.53,Left Fall while Standing
25:56.9,1001,665,997.5,1003,330,2.1,476.19,1.61,20724.29,360,77,77.72,77,6039,0,0,0.68,0.64,0.29,1.29,0.3,-9.46,40.58,-42.22,2.07,3.18,-58.12,3.61,1.36,Left Fall while Standing
25:57.0,513,661,991.5,1003,333,2.07,482.61,1.63,20724.29,360,78,77.72,77,6039,6084,78,0.65,0.65,0.3,-0.37,1.38,-5.32,41.57,-40.86,2.09,3.11,-58.68,3.67,1.35,Left Fall while Standing
25:57.1,1000,669,1003.5,1003,335,2.05,486.92,1.64,20724.29,360,80,77.72,77,6039,12484,158,0.64,0.65,0.29,-0.09,0.6,-0.62,42.3,-40.21,2.15,2.93,-58.66,3.76,1.21,Left Fall while Standing
25:57.3,1001,677,1015.5,1003,339,2.02,495.61,1.66,20724.29,360,78,77.72,77,6039,18568,236,0.68,0.67,0.28,0.25,-4.21,-1.73,41.74,-41.66,2.25,2.16,-58.77,3.83,0.4,Left Fall while Standing
25:57.4,1002,685,1027.5,1003,361,1.83,545.32,1.76,20724.29,360,81,77.72,77,6039,25129,317,0.67,0.66,0.26,-1.07,-3.79,-1.81,42.18,-41.71,2.19,1.44,-58.9,3.79,-0.29,Left Fall while Standing
25:57.5,1002,692,1038,1003,378,1.71,586.05,1.85,20724.29,360,83,77.72,77,6039,32018,400,0.66,0.65,0.25,-4.02,-0.99,2.56,42,-41.85,1.76,1.07,-58.49,3.37,-0.65,Left Fall while Standing
25:57.6,1002,699,1048.5,1003,384,1.66,600.94,1.88,20724.29,360,81,77.72,77,6039,38579,481,0.66,0.65,0.24,-2.2,-2.85,11.16,41.97,-42.28,1.56,0.46,-56.99,3.18,-1.25,Left Fall while Standing
25:57.8,1003,705,1057.5,1003,382,1.68,595.94,1.87,20724.29,360,82,77.72,77,6039,45303,563,0.7,0.64,0.25,-3.41,-5.64,18.27,40.33,-43.76,1.21,-0.48,-54.63,2.77,-2.22,Left Fall while Standing
25:57.9,985,711,1066.5,1003,382,1.68,595.94,1.87,20724.29,360,82,77.72,77,6039,52027,645,0.73,0.59,0.22,-3.39,-8.74,24.88,37.22,-47.46,0.85,-1.83,-51.42,2.31,-3.65,Left Fall while Standing
25:58.0,256,702,1053,1003,384,1.66,600.94,1.88,20724.29,360,80,77.72,77,6039,58427,725,0.82,0.57,0.22,-2.35,-7.99,17.87,33.31,-51.68,0.63,-3.07,-49.11,1.94,-5.01,Left Fall while Standing
25:58.1,1,687,1030.5,1003,386,1.65,605.97,1.89,60.22,366,81,80.61,80,6497,0,0,0.81,0.49,0.19,1.41,-2.17,13.98,29.99,-55.38,0.87,-3.58,-47.29,2.04,-5.65,Left Fall while Standing
25:58.3,1,674,1011,1003,382,1.68,595.94,1.87,60.22,366,81,80.61,80,6497,6561,81,0.81,0.45,0.21,-1.56,-3.85,26.17,27.76,-57,0.75,-4.3,-43.97,1.83,-6.41,Left Fall while Standing
25:58.4,1,660,990,1003,365,1.8,554.71,1.78,60.22,366,80,80.61,80,6497,12961,161,0.87,0.45,0.22,-5.73,-0.85,35.4,26.1,-58.56,0.11,-4.65,-39.49,1.15,-6.81,Left Fall while Standing
25:58.5,1,648,972,1003,353,1.9,526.87,1.73,60.22,366,79,80.61,80,6497,19202,240,0.91,0.41,0.22,-7.44,4.69,34.26,22.88,-61.64,-0.74,-4.32,-35.18,0.21,-6.61,Left Fall while Standing
25:58.6,1,636,954,1003,346,1.96,511.08,1.69,60.22,366,77,80.61,80,6497,25131,317,0.9,0.3,0.19,-4.24,-0.42,34.06,17.45,-66.82,-1.19,-4.62,-30.85,-0.45,-7.11,Left Fall while Standing
25:58.8,1,624,936,1003,345,1.97,508.85,1.69,60.22,366,79,80.61,80,6497,31372,396,0.98,0.2,0.19,-7.73,-5.51,34.18,10.9,-72.65,-2.08,-5.55,-26.55,-1.56,-8.23,Left Fall while Standing
25:58.9,0,612,918,1003,342,1.99,502.2,1.67,60.22,366,82,80.61,80,6497,38096,478,0.96,0.11,0.18,-4.77,0.05,27.19,5.68,-76.16,-2.6,-5.79,-23.08,-2.27,-8.6,Left Fall while Standing
25:59.0,0,601,901.5,1003,331,2.09,478.32,1.62,60.22,366,78,80.61,80,6497,44180,556,0.99,0.07,0.21,-3.15,0.84,18.5,3.33,-75.59,-2.92,-5.93,-20.71,-2.67,-8.72,Left Fall while Standing
25:59.1,2,591,886.5,1003,327,2.13,469.83,1.6,60.22,366,72,80.61,80,6497,49364,628,0.98,0.04,0.19,-0.63,5.2,15.76,1.47,-77.31,-2.93,-5.53,-18.66,-2.75,-8.41,Left Fall while Standing
25:59.2,98,582,873,1003,350,1.92,520.06,1.71,60.22,366,79,80.61,80,6497,55605,707,0.99,0,0.2,-4.18,3.32,12.41,-0.65,-77.12,-3.37,-5.37,-17.03,-3.26,-8.24,Left Fall while Standing
25:59.4,1002,590,885,1003,378,1.71,586.05,1.85,20724.14,351,86,79.37,79,6299,0,0,0.98,-0.01,0.19,-5.53,-2.7,10.38,-0.97,-77.22,-3.99,-5.95,-15.65,-3.87,-8.81,Left Fall while Standing
25:59.5,1001,596,894,1003,386,1.65,605.97,1.89,20724.14,351,86,79.37,79,6299,7396,86,1.01,-0.05,0.16,-5.08,-4,8.66,-3.2,-78.95,-4.55,-6.7,-14.47,-4.5,-9.59,Left Fall while Standing
25:59.6,1001,603,904.5,1003,385,1.66,603.45,1.88,20724.14,351,84,79.37,79,6299,14452,170,0.99,-0.04,0.16,-5.69,1.44,3.69,-2.79,-78.77,-5.19,-6.78,-13.91,-5.1,-9.66,Left Fall while Standing
25:59.7,1003,609,913.5,1003,386,1.65,605.97,1.89,20724.14,351,84,79.37,79,6299,21508,254,0.99,-0.07,0.15,-1.01,1.05,2.18,-4.7,-79.03,-5.25,-6.89,-13.54,-5.23,-9.78,Left Fall while Standing
25:59.9,1003,616,924,1003,386,1.65,605.97,1.89,20724.14,351,85,79.37,79,6299,28733,339,0.99,-0.08,0.17,-1.31,3.67,1.95,-5.03,-77.71,-5.34,-6.69,-13.2,-5.33,-9.53,Left Fall while Standing
26:00.0,1002,622,933,1003,387,1.64,608.49,1.89,20724.14,351,86,79.37,79,6299,36129,425,1,-0.08,0.18,0.74,6.4,6.07,-5.13,-76.99,-5.18,-6.14,-12.34,-5.18,-8.97,Left Fall while Standing
26:00.1,1003,628,942,1003,379,1.7,588.51,1.85,20724.14,351,86,79.37,79,6299,43525,511,0.97,-0.08,0.19,1.49,0.69,0.98,-4.92,-76.56,-4.93,-6.3,-12.12,-4.93,-9.11,Left Fall while Standing
26:00.2,1001,633,949.5,1003,331,2.09,478.32,1.62,20724.14,351,73,79.37,79,6299,48854,584,0.99,-0.09,0.18,0.53,-1.82,-0.31,-5.61,-76.8,-4.79,-6.78,-12.06,-4.83,-9.58,Left Fall while Standing
26:00.4,1003,639,958.5,1003,303,2.38,420.83,1.48,20724.14,351,80,79.37,79,6299,55254,664,0.99,-0.08,0.2,-0.4,2.76,-0.46,-5.36,-76.04,-4.77,-6.68,-12.02,-4.8,-9.46,Left Fall while Standing
26:03.5,1002,1002,1503,1002,283,2.61,382.43,1.38,0,0,82,0,0,0,11080,148,0.92,-0.22,0.19,-8.38,2.99,13.59,-13.73,-70.8,-1.38,0.51,3.54,-1.88,-2.34,Right Fall while Standing
26:03.6,1002,1002,1503,1002,284,2.6,384.3,1.39,0,0,75,0,0,0,16705,223,0.95,-0.25,0.15,-7.23,0.53,17.14,-15.38,-71.17,-2.2,0.33,5.75,-2.73,-2.53,Right Fall while Standing
26:03.8,1001,1001,1501.5,1002,290,2.53,395.63,1.42,0,0,77,0,0,0,22634,300,0.96,-0.3,0.14,-3.11,-1.15,16.56,-17.48,-69.78,-2.52,-0.06,7.88,-3.11,-2.84,Right Fall while Standing
26:03.9,1002,1001,1501.5,1002,334,2.06,484.76,1.63,0,0,75,0,0,0,28259,375,0.94,-0.35,0.13,-7.95,-5.73,13.18,-20.78,-66.83,-3.43,-1.01,9.6,-4.12,-3.64,Right Fall while Standing
26:04.0,1000,1001,1501.5,1002,369,1.77,564.22,1.8,0,0,77,0,0,0,34188,452,0.95,-0.4,0.13,-17.92,-4.72,7.15,-23.14,-64.6,-5.58,-1.84,10.59,-6.28,-4.35,Right Fall while Standing
26:04.1,1002,1001,1501.5,1002,379,1.7,588.51,1.85,0,0,82,0,0,0,40912,534,0.9,-0.4,0.17,-23.56,-2.56,20.08,-24.25,-62.54,-8.41,-2.4,13.15,-9.04,-4.81,Right Fall while Standing
26:04.3,1001,1001,1501.5,1002,383,1.67,598.44,1.87,0,0,81,0,0,0,47473,615,0.73,-0.36,0.25,-16.88,10.18,20.81,-25.77,-57.36,-10.42,-1.39,15.81,-11.03,-3.63,Right Fall while Standing
26:04.4,1001,1001,1501.5,1002,384,1.66,600.94,1.88,0,0,77,0,0,0,53402,692,0.92,-0.51,0.07,2.18,15.23,46.52,-29.6,-59.08,-10.08,0.25,21.68,-10.86,-2.13,Right Fall while Standing
26:04.5,1000,1001,1501.5,1002,387,1.64,608.49,1.89,107.81,338,80,77.33,77,5979,0,0,0.82,-0.57,0.09,2.24,-6.65,23.74,-35.13,-53.43,-9.73,-0.83,24.72,-10.75,-2.93,Right Fall while Standing
26:04.6,538,954,1431,1002,389,1.63,613.56,1.9,107.81,338,77,77.33,77,5979,5929,77,0.85,-0.59,0.08,-0.73,-11.91,11.77,-35.35,-53.3,-9.75,-2.55,26.27,-10.77,-4.58,Right Fall while Standing
26:04.8,998,958,1437,1002,344,1.97,506.63,1.68,107.81,338,69,77.33,77,5979,10690,146,0.76,-0.67,0.12,-1.85,-5.63,16.84,-41.74,-46.49,-9.91,-3.5,28.48,-11.18,-5.22,Right Fall while Standing
26:04.9,1001,962,1443,1002,302,2.39,418.86,1.48,107.81,338,74,77.33,77,5979,16166,220,0.77,-0.67,0.09,0.4,0.73,20.06,-41.46,-47.14,-9.79,-3.66,31.08,-11.06,-5.4,Right Fall while Standing
26:05.0,1001,965,1447.5,1002,297,2.44,409.09,1.45,107.81,338,74,77.33,77,5979,21642,294,0.76,-0.69,0.06,-5.4,-2.15,15.41,-42.82,-45.95,-10.4,-4.18,33.11,-11.69,-5.85,Right Fall while Standing
26:05.1,524,933,1399.5,1002,300,2.41,414.94,1.47,107.81,338,76,77.33,77,5979,27418,370,0.72,-0.72,0.09,-2.71,-1.01,22.32,-45.47,-43.12,-10.67,-4.56,36,-12.06,-6.1,Right Fall while Standing
26:05.3,1001,938,1407,1002,294,2.48,403.29,1.44,107.81,338,64,77.33,77,5979,31514,434,0.66,-0.78,0.1,-2.21,-5.79,22.27,-50.11,-38.38,-10.87,-5.53,38.88,-12.44,-6.85,Right Fall while Standing
26:05.4,1001,942,1413,1002,304,2.37,422.81,1.49,107.81,338,71,77.33,77,5979,36555,505,0.66,-0.78,0.02,-2.42,-13.27,20.04,-50.31,-38.68,-11.11,-7.46,41.51,-12.67,-8.7,Right Fall while Standing
26:05.5,999,945,1417.5,1002,365,1.8,554.71,1.78,107.81,338,73,77.33,77,5979,41884,578,0.64,-0.81,0.02,-6.98,-4.89,20.49,-52.56,-36.42,-11.91,-8.32,44.17,-13.54,-9.44,Right Fall while Standing
26:05.6,1000,948,1422,1002,387,1.64,608.49,1.89,107.81,338,75,77.33,77,5979,47509,653,0.55,-0.87,0.01,-6.45,-1.79,23.21,-58.14,-30.86,-12.65,-8.79,47.17,-14.47,-9.67,Right Fall while Standing
26:05.8,1000,951,1426.5,1002,387,1.64,608.49,1.89,129.48,336,76,72.99,72,5327,0,0,0.53,-0.85,0.04,-6.98,1.18,20.4,-58.82,-30.09,-13.44,-8.89,49.79,-15.26,-9.74,Right Fall while Standing
26:05.9,1000,953,1429.5,1002,382,1.68,595.94,1.87,129.48,336,74,72.99,72,5327,5476,74,0.51,-0.89,0.01,-6.22,-0.91,11.01,-60.86,-28.13,-14.14,-9.25,51.26,-16.01,-10.01,Right Fall while Standing
26:06.0,998,955,1432.5,1002,331,2.09,478.32,1.62,129.48,336,72,72.99,72,5327,10660,146,0.46,-0.94,0.01,-0.34,2.98,11.34,-64.5,-24.49,-14.12,-9.13,52.77,-16.13,-9.75,Right Fall while Standing
26:06.1,998,957,1435.5,1002,313,2.27,440.85,1.53,129.48,336,76,72.99,72,5327,16436,222,0.41,-0.93,-0.01,-1.69,-2.58,10.68,-66.6,-22.39,-14.26,-9.7,54.21,-16.35,-10.21,Right Fall while Standing
26:06.3,1000,959,1438.5,1002,295,2.47,405.22,1.44,129.48,336,66,72.99,72,5327,20792,288,0.4,-0.92,0.03,-4.45,-4.76,13.33,-67.04,-21.88,-14.74,-10.55,55.97,-16.84,-11,Right Fall while Standing
26:06.4,999,961,1441.5,1002,290,2.53,395.63,1.42,129.48,336,72,72.99,72,5327,25976,360,0.39,-0.94,0.01,-5.18,-0.89,17.48,-68.1,-20.9,-15.33,-10.91,58.27,-17.44,-11.31,Right Fall while Standing
26:06.5,1001,962,1443,1002,297,2.44,409.09,1.45,129.48,336,72,72.99,72,5327,31160,432,0.35,-0.97,-0.01,-7.31,1.22,17.48,-70.68,-18.31,-16.17,-11.01,60.56,-18.35,-11.3,Right Fall while Standing
26:06.6,1000,964,1446,1002,320,2.2,455.19,1.56,129.48,336,76,72.99,72,5327,36936,508,0.3,-0.98,-0.04,-4.81,-2.92,13.15,-73.41,-15.45,-16.71,-11.63,62.31,-18.97,-11.78,Right Fall while Standing
26:06.8,1000,965,1447.5,1002,369,1.77,564.22,1.8,129.48,336,75,72.99,72,5327,42561,583,0.26,-0.98,-0.05,-2.96,0.86,9.92,-75.66,-13.09,-17.01,-11.77,63.66,-19.35,-11.83,Right Fall while Standing
26:06.9,1001,966,1449,1002,383,1.67,598.44,1.87,129.48,336,77,72.99,72,5327,48490,660,0.27,-0.99,-0.03,-4.17,-4.94,5.53,-75.25,-13.67,-17.46,-12.64,64.45,-19.77,-12.68,Right Fall while Standing
26:07.0,1001,968,1452,1002,389,1.63,613.56,1.9,100.39,336,78,73.87,73,5456,0,0,0.27,-0.99,-0.04,-2.3,-3.18,3.02,-75.25,-13.6,-17.67,-13.28,64.93,-19.98,-13.3,Right Fall while Standing
26:07.1,1001,969,1453.5,1002,388,1.64,611.02,1.9,100.39,336,78,73.87,73,5456,6084,78,0.25,-1,-0.04,-5.03,-2.34,5.4,-76.67,-12.13,-18.24,-13.83,65.71,-20.58,-13.76,Right Fall while Standing
26:07.3,1001,970,1455,1002,389,1.63,613.56,1.9,100.39,336,78,73.87,73,5456,12168,156,0.21,-0.99,-0.04,-1.79,8.92,14.04,-78.26,-10.54,-18.39,-12.96,67.56,-20.79,-12.87,Right Fall while Standing
26:07.4,1001,971,1456.5,1002,390,1.62,616.11,1.91,100.39,336,79,73.87,73,5456,18409,235,0.19,-0.99,-0.07,-8,0,4,-78.72,-9.55,-19.33,-13.22,68.16,-21.7,-13.07,Right Fall while Standing
26:07.5,1002,972,1458,1002,391,1.62,618.67,1.91,100.39,336,79,73.87,73,5456,24650,314,0.17,-1,-0.06,-5.76,-2.49,2.56,-80.63,-7.87,-19.98,-13.78,68.58,-22.4,-13.54,Right Fall while Standing
26:07.6,1000,972,1458,1002,389,1.63,613.56,1.9,100.39,336,80,73.87,73,5456,31050,394,0.18,-1.01,-0.09,-4.23,-6.36,0.66,-79.54,-8.35,-20.44,-14.82,68.76,-22.8,-14.56,Right Fall while Standing
26:07.8,1001,973,1459.5,1002,388,1.64,611.02,1.9,100.39,336,83,73.87,73,5456,37939,477,0.15,-1.01,-0.09,-6.3,-4.97,7.89,-80.82,-6.65,-21.16,-15.7,69.86,-23.55,-15.34,Right Fall while Standing
26:07.9,1000,974,1461,1002,391,1.62,618.67,1.91,100.39,336,84,73.87,73,5456,44995,561,0.16,-1.01,-0.11,-4.56,1.47,9.17,-79.76,-7.43,-21.66,-15.77,71.09,-23.98,-15.43,Right Fall while Standing
26:08.0,1000,975,1462.5,1002,391,1.62,618.67,1.91,100.39,336,79,73.87,73,5456,51236,640,0,-1.03,0.02,-2.65,4.39,4.34,-89.68,1.68,-21.92,-15.47,71.73,-24.63,-14.78,Right Fall while Standing
26:08.1,1001,975,1462.5,1002,389,1.63,613.56,1.9,100.39,336,79,73.87,73,5456,57477,719,0.14,-1.02,-0.1,-5.78,-0.79,2.69,-81.07,-6.06,-22.57,-15.82,72.17,-24.91,-15.43,Right Fall while Standing
26:08.3,1000,976,1464,1002,390,1.62,616.11,1.91,143.93,389,79,79.82,79,6370,0,0,0.11,-0.98,-0.13,-7.5,1.99,-6.89,-80.43,-5,-23.44,-15.82,71.41,-25.72,-15.38,Right Fall while Standing
26:08.4,1000,976,1464,1002,391,1.62,618.67,1.91,143.93,389,80,79.82,79,6370,6400,80,0.15,-1.02,-0.12,-8.95,-5.4,-27.62,-79.97,-6.81,-24.49,-16.74,68.05,-26.7,-16.35,Right Fall while Standing
26:08.5,1000,977,1465.5,1002,391,1.62,618.67,1.91,143.93,389,80,79.82,79,6370,12800,160,0.21,-1.03,-0.12,-3.61,4.45,-29.68,-77.41,-9.73,-24.87,-16.44,64.44,-26.97,-16.17,Right Fall while Standing
26:08.6,1000,978,1467,1002,389,1.63,613.56,1.9,143.93,389,81,79.82,79,6370,19361,241,0.28,-0.99,-0.11,6.42,4.13,-36.49,-73.48,-14.23,-23.99,-16.17,59.94,-25.97,-16.09,Right Fall while Standing
26:08.8,1001,978,1467,1002,388,1.64,611.02,1.9,143.93,389,83,79.82,79,6370,26250,324,0.33,-0.99,-0.09,11.77,6.68,-29.78,-71.5,-16.77,-22.45,-15.58,56.32,-24.41,-15.63,Right Fall while Standing
26:08.9,1000,979,1468.5,1002,391,1.62,618.67,1.91,143.93,389,84,79.82,79,6370,33306,408,0.44,-0.92,-0.07,7.63,5.9,-34.47,-65,-23.64,-21.41,-15.09,52.08,-23.16,-15.43,Right Fall while Standing
26:09.0,1001,979,1468.5,1002,389,1.63,613.56,1.9,143.93,389,83,79.82,79,6370,40195,491,0.46,-0.92,-0.04,11.88,6.88,-34.55,-63.66,-25.25,-19.85,-14.48,47.82,-21.6,-14.91,Right Fall while Standing
26:09.1,1001,980,1470,1002,389,1.63,613.56,1.9,143.93,389,85,79.82,79,6370,47420,576,0.55,-0.88,-0.02,6.69,2.63,-40.49,-58.64,-30.33,-18.94,-14.4,42.86,-20.53,-15.03,Right Fall while Standing
26:09.3,1000,980,1470,1002,389,1.63,613.56,1.9,143.93,389,88,79.82,79,6370,55164,664,0.64,-0.8,0.02,7.47,14.73,-38.95,-52.01,-36.96,-17.93,-12.79,38.05,-19.29,-13.76,Right Fall while Standing
26:09.4,1000,980,1470,1002,391,1.62,618.67,1.91,143.93,389,89,79.82,79,6370,63085,753,0.67,-0.75,0.07,5.85,6.52,-47.4,-48.38,-40.32,-17.13,-12.23,32.23,-18.38,-13.35,Right Fall while Standing
26:09.5,1000,981,1471.5,1002,387,1.64,608.49,1.89,143.67,389,88,84.15,84,7081,0,0,0.74,-0.7,0.09,5.96,7.35,-47.04,-43.82,-44.71,-16.31,-11.56,26.44,-17.41,-12.89,Right Fall while Standing
26:09.6,1001,981,1471.5,1002,388,1.64,611.02,1.9,143.67,389,87,84.15,84,7081,7569,87,0.84,-0.59,0.12,-0.57,15.1,-38.61,-35.46,-52.77,-16.31,-9.92,21.72,-17.08,-11.64,Right Fall while Standing
26:09.8,1001,982,1473,1002,388,1.64,611.02,1.9,143.67,389,87,84.15,84,7081,15138,174,0.85,-0.52,0.11,-1.56,14.93,-33.4,-31.92,-56.24,-16.44,-8.32,17.67,-17.06,-10.24,Right Fall while Standing
26:09.9,1000,982,1473,1002,388,1.64,611.02,1.9,143.67,389,88,84.15,84,7081,22882,262,0.88,-0.47,0.14,-5.11,8.62,-32.87,-28.14,-59.53,-17.01,-7.49,13.63,-17.46,-9.57,Right Fall while Standing
26:10.0,1000,982,1473,1002,386,1.65,605.97,1.89,143.67,389,88,84.15,84,7081,30626,350,0.9,-0.41,0.14,-5.31,-1.26,-33.6,-25,-62.56,-17.61,-7.89,9.53,-17.9,-10.08,Right Fall while Standing
26:10.1,1000,983,1474.5,1002,386,1.65,605.97,1.89,143.67,389,89,84.15,84,7081,38547,439,0.91,-0.38,0.14,-8.05,-4.14,-26.21,-23.18,-64.25,-18.54,-8.66,6.35,-18.73,-10.88,Right Fall while Standing
26:10.3,1000,983,1474.5,1002,387,1.64,608.49,1.89,143.67,389,88,84.15,84,7081,46291,527,0.96,-0.35,0.11,-1.21,5.09,-19.06,-20.71,-67.29,-18.62,-8.27,4.05,-18.71,-10.63,Right Fall while Standing
26:10.4,1000,983,1474.5,1002,384,1.66,600.94,1.88,143.67,389,90,84.15,84,7081,54391,617,0.94,-0.32,0.14,-4.21,-0.41,-22.07,-19.07,-68.12,-19.08,-8.57,1.39,-19.08,-10.95,Right Fall while Standing
26:10.5,1000,983,1474.5,1002,383,1.67,598.44,1.87,143.67,389,90,84.15,84,7081,62491,707,0.96,-0.28,0.14,-3.68,-0.47,-13.23,-16.48,-70.52,-19.47,-8.88,-0.16,-19.35,-11.35,Right Fall while Standing
26:10.6,1001,984,1476,1002,383,1.67,598.44,1.87,143.67,389,89,84.15,84,7081,70412,796,0.98,-0.25,0.13,-2.67,-2.33,-8.47,-14.9,-72.24,-19.74,-9.43,-1.13,-19.54,-11.94,Right Fall while Standing
26:10.8,1000,984,1476,1002,384,1.66,600.94,1.88,133.03,385,91,88.71,88,7868,0,0,0.99,-0.24,0.13,-2.13,-2.67,-3.81,-14.18,-72.91,-19.93,-10.01,-1.51,-19.7,-12.52,Right Fall while Standing
26:10.9,1000,984,1476,1002,381,1.69,593.46,1.86,133.03,385,90,88.71,88,7868,8100,90,0.99,-0.25,0.09,-0.57,-3.4,4.28,-14.78,-73.22,-19.93,-10.68,-0.87,-19.73,-13.18,Right Fall while Standing
26:11.0,1001,985,1477.5,1002,379,1.7,588.51,1.85,133.03,385,91,88.71,88,7868,16381,181,0.97,-0.24,0.11,1.19,-2.39,1.77,-14.25,-73.25,-19.71,-11.23,-0.55,-19.49,-13.71,Right Fall while Standing
26:11.1,1000,985,1477.5,1002,381,1.69,593.46,1.86,133.03,385,90,88.71,88,7868,24481,271,0.99,-0.23,0.11,4.52,-1.44,1.79,-13.7,-73.92,-19.08,-11.66,-0.23,-18.86,-14.15,Right Fall while Standing
26:22.2,1000,1000,1500,1000,380,1.69,590.98,1.86,0,0,96,0,0,0,18625,193,0.94,-0.32,0.11,0.34,-2.15,1.34,-19.1,-68.78,0.04,-1.11,0.24,-0.73,-3.81,Forward Fall while Standing
26:22.3,1001,1000,1500,1001,379,1.7,588.51,1.85,0,0,96,0,0,0,27841,289,0.97,-0.3,0.09,-1.59,-0.52,-3.87,-17.64,-70.54,-0.09,-1.42,-0.14,-0.79,-4.18,Forward Fall while Standing
26:22.5,1000,1000,1500,1001,379,1.7,588.51,1.85,0,0,97,0,0,0,37250,386,0.98,-0.32,0.09,-7.24,-2.56,-2.76,-18.47,-69.83,-0.92,-1.98,-0.38,-1.62,-4.7,Forward Fall while Standing
26:22.6,1000,1000,1500,1001,379,1.7,588.51,1.85,0,0,97,0,0,0,46659,483,0.96,-0.32,0.1,-1.57,6.3,0.33,-18.77,-69.36,-1.04,-1.45,-0.25,-1.75,-4.17,Forward Fall while Standing
26:22.7,1000,1000,1500,1001,381,1.69,593.46,1.86,0,0,98,0,0,0,56263,581,0.96,-0.31,0.11,-2.27,2.36,-0.16,-18.42,-69.56,-1.25,-1.41,-0.17,-1.94,-4.13,Forward Fall while Standing
26:22.8,1000,1000,1500,1001,382,1.68,595.94,1.87,0,0,98,0,0,0,65867,679,0.98,-0.32,0.11,-2.79,2.19,-1.02,-18.56,-69.44,-1.53,-1.38,-0.2,-2.21,-4.11,Forward Fall while Standing
26:22.9,999,1000,1500,1001,380,1.69,590.98,1.86,0,0,97,0,0,0,75276,776,0.96,-0.32,0.09,-1.33,5.4,1.91,-19.1,-69.09,-1.62,-0.97,0.13,-2.32,-3.7,Forward Fall while Standing
26:23.1,1000,1000,1500,1001,380,1.69,590.98,1.86,0,0,98,0,0,0,84880,874,0.95,-0.31,0.09,-0.88,-0.03,-1.24,-18.42,-69.75,-1.66,-1.22,0.08,-2.33,-3.96,Forward Fall while Standing
26:23.2,1001,1000,1500,1001,378,1.71,586.05,1.85,115.12,379,100,97.41,97,9487,0,0,0.96,-0.32,0.12,-0.92,-0.31,0.08,-18.83,-68.84,-1.7,-1.51,0.19,-2.39,-4.2,Forward Fall while Standing
26:23.3,1000,1000,1500,1001,380,1.69,590.98,1.86,115.12,379,101,97.41,97,9487,10201,101,0.95,-0.33,0.1,-0.3,0.88,-2.88,-19.52,-68.63,-1.67,-1.65,-0.08,-2.39,-4.33,Forward Fall while Standing
26:23.4,1001,1000,1500,1001,381,1.69,593.46,1.86,115.12,379,100,97.41,97,9487,20201,201,0.97,-0.33,0.09,-0.24,0.82,-3.48,-19.11,-69.1,-1.63,-1.8,-0.41,-2.33,-4.49,Forward Fall while Standing
26:23.6,1001,1000,1500,1001,379,1.7,588.51,1.85,115.12,379,101,97.41,97,9487,30402,302,0.97,-0.31,0.12,-2.91,1.1,-3.53,-18.4,-69.38,-1.92,-1.91,-0.75,-2.58,-4.61,Forward Fall while Standing
26:23.7,1000,1000,1500,1001,379,1.7,588.51,1.85,115.12,379,102,97.41,97,9487,40806,404,0.93,-0.31,0.1,-4.89,-1.27,-5.44,-19.17,-68.88,-2.47,-2.32,-1.34,-3.13,-4.98,Forward Fall while Standing
26:23.8,1000,1000,1500,1001,379,1.7,588.51,1.85,115.12,379,102,97.41,97,9487,51210,506,0.88,-0.29,0.08,-3.7,-9.79,-11.6,-18.54,-69.8,-2.86,-3.79,-2.69,-3.49,-6.43,Forward Fall while Standing
26:23.9,1001,1000,1500,1001,381,1.69,593.46,1.86,115.12,379,103,97.41,97,9487,61819,609,0.84,-0.25,0.05,-4.72,-26.82,-16.76,-17.35,-71.34,-3.38,-7.42,-4.7,-3.94,-9.98,Forward Fall while Standing
26:24.1,1000,1000,1500,1001,378,1.71,586.05,1.85,115.12,379,101,97.41,97,9487,72020,710,1.04,-0.25,0.05,-3.58,-21.33,-24.76,-13.91,-74.82,-3.76,-10.34,-7.7,-4.17,-12.92,Forward Fall while Standing
26:24.2,1000,1000,1500,1001,378,1.71,586.05,1.85,115.12,379,108,97.41,97,9487,83684,818,1.03,-0.19,-0.02,-3.6,1.21,-12.17,-11.03,-77.91,-4.14,-10.44,-9.13,-4.42,-13.14,Forward Fall while Standing
26:24.3,1000,1000,1500,1001,377,1.71,583.59,1.84,115.12,379,107,97.41,97,9487,95133,925,1.04,-0.15,-0.03,-7.58,-1.6,-4.64,-8.69,-80.11,-5.03,-10.89,-9.62,-5.17,-13.66,Forward Fall while Standing
26:24.4,1000,1000,1500,1001,375,1.73,578.7,1.83,111.1,378,107,103.24,103,10657,0,0,0.99,-0.12,-0.06,-10.99,-19.96,-8.11,-7.5,-80.62,-6.33,-13.63,-10.53,-6.38,-16.31,Forward Fall while Standing
26:24.6,1001,1000,1500,1001,372,1.75,571.43,1.82,111.1,378,106,103.24,103,10657,11236,106,0.99,-0.17,-0.11,-4.81,-24.19,-7.24,-10.19,-77.08,-6.87,-16.93,-11.34,-7,-19.34,Forward Fall while Standing
26:24.7,1001,1000,1500,1001,372,1.75,571.43,1.82,111.1,378,107,103.24,103,10657,22685,213,1.06,-0.13,-0.13,-2.75,-11.76,-8.05,-7.61,-78.57,-7.14,-18.68,-12.26,-7.16,-21.08,Forward Fall while Standing
26:24.8,1000,1000,1500,1001,371,1.76,569.02,1.81,111.1,378,109,103.24,103,10657,34566,322,1.05,-0.12,-0.13,-1.44,0.97,-6.55,-6.88,-79.06,-7.25,-18.81,-12.98,-7.24,-21.22,Forward Fall while Standing
26:25.0,1000,1000,1500,1001,368,1.78,561.83,1.8,111.1,378,109,103.24,103,10657,46447,431,1.01,-0.13,-0.17,-6.66,-18.28,-8.95,-8,-76.44,-8.02,-21.37,-14.01,-8.02,-23.57,Forward Fall while Standing
26:25.1,1000,1000,1500,1001,371,1.76,569.02,1.81,111.1,378,114,103.24,103,10657,59443,545,1,-0.12,-0.2,-0.12,-5.23,-3.06,-7.35,-75.26,-7.97,-22.29,-14.3,-7.94,-24.4,Forward Fall while Standing
26:25.2,1000,1000,1500,1001,372,1.75,571.43,1.82,111.1,378,113,103.24,103,10657,72212,658,1,-0.09,-0.22,-2.15,-6.12,1.36,-5.62,-74.97,-8.17,-23.31,-14.03,-8.07,-25.38,Forward Fall while Standing
26:25.3,984,999,1498.5,1001,368,1.78,561.83,1.8,111.1,378,111,103.24,103,10657,84533,769,1.88,-0.17,-1.07,-9.81,-21.27,-5.25,-4.96,-58.41,-9.32,-26.22,-14.59,-9.15,-27.5,Forward Fall while Standing
26:25.4,1001,999,1498.5,1001,369,1.77,564.22,1.8,111.1,378,109,103.24,103,10657,96414,878,0.99,-0.07,-0.32,-5.92,-9.4,-3.69,-4.26,-70.42,-10,-27.67,-14.96,-9.77,-29.38,Forward Fall while Standing
26:25.6,1002,999,1498.5,1002,374,1.74,576.27,1.83,111.1,378,111,103.24,103,10657,108735,989,1.07,-0.1,-0.33,-5.54,-15.28,-2.21,-5.72,-70.34,-10.63,-29.84,-15.13,-10.44,-31.46,Forward Fall while Standing
26:25.7,1001,999,1498.5,1002,372,1.75,571.43,1.82,80.61,370,109,109.82,109,12060,0,0,0.99,-0.07,-0.38,-1.77,-27.38,-6.8,-4.1,-67.11,-10.78,-33.52,-15.89,-10.52,-34.86,Forward Fall while Standing
26:25.8,1003,999,1498.5,1003,375,1.73,578.7,1.83,80.61,370,115,109.82,109,12060,13225,115,0.96,-0.07,-0.45,0.05,-30.53,-5.24,-4.51,-62.8,-10.71,-37.65,-16.45,-10.46,-38.65,Forward Fall while Standing
26:25.9,1002,999,1498.5,1003,376,1.72,581.14,1.84,80.61,370,116,109.82,109,12060,26681,231,0.92,-0.08,-0.45,-0.81,-33.97,1.53,-4.88,-62.21,-10.74,-42.18,-16.16,-10.5,-42.98,Forward Fall while Standing
26:26.1,1001,1000,1500,1003,371,1.76,569.02,1.81,80.61,370,110,109.82,109,12060,38781,341,0.88,-0.09,-0.53,2.07,-24.5,2.72,-5.43,-57.17,-10.41,-45.52,-15.72,-10.21,-45.98,Forward Fall while Standing
26:26.2,1001,1000,1500,1003,371,1.76,569.02,1.81,80.61,370,110,109.82,109,12060,50881,451,0.84,-0.1,-0.54,4.31,-13.4,5.45,-6.52,-55.19,-9.79,-47.46,-14.93,-9.66,-47.77,Forward Fall while Standing
26:26.3,1003,1000,1500,1003,374,1.74,576.27,1.83,80.61,370,112,109.82,109,12060,63425,563,0.89,-0.1,-0.58,5.47,-10.25,-1.86,-6.11,-55.03,-9.03,-49,-15.07,-8.92,-49.24,Forward Fall while Standing
26:26.4,1002,1000,1500,1003,377,1.71,583.59,1.84,80.61,370,112,109.82,109,12060,75969,675,0.84,-0.12,-0.61,4.04,-12.27,-6.56,-7.19,-51.74,-8.45,-50.8,-15.79,-8.4,-50.84,Forward Fall while Standing
26:26.6,1002,1000,1500,1003,374,1.74,576.27,1.83,80.61,370,112,109.82,109,12060,88513,787,0.86,-0.12,-0.67,4.6,-3.05,-0.93,-6.78,-50.28,-7.8,-51.44,-15.81,-7.76,-51.39,Forward Fall while Standing
26:26.7,1003,1000,1500,1003,369,1.77,564.22,1.8,80.61,370,112,109.82,109,12060,101057,899,0.84,-0.1,-0.63,6.06,-2.75,-6.66,-5.75,-51.26,-6.97,-52.04,-16.55,-6.92,-52,Forward Fall while Standing
26:26.8,1001,1000,1500,1003,368,1.78,561.83,1.8,80.61,370,112,109.82,109,12060,113601,1011,0.81,-0.15,-0.67,5.51,-0.02,-2.14,-8.74,-48.24,-6.2,-52.29,-16.72,-6.3,-52.13,Forward Fall while Standing
26:27.0,1003,1000,1500,1003,365,1.8,554.71,1.78,85.59,372,111,112.21,112,12591,0,0,0.84,-0.12,-0.67,6.12,-1.49,-2.71,-6.73,-49.25,-5.37,-52.72,-16.96,-5.42,-52.59,Forward Fall while Standing
26:27.1,1003,1000,1500,1003,367,1.79,559.45,1.79,85.59,372,112,112.21,112,12591,12544,112,0.82,-0.13,-0.67,-0.83,0.62,-2.93,-7.75,-48.42,-5.4,-52.9,-17.23,-5.5,-52.72,Forward Fall while Standing
26:27.2,1003,1000,1500,1003,372,1.75,571.43,1.82,85.59,372,111,112.21,112,12591,24865,223,0.81,-0.13,-0.7,-1.38,0.84,-2.78,-7.44,-47.25,-5.51,-53.04,-17.48,-5.58,-52.81,Forward Fall while Standing
26:27.3,1003,1000,1500,1003,375,1.73,578.7,1.83,85.59,372,113,112.21,112,12591,37634,336,0.82,-0.14,-0.65,1.55,-0.7,2.08,-8.01,-49.33,-5.24,-53.38,-17.12,-5.35,-53.22,Forward Fall while Standing
26:27.5,1002,1000,1500,1003,373,1.74,573.85,1.82,85.59,372,112,112.21,112,12591,50178,448,0.83,-0.13,-0.65,1.23,2.8,-0.6,-7.49,-49.75,-5.02,-53.28,-17.1,-5.12,-53.14,Forward Fall while Standing
26:27.6,1002,1000,1500,1003,374,1.74,576.27,1.83,85.59,372,112,112.21,112,12591,62722,560,0.82,-0.14,-0.68,-2.38,3.44,-0.18,-7.91,-48.08,-5.25,-53.1,-17.02,-5.35,-52.9,Forward Fall while Standing
26:27.7,1001,1000,1500,1003,374,1.74,576.27,1.83,85.59,372,113,112.21,112,12591,75491,673,0.83,-0.14,-0.67,-2.42,-5.4,-0.35,-8.14,-48.98,-5.48,-54.04,-16.96,-5.59,-53.84,Forward Fall while Standing
26:27.8,1003,1000,1500,1003,372,1.75,571.43,1.82,85.59,372,113,112.21,112,12591,88260,786,0.84,-0.15,-0.7,-0.36,0.66,-0.69,-8.39,-48.1,-5.45,-54.21,-16.95,-5.57,-53.96,Forward Fall while Standing
26:28.0,1002,1000,1500,1003,371,1.76,569.02,1.81,85.59,372,114,112.21,112,12591,101256,900,0.81,-0.15,-0.69,-1.05,1.57,-1.21,-8.82,-47.58,-5.52,-54.26,-17.01,-5.65,-53.99,Forward Fall while Standing
26:28.1,1003,1000,1500,1003,372,1.75,571.43,1.82,85.59,372,114,112.21,112,12591,114252,1014,0.8,-0.16,-0.67,-0.92,1.37,-0.99,-9.07,-47.83,-5.56,-54.34,-17.03,-5.7,-54.08,Forward Fall while Standing
26:28.2,1001,1000,1500,1003,369,1.77,564.22,1.8,85.1,371,114,112.8,112,12723,0,0,0.82,-0.15,-0.67,-1.24,1.15,0.78,-8.36,-48.53,-5.65,-54.45,-16.84,-5.75,-54.21,Forward Fall while Standing
26:28.3,1001,1000,1500,1003,368,1.78,561.83,1.8,85.1,371,114,112.8,112,12723,12996,114,0.83,-0.16,-0.66,-0.79,3.67,0.64,-9.16,-49.02,-5.67,-54.24,-16.66,-5.81,-54.03,Forward Fall while Standing
26:28.5,1001,1000,1500,1003,370,1.76,566.62,1.81,85.1,371,114,112.8,112,12723,25992,228,0.82,-0.16,-0.66,-2.44,4.71,0.19,-9.26,-48.56,-5.91,-53.89,-16.53,-6.05,-53.68,Forward Fall while Standing
26:28.6,1002,1000,1500,1003,372,1.75,571.43,1.82,85.1,371,115,112.8,112,12723,39217,343,0.85,-0.17,-0.67,-2.53,7.24,0.73,-9.28,-49.42,-6.16,-53.23,-16.34,-6.29,-53.08,Forward Fall while Standing
26:28.7,1003,1000,1500,1003,368,1.78,561.83,1.8,85.1,371,115,112.8,112,12723,52442,458,0.87,-0.16,-0.65,-2.66,13.95,2.27,-9.21,-50.62,-6.42,-51.74,-15.96,-6.53,-51.7,Forward Fall while Standing
26:28.9,1001,1000,1500,1003,370,1.76,566.62,1.81,85.1,371,115,112.8,112,12723,65667,573,0.93,-0.18,-0.61,-3.38,20.6,0.05,-9.91,-53.78,-6.78,-49.4,-15.85,-6.9,-49.57,Forward Fall while Standing
26:29.0,1002,1000,1500,1003,373,1.74,573.85,1.82,85.1,371,116,112.8,112,12723,79123,689,0.91,-0.18,-0.59,-0.28,22.07,0.82,-10.21,-54.05,-6.74,-46.87,-15.65,-6.88,-47.16,Forward Fall while Standing
26:29.1,1001,1000,1500,1003,371,1.76,569.02,1.81,85.1,371,114,112.8,112,12723,92119,803,0.94,-0.18,-0.55,6.96,34.33,3.02,-9.87,-56.75,-5.8,-42.8,-15.17,-5.96,-43.35,Forward Fall while Standing
26:29.2,1003,1000,1500,1003,373,1.74,573.85,1.82,85.1,371,114,112.8,112,12723,105115,917,0.98,-0.21,-0.44,5.46,34.62,4.91,-11.53,-62.17,-5.04,-38.69,-14.45,-5.3,-39.63,Forward Fall while Standing
26:29.4,1001,1000,1500,1003,376,1.72,581.14,1.84,85.1,371,114,112.8,112,12723,118111,1031,0.94,-0.23,-0.39,8.26,34.89,6.79,-13.16,-62.62,-3.93,-34.54,-13.5,-4.3,-35.66,Forward Fall while Standing
26:29.5,1001,1000,1500,1003,376,1.72,581.14,1.84,84.24,371,116,114.7,114,13155,0,0,0.97,-0.23,-0.29,10.11,33.15,1.15,-13.43,-67.47,-2.59,-30.65,-13.26,-3.03,-32.12,Forward Fall while Standing
26:29.6,1003,1000,1500,1003,377,1.71,583.59,1.84,84.24,371,115,114.7,114,13155,13225,115,0.99,-0.24,-0.25,3.07,34.79,3.4,-13.64,-69.09,-2.14,-26.52,-12.73,-2.6,-28.22,Forward Fall while Standing
26:29.7,1002,1000,1500,1003,380,1.69,590.98,1.86,84.24,371,114,114.7,114,13155,26221,229,0.95,-0.24,-0.17,2.02,26.94,7.7,-14.67,-70.99,-1.81,-23.37,-11.66,-2.33,-25.28,Forward Fall while Standing
26:29.9,1003,1001,1501.5,1003,383,1.67,598.44,1.87,84.24,371,115,114.7,114,13155,39446,344,0.91,-0.28,-0.09,-6.93,8.35,4.95,-17.37,-70.8,-2.61,-22.58,-10.94,-3.2,-24.51,Forward Fall while Standing
26:30.0,1002,1001,1501.5,1003,380,1.69,590.98,1.86,84.24,371,115,114.7,114,13155,52671,459,0.93,-0.28,-0.12,-5.39,10.04,3.45,-17.4,-70.13,-3.21,-21.58,-10.41,-3.78,-23.52,Forward Fall while Standing
26:30.1,1001,1001,1501.5,1003,380,1.69,590.98,1.86,84.24,371,114,114.7,114,13155,65667,573,0.94,-0.28,-0.11,-7.5,8.76,-1.44,-16.83,-70.92,-4.09,-20.72,-10.49,-4.6,-22.73,Forward Fall while Standing
26:30.2,1003,1001,1501.5,1003,384,1.66,600.94,1.88,84.24,371,114,114.7,114,13155,78663,687,0.95,-0.28,-0.07,-7.92,8.8,-1.37,-17.08,-71.39,-5.02,-19.86,-10.56,-5.5,-21.92,Forward Fall while Standing
26:30.4,1003,1001,1501.5,1003,382,1.68,595.94,1.87,84.24,371,115,114.7,114,13155,91888,802,0.97,-0.3,-0.04,-6.73,9.34,-0.56,-17.57,-71.29,-5.8,-18.94,-10.54,-6.27,-21.03,Forward Fall while Standing
26:30.5,1002,1001,1501.5,1003,382,1.68,595.94,1.87,84.24,371,115,114.7,114,13155,105113,917,0.96,-0.29,-0.05,1.19,8.95,1.62,-17.32,-71.42,-5.58,-18.06,-10.23,-6.05,-20.19,Forward Fall while Standing
26:30.6,1002,1001,1501.5,1003,382,1.68,595.94,1.87,84.24,371,116,114.7,114,13155,118569,1033,0.99,-0.29,-0.06,0.3,11.03,1.7,-16.82,-71.84,-5.47,-16.92,-9.92,-5.92,-19.12,Forward Fall while Standing
26:30.7,1003,1001,1501.5,1003,381,1.69,593.46,1.86,119.03,381,116,114.9,114,13201,0,0,0.97,-0.29,-0.06,-4.46,7.3,0.27,-17.07,-71.54,-5.96,-16.26,-9.79,-6.4,-18.47,Forward Fall while Standing
26:30.9,1003,1001,1501.5,1003,380,1.69,590.98,1.86,119.03,381,115,114.9,114,13201,13225,115,0.97,-0.32,0.01,-5.18,10.79,5.87,-19.11,-69.88,-6.54,-15.15,-8.95,-7.04,-17.34,Forward Fall while Standing
26:31.0,1001,1001,1501.5,1003,379,1.7,588.51,1.85,119.03,381,116,114.9,114,13201,26681,231,0.97,-0.33,0.01,-3.47,7.79,0.91,-19.49,-69.5,-6.9,-14.43,-8.73,-7.41,-16.63,Forward Fall while Standing
26:31.1,1003,1001,1501.5,1003,382,1.68,595.94,1.87,119.03,381,117,114.9,114,13201,40370,348,0.95,-0.35,0.02,-0.88,7.18,0.61,-20.51,-68.43,-6.94,-13.78,-8.56,-7.48,-15.96,Forward Fall while Standing
26:31.2,1003,1001,1501.5,1003,381,1.69,593.46,1.86,119.03,381,117,114.9,114,13201,54059,465,0.94,-0.34,0.05,-5.59,4.24,0.34,-20.6,-68.14,-7.58,-13.49,-8.41,-8.1,-15.68,Forward Fall while Standing
26:31.4,1003,1001,1501.5,1003,379,1.7,588.51,1.85,119.03,381,116,114.9,114,13201,67515,581,0.97,-0.34,0.06,-6.65,2.24,2.93,-19.98,-68.68,-8.34,-13.46,-7.95,-8.8,-15.67,Forward Fall while Standing
26:31.5,1003,1001,1501.5,1003,381,1.69,593.46,1.86,119.03,381,117,114.9,114,13201,81204,698,0.97,-0.36,0.07,-4.36,5.11,0.86,-20.87,-67.68,-8.82,-13.07,-7.74,-9.3,-15.26,Forward Fall while Standing
26:31.6,1001,1001,1501.5,1003,382,1.68,595.94,1.87,119.03,381,117,114.9,114,13201,94893,815,0.96,-0.34,0.05,2.11,9.3,1.55,-20.14,-68.6,-8.48,-12.15,-7.45,-8.94,-14.41,Forward Fall while Standing
26:31.7,1002,1001,1501.5,1003,379,1.7,588.51,1.85,119.03,381,117,114.9,114,13201,108582,932,0.94,-0.35,0.07,-0.3,1.22,-1.6,-20.95,-67.64,-8.45,-12.25,-7.55,-8.95,-14.47,Forward Fall while Standing
26:31.9,1001,1001,1501.5,1003,380,1.69,590.98,1.86,119.03,381,117,114.9,114,13201,122271,1049,0.95,-0.36,0.07,-1.53,0.77,-2.16,-21.11,-67.46,-8.57,-12.41,-7.72,-9.07,-14.61,Forward Fall while Standing
26:32.0,1003,1001,1501.5,1003,383,1.67,598.44,1.87,117.41,380,118,116.7,116,13618,0,0,0.95,-0.37,0.09,-1.15,1.03,-1.4,-21.73,-66.58,-8.64,-12.53,-7.8,-9.16,-14.69,Forward Fall while Standing
26:32.1,1001,1001,1501.5,1003,380,1.69,590.98,1.86,117.41,380,117,116.7,116,13618,13689,117,0.94,-0.36,0.08,-3.84,0.27,-2.89,-21.42,-67.1,-9.05,-12.74,-8.06,-9.54,-14.92,Forward Fall while Standing
26:41.9,1002,1002,1503,1002,387,1.64,608.49,1.89,0,0,119,0,0,0,28802,240,0.98,-0.24,0.13,0.23,0.93,-0.23,-14.5,-72.72,-0.01,-0.55,0.2,-0.59,-3.44,Sitting
26:42.0,1001,1001,1501.5,1002,385,1.66,603.45,1.88,0,0,119,0,0,0,42963,359,0.99,-0.25,0.11,-1.5,-3.49,-1.9,-14.44,-73.21,-0.13,-1.23,0.06,-0.7,-4.11,Sitting
26:42.1,1001,1001,1501.5,1002,384,1.66,600.94,1.88,0,0,119,0,0,0,57124,478,0.99,-0.25,0.11,0.23,2.47,0.92,-14.85,-72.85,-0.03,-1.17,0.27,-0.62,-4.03,Sitting
26:42.3,1001,1001,1501.5,1002,385,1.66,603.45,1.88,0,0,119,0,0,0,71285,597,0.97,-0.25,0.11,-2.47,0.76,-0.15,-14.86,-72.83,-0.27,-1.32,0.35,-0.85,-4.18,Sitting
26:42.4,1002,1001,1501.5,1002,385,1.66,603.45,1.88,0,0,119,0,0,0,85446,716,0.98,-0.25,0.1,-0.32,2.93,0.96,-14.84,-73.12,-0.24,-1.21,0.56,-0.82,-4.08,Sitting
26:42.5,1002,1001,1501.5,1002,387,1.64,608.49,1.89,0,0,119,0,0,0,99607,835,0.98,-0.25,0.11,-0.92,1.7,-1.92,-14.69,-73.05,-0.28,-1.24,0.43,-0.86,-4.11,Sitting
26:42.6,1001,1001,1501.5,1002,387,1.64,608.49,1.89,0,0,120,0,0,0,114007,955,0.99,-0.25,0.1,-2.66,-3.95,-3.07,-14.81,-73.05,-0.54,-1.97,0.14,-1.11,-4.82,Sitting
26:42.7,1002,1001,1501.5,1002,386,1.65,605.97,1.89,0,0,119,0,0,0,128168,1074,0.97,-0.25,0.1,-1.71,1.54,-0.63,-14.99,-72.82,-0.68,-2.03,0.16,-1.25,-4.86,Sitting
26:42.9,1002,1001,1501.5,1002,384,1.66,600.94,1.88,132.73,385,119,119.3,119,14231,0,0,0.97,-0.25,0.1,-1.38,4.65,1.63,-15.05,-72.73,-0.78,-1.7,0.47,-1.35,-4.54,Sitting
26:43.0,1001,1001,1501.5,1002,384,1.66,600.94,1.88,132.73,385,120,119.3,119,14231,14400,120,0.98,-0.24,0.11,-3.65,-0.88,-1.72,-14.51,-73.2,-1.17,-2.06,0.35,-1.7,-4.9,Sitting
26:43.1,1003,1001,1501.5,1003,387,1.64,608.49,1.89,132.73,385,120,119.3,119,14231,28800,240,0.99,-0.25,0.1,-2.79,0.47,-2.11,-14.97,-72.87,-1.45,-2.25,0.18,-1.99,-5.08,Sitting
26:43.2,1001,1001,1501.5,1003,386,1.65,605.97,1.89,132.73,385,120,119.3,119,14231,43200,360,0.98,-0.24,0.1,-2.69,2.37,-1.35,-14.46,-73.28,-1.72,-2.21,0.11,-2.23,-5.05,Sitting
26:43.4,1002,1001,1501.5,1003,384,1.66,600.94,1.88,132.73,385,119,119.3,119,14231,57361,479,0.98,-0.25,0.11,-3.1,0.11,-2.28,-14.64,-73.09,-2.03,-2.44,-0.07,-2.54,-5.27,Sitting
26:43.5,1001,1001,1501.5,1003,385,1.66,603.45,1.88,132.73,385,119,119.3,119,14231,71522,598,0.98,-0.26,0.11,-2.79,1.57,-1.23,-15.33,-72.36,-2.31,-2.5,-0.13,-2.84,-5.29,Sitting
26:43.6,1002,1001,1501.5,1003,388,1.64,611.02,1.9,132.73,385,119,119.3,119,14231,85683,717,0.99,-0.25,0.1,-1.39,2.21,-0.78,-14.79,-73.15,-2.42,-2.47,-0.13,-2.91,-5.3,Sitting
26:43.8,1002,1001,1501.5,1003,385,1.66,603.45,1.88,132.73,385,120,119.3,119,14231,100083,837,0.97,-0.25,0.11,-1.71,0.77,-1.11,-14.9,-72.8,-2.56,-2.63,-0.17,-3.06,-5.43,Sitting
26:43.9,1001,1001,1501.5,1003,385,1.66,603.45,1.88,132.73,385,120,119.3,119,14231,114483,957,0.97,-0.25,0.11,-0.75,0.82,-0.47,-14.88,-72.65,-2.59,-2.77,-0.13,-3.08,-5.57,Sitting
26:44.0,1002,1001,1501.5,1003,386,1.65,605.97,1.89,132.73,385,120,119.3,119,14231,128883,1077,0.97,-0.26,0.12,-0.82,2.24,-0.44,-15.23,-72.15,-2.62,-2.74,-0.08,-3.12,-5.52,Sitting
26:44.1,1001,1001,1501.5,1003,387,1.64,608.49,1.89,133.02,385,120,119.7,119,14327,0,0,0.98,-0.25,0.12,-0.12,3.42,-2.33,-14.87,-72.5,-2.57,-2.57,-0.27,-3.06,-5.37,Sitting
26:44.2,1003,1001,1501.5,1003,385,1.66,603.45,1.88,133.02,385,120,119.7,119,14327,14400,120,0.96,-0.25,0.12,-2.71,-0.98,0.5,-14.84,-72.38,-2.84,-2.94,-0.11,-3.32,-5.72,Sitting
26:44.4,1002,1001,1501.5,1003,385,1.66,603.45,1.88,133.02,385,120,119.7,119,14327,28800,240,0.97,-0.26,0.13,1.21,3.03,4.81,-15.59,-71.55,-2.61,-2.81,0.59,-3.13,-5.56,Sitting
26:44.5,1001,1001,1501.5,1003,386,1.65,605.97,1.89,133.02,385,121,119.7,119,14327,43441,361,0.98,-0.26,0.12,-1.25,0.94,-1.31,-15.05,-72.36,-2.7,-2.95,0.52,-3.19,-5.72,Sitting
26:44.6,1003,1001,1501.5,1003,386,1.65,605.97,1.89,133.02,385,120,119.7,119,14327,57841,481,0.98,-0.26,0.12,-2.29,-0.52,-2.47,-15.06,-72.34,-2.92,-3.26,0.31,-3.4,-6.03,Sitting
26:44.7,1001,1001,1501.5,1003,385,1.66,603.45,1.88,133.02,385,120,119.7,119,14327,72241,601,0.97,-0.26,0.13,-1.4,3.63,-2.56,-15.31,-71.8,-3.02,-3.06,0.09,-3.51,-5.81,Sitting
26:44.9,1003,1001,1501.5,1003,386,1.65,605.97,1.89,133.02,385,120,119.7,119,14327,86641,721,0.97,-0.26,0.12,-3.27,0.41,-1.77,-15.22,-72.29,-3.36,-3.26,-0.03,-3.84,-6.02,Sitting
26:45.0,1001,1001,1501.5,1003,387,1.64,608.49,1.89,133.02,385,121,119.7,119,14327,101282,842,0.98,-0.26,0.12,-2.16,-1.02,-2.08,-15.4,-72.17,-3.56,-3.64,-0.19,-4.04,-6.38,Sitting
26:45.1,1002,1001,1501.5,1003,385,1.66,603.45,1.88,133.02,385,120,119.7,119,14327,115682,962,0.98,-0.25,0.13,-2.56,-1.27,-5.04,-14.69,-72.34,-3.82,-4.05,-0.73,-4.25,-6.78,Sitting
26:45.3,1003,1001,1501.5,1003,384,1.66,600.94,1.88,133.02,385,120,119.7,119,14327,130082,1082,0.99,-0.24,0.11,1,2.61,-0.2,-14.42,-73.27,-3.62,-3.97,-0.65,-4.05,-6.75,Sitting
26:45.4,1001,1001,1501.5,1003,386,1.65,605.97,1.89,132.43,385,120,120.2,120,14447,0,0,0.97,-0.24,0.13,0.55,3.66,-0.05,-14.38,-72.54,-3.48,-3.77,-0.56,-3.92,-6.52,Sitting
26:45.5,1001,1001,1501.5,1003,387,1.64,608.49,1.89,132.43,385,121,120.2,120,14447,14641,121,0.96,-0.25,0.11,-1.77,2.21,0.04,-15.15,-72.52,-3.63,-3.74,-0.46,-4.1,-6.49,Sitting
26:45.6,1002,1001,1501.5,1003,385,1.66,603.45,1.88,132.43,385,119,120.2,120,14447,28802,240,0.98,-0.26,0.11,-6.5,-2.69,-2.69,-15.33,-72.38,-4.38,-4.33,-0.7,-4.81,-7.05,Sitting
26:45.8,1003,1001,1501.5,1003,385,1.66,603.45,1.88,132.43,385,120,120.2,120,14447,43202,360,0.99,-0.25,0.13,0.86,4.33,3.18,-14.43,-72.72,-4.2,-4.03,-0.19,-4.61,-6.78,Sitting
26:45.9,1001,1001,1501.5,1003,387,1.64,608.49,1.89,132.43,385,119,120.2,120,14447,57363,479,0.97,-0.25,0.13,-1.44,2.53,-0.81,-15.11,-72.09,-4.31,-3.97,-0.2,-4.74,-6.69,Sitting
26:46.0,1001,1001,1501.5,1003,386,1.65,605.97,1.89,132.43,385,120,120.2,120,14447,71763,599,0.97,-0.25,0.13,-2.47,1.69,-0.59,-14.93,-72.33,-4.55,-4.01,-0.17,-4.96,-6.74,Sitting
26:46.1,1002,1001,1501.5,1003,385,1.66,603.45,1.88,132.43,385,121,120.2,120,14447,86404,720,0.96,-0.26,0.13,-1.39,3.21,1.35,-15.68,-71.47,-4.65,-3.85,0.1,-5.09,-6.56,Sitting
26:46.3,1001,1001,1501.5,1003,385,1.66,603.45,1.88,132.43,385,122,120.2,120,14447,101288,842,0.97,-0.26,0.13,-3.16,0.25,-2.66,-15.43,-71.85,-4.98,-4.07,-0.14,-5.39,-6.78,Sitting
26:46.4,1003,1001,1501.5,1003,387,1.64,608.49,1.89,132.43,385,121,120.2,120,14447,115929,963,0.97,-0.28,0.14,-2.03,0.89,-0.87,-16.36,-70.68,-5.16,-4.21,-0.15,-5.61,-6.87,Sitting
26:46.5,1002,1001,1501.5,1003,385,1.66,603.45,1.88,132.43,385,121,120.2,120,14447,130570,1084,0.97,-0.27,0.09,-0.92,3.23,-0.6,-16.29,-71.78,-5.21,-4.06,-0.12,-5.65,-6.77,Sitting
26:46.6,1001,1001,1501.5,1003,386,1.65,605.97,1.89,133.3,385,119,120.3,120,14472,0,0,0.97,-0.25,0.12,-2.37,-1.4,-2.6,-14.75,-72.67,-5.43,-4.48,-0.35,-5.81,-7.21,Sitting
26:46.8,1002,1001,1501.5,1003,387,1.64,608.49,1.89,133.3,385,120,120.3,120,14472,14400,120,1,-0.25,0.12,-7.28,-2.88,-5.05,-14.61,-72.92,-6.27,-5.09,-0.88,-6.61,-7.8,Sitting
26:46.9,1001,1001,1501.5,1003,387,1.64,608.49,1.89,133.3,385,122,120.3,120,14472,29284,242,0.96,-0.25,0.13,-2.07,5.52,0.65,-15.22,-71.88,-6.46,-4.65,-0.7,-6.81,-7.34,Sitting
26:47.0,1001,1001,1501.5,1003,386,1.65,605.97,1.89,133.3,385,121,120.3,120,14472,43925,363,0.97,-0.27,0.12,-3.91,1.94,2.25,-15.99,-71.44,-6.88,-4.65,-0.32,-7.25,-7.32,Sitting
26:47.1,1002,1001,1501.5,1003,385,1.66,603.45,1.88,133.3,385,121,120.3,120,14472,58566,484,0.97,-0.27,0.13,-0.96,2.58,0.17,-15.95,-71.29,-6.93,-4.58,-0.2,-7.29,-7.25,Sitting
26:47.3,1001,1001,1501.5,1003,387,1.64,608.49,1.89,133.3,385,121,120.3,120,14472,73207,605,0.97,-0.28,0.12,0.17,0.53,-0.82,-16.25,-71.21,-6.84,-4.76,-0.2,-7.22,-7.42,Sitting
26:47.4,1001,1001,1501.5,1003,386,1.65,605.97,1.89,133.3,385,119,120.3,120,14472,87368,724,0.95,-0.26,0.15,-1.02,2.91,-0.59,-15.81,-70.69,-6.9,-4.65,-0.18,-7.26,-7.29,Sitting
26:47.5,1003,1001,1501.5,1003,386,1.65,605.97,1.89,133.3,385,121,120.3,120,14472,102009,845,0.98,-0.27,0.13,-0.88,0.89,-0.74,-15.99,-71.37,-6.94,-4.79,-0.17,-7.3,-7.45,Sitting
26:47.6,1001,1001,1501.5,1003,386,1.65,605.97,1.89,133.3,385,121,120.3,120,14472,116650,966,0.98,-0.26,0.13,-3.34,-1.95,-4.65,-15.51,-71.82,-7.29,-5.29,-0.66,-7.62,-7.95,Sitting
26:47.8,1001,1001,1501.5,1003,387,1.64,608.49,1.89,133.3,385,122,120.3,120,14472,131534,1088,0.97,-0.26,0.13,-2.14,1.5,-2.44,-15.47,-71.78,-7.49,-5.35,-0.86,-7.81,-8.01,Sitting
26:47.9,1002,1001,1501.5,1003,385,1.66,603.45,1.88,134.46,386,119,120.7,120,14568,0,0,0.97,-0.26,0.12,-0.88,1.72,-0.79,-15.36,-72.14,-7.53,-5.39,-0.87,-7.84,-8.06,Sitting
26:48.0,1001,1001,1501.5,1003,385,1.66,603.45,1.88,134.46,386,120,120.7,120,14568,14400,120,0.98,-0.25,0.12,-2.05,0.21,-1.98,-14.99,-72.47,-7.72,-5.61,-1.01,-8.01,-8.29,Sitting
26:48.1,1001,1001,1501.5,1003,387,1.64,608.49,1.89,134.46,386,121,120.7,120,14568,29041,241,0.97,-0.27,0.12,-2.41,-1.05,-0.11,-15.92,-71.54,-7.95,-6,-0.93,-8.27,-8.62,Sitting
26:48.3,1001,1001,1501.5,1003,386,1.65,605.97,1.89,134.46,386,122,120.7,120,14568,43925,363,0.97,-0.27,0.13,-1.82,1.26,0.62,-15.99,-71.31,-8.11,-6.09,-0.75,-8.42,-8.7,Sitting
26:48.4,1002,1001,1501.5,1003,386,1.65,605.97,1.89,134.46,386,122,120.7,120,14568,58809,485,0.98,-0.27,0.12,-3.09,-1.06,-0.05,-16.07,-71.47,-8.42,-6.47,-0.66,-8.73,-9.07,Sitting
26:48.5,1002,1001,1501.5,1003,385,1.66,603.45,1.88,134.46,386,121,120.7,120,14568,73450,606,0.97,-0.28,0.13,-1.69,1.29,0.56,-16.58,-70.79,-8.56,-6.56,-0.49,-8.88,-9.13,Sitting
26:48.6,1003,1001,1501.5,1003,388,1.64,611.02,1.9,134.46,386,121,120.7,120,14568,88091,727,0.97,-0.28,0.12,-1.03,1.82,-0.8,-16.35,-71.22,-8.62,-6.58,-0.49,-8.93,-9.17,Sitting
26:48.8,1002,1001,1501.5,1003,385,1.66,603.45,1.88,134.46,386,122,120.7,120,14568,102975,849,0.97,-0.27,0.12,-1.23,0.95,-1.6,-15.87,-71.63,-8.71,-6.72,-0.59,-8.99,-9.31,Sitting
26:48.9,1002,1001,1501.5,1003,386,1.65,605.97,1.89,134.46,386,121,120.7,120,14568,117616,970,0.97,-0.28,0.12,-2.48,1.69,-0.31,-16.43,-71.11,-8.95,-6.75,-0.53,-9.25,-9.33,Sitting
26:49.0,1002,1001,1501.5,1003,386,1.65,605.97,1.89,134.46,386,121,120.7,120,14568,132257,1091,0.97,-0.28,0.12,-2.8,1.12,-0.47,-16.55,-70.88,-9.23,-6.86,-0.49,-9.52,-9.43,Sitting
26:49.1,1001,1001,1501.5,1003,388,1.64,611.02,1.9,134.46,386,122,121.3,121,14713,0,0,0.96,-0.27,0.12,-2.4,0.47,-1.05,-16.15,-71.28,-9.46,-7.05,-0.52,-9.73,-9.62,Sitting
26:49.3,1001,1001,1501.5,1003,386,1.65,605.97,1.89,134.46,386,121,121.3,121,14713,14641,121,0.97,-0.28,0.12,-2.88,-0.51,-1.5,-16.43,-71.2,-9.75,-7.37,-0.61,-10.02,-9.92,Sitting
26:49.4,1002,1001,1501.5,1003,385,1.66,603.45,1.88,134.46,386,120,121.3,121,14713,29041,241,0.97,-0.28,0.11,-1.98,1.08,-1.08,-16.64,-71.09,-9.93,-7.49,-0.65,-10.2,-10.03,Sitting
26:49.5,1003,1001,1501.5,1003,388,1.64,611.02,1.9,134.46,386,122,121.3,121,14713,43925,363,0.98,-0.27,0.12,-2.69,-1.1,-1.49,-15.96,-71.62,-10.2,-7.88,-0.74,-10.43,-10.43,Sitting
26:49.6,1003,1001,1501.5,1003,387,1.64,608.49,1.89,134.46,386,122,121.3,121,14713,58809,485,0.97,-0.27,0.1,-2.31,1.06,-0.53,-16.36,-71.52,-10.42,-8,-0.71,-10.66,-10.54,Sitting
26:49.8,1002,1001,1501.5,1003,386,1.65,605.97,1.89,134.46,386,121,121.3,121,14713,73450,606,0.96,-0.28,0.11,-2.99,0.12,0.23,-16.51,-71.19,-10.73,-8.23,-0.58,-10.96,-10.75,Sitting
26:49.9,1003,1001,1501.5,1003,387,1.64,608.49,1.89,134.46,386,121,121.3,121,14713,88091,727,0.98,-0.28,0.13,-1.73,0.49,-1.63,-16.66,-70.79,-10.87,-8.42,-0.68,-11.11,-10.92,Sitting
26:50.0,1001,1001,1501.5,1003,387,1.64,608.49,1.89,134.46,386,121,121.3,121,14713,102732,848,0.97,-0.27,0.13,-3.07,-1.52,-2.91,-16.2,-71,-11.19,-8.87,-0.95,-11.39,-11.35,Sitting
26:50.2,1001,1001,1501.5,1003,385,1.66,603.45,1.88,134.46,386,121,121.3,121,14713,117373,969,0.98,-0.27,0.11,-1.28,0.64,-1.37,-16.1,-71.69,-11.28,-9.04,-1.02,-11.47,-11.54,Sitting
26:50.3,1003,1001,1501.5,1003,387,1.64,608.49,1.89,134.46,386,122,121.3,121,14713,132257,1091,0.97,-0.27,0.12,-1.6,2.6,-1.39,-16.01,-71.6,-11.41,-8.96,-1.1,-11.6,-11.47,Sitting
26:50.4,1001,1001,1501.5,1003,387,1.64,608.49,1.89,135.32,386,122,121.3,121,14713,0,0,0.97,-0.27,0.12,-1.69,1.53,-0.95,-16.13,-71.26,-11.55,-9.02,-1.12,-11.74,-11.51,Sitting
26:50.5,1001,1001,1501.5,1003,385,1.66,603.45,1.88,135.32,386,122,121.3,121,14713,14884,122,0.97,-0.28,0.11,-2.05,0.64,-2.27,-16.34,-71.33,-11.74,-9.19,-1.31,-11.93,-11.68,Sitting
26:50.7,1003,1001,1501.5,1003,386,1.65,605.97,1.89,135.32,386,121,121.3,121,14713,29525,243,0.98,-0.27,0.11,-2.23,2.6,-0.18,-16.01,-71.65,-11.95,-9.12,-1.23,-12.12,-11.62,Sitting
26:50.8,1002,1001,1501.5,1003,387,1.64,608.49,1.89,135.32,386,122,121.3,121,14713,44409,365,0.97,-0.27,0.12,-1.18,2.76,1.3,-16.07,-71.5,-12.03,-9.02,-0.97,-12.19,-11.52,Sitting
26:50.9,1002,1001,1501.5,1003,385,1.66,603.45,1.88,135.32,386,122,121.3,121,14713,59293,487,0.96,-0.27,0.13,-2.27,0.9,-1.19,-16.33,-71,-12.24,-9.16,-1.02,-12.41,-11.63,Sitting
26:51.0,1001,1001,1501.5,1003,384,1.66,600.94,1.88,135.32,386,122,121.3,121,14713,74177,609,0.98,-0.28,0.11,-2.65,-1.36,-1.4,-16.2,-71.49,-12.51,-9.58,-1.09,-12.65,-12.06,Sitting
26:51.2,1003,1001,1501.5,1003,388,1.64,611.02,1.9,135.32,386,122,121.3,121,14713,89061,731,0.97,-0.28,0.11,-2.75,-0.07,-2.47,-16.34,-71.39,-12.78,-9.84,-1.31,-12.93,-12.3,Sitting
26:51.3,1002,1001,1501.5,1003,386,1.65,605.97,1.89,135.32,386,121,121.3,121,14713,103702,852,0.96,-0.28,0.11,-4.24,-0.89,-2.79,-16.69,-71.11,-13.25,-10.21,-1.56,-13.38,-12.64,Sitting
26:51.4,1003,1001,1501.5,1003,386,1.65,605.97,1.89,135.32,386,122,121.3,121,14713,118586,974,0.99,-0.27,0.09,-1.3,-0.86,-1.68,-16.03,-72.04,-13.34,-10.57,-1.67,-13.45,-13.03,Sitting
26:51.5,1001,1001,1501.5,1003,387,1.64,608.49,1.89,135.32,386,121,121.3,121,14713,133227,1095,0.98,-0.28,0.11,-1.66,1.23,-0.76,-16.38,-71.32,-13.48,-10.67,-1.67,-13.6,-13.09,Sitting
26:51.7,1001,1001,1501.5,1003,387,1.64,608.49,1.89,134.17,386,122,121.7,121,14810,0,0,0.96,-0.28,0.1,-0.53,5.16,1.04,-16.44,-71.59,-13.48,-10.27,-1.44,-13.59,-12.72,Sitting
26:51.8,1003,1001,1501.5,1003,386,1.65,605.97,1.89,134.17,386,122,121.7,121,14810,14884,122,0.97,-0.28,0.1,-1.95,0.05,-2.4,-16.3,-71.68,-13.65,-10.52,-1.64,-13.76,-12.96,Sitting
26:51.9,1003,1001,1501.5,1003,385,1.66,603.45,1.88,134.17,386,121,121.7,121,14810,29525,243,0.96,-0.29,0.1,-2.5,-0.12,-5.92,-17.09,-70.81,-13.9,-10.79,-2.29,-14.02,-13.19,Sitting
26:52.0,1003,1001,1501.5,1003,388,1.64,611.02,1.9,134.17,386,120,121.7,121,14810,43925,363,0.98,-0.25,0.11,0.24,-1.64,-2.37,-14.94,-72.61,-13.8,-11.25,-2.49,-13.84,-13.7,Sitting
26:52.2,1002,1001,1501.5,1003,385,1.66,603.45,1.88,134.17,386,122,121.7,121,14810,58809,485,0.99,-0.26,0.12,-1.95,1.6,0.31,-14.94,-72.59,-13.97,-11.3,-2.36,-14.01,-13.75,Sitting
26:52.3,1002,1001,1501.5,1003,385,1.66,603.45,1.88,134.17,386,122,121.7,121,14810,73693,607,0.97,-0.27,0.12,-2.72,4.43,-1.25,-15.93,-71.58,-14.24,-10.99,-2.41,-14.31,-13.41,Sitting
26:52.4,1001,1001,1501.5,1003,388,1.64,611.02,1.9,134.17,386,121,121.7,121,14810,88334,728,0.95,-0.26,0.11,-2.74,3.01,-1.88,-15.73,-71.82,-14.52,-10.86,-2.55,-14.56,-13.3,Sitting
26:52.5,1001,1001,1501.5,1003,386,1.65,605.97,1.89,134.17,386,121,121.7,121,14810,102975,849,0.96,-0.26,0.12,-2.66,-1.25,-1.43,-15.7,-71.74,-14.78,-11.28,-2.63,-14.82,-13.69,Sitting
26:52.7,1001,1001,1501.5,1003,386,1.65,605.97,1.89,134.17,386,121,121.7,121,14810,117616,970,0.98,-0.27,0.1,-1.24,-1.73,-1.76,-15.65,-72.23,-14.87,-11.75,-2.75,-14.9,-14.17,Sitting
26:52.8,1003,1001,1501.5,1003,389,1.63,613.56,1.9,134.17,386,121,121.7,121,14810,132257,1091,0.97,-0.26,0.1,-1.92,-0.5,-0.99,-15.6,-72.37,-15.04,-12.06,-2.78,-15.06,-14.48,Sitting
26:52.9,1002,1001,1501.5,1003,385,1.66,603.45,1.88,134.75,386,120,121.1,121,14664,0,0,0.98,-0.26,0.1,-6.65,-3.68,-4.78,-15.54,-72.46,-15.8,-12.77,-3.28,-15.79,-15.16,Sitting
26:53.0,1002,1001,1501.5,1003,385,1.66,603.45,1.88,134.75,386,121,121.1,121,14664,14641,121,0.98,-0.25,0.1,-0.73,0.62,0.47,-14.92,-73.03,-15.83,-12.95,-3.12,-15.79,-15.35,Sitting
26:53.2,1002,1001,1501.5,1003,387,1.64,608.49,1.89,134.75,386,121,121.1,121,14664,29282,242,0.97,-0.26,0.08,-5.41,-2.59,-1.91,-15.57,-72.78,-16.44,-13.53,-3.26,-16.4,-15.9,Sitting
26:53.3,1001,1001,1501.5,1003,387,1.64,608.49,1.89,134.75,386,121,121.1,121,14664,43923,363,0.98,-0.24,0.08,-1.44,0.73,0.29,-14.53,-73.8,-16.55,-13.69,-3.12,-16.47,-16.09,Sitting
27:30.7,1003,1002,1503,1003,372,1.75,571.43,1.82,0,0,119,0,0,0,71044,596,0.98,-0.17,0.19,-2.42,3.92,-0.92,-10.5,-73.61,-1.93,-0.11,0.03,-2.28,-3.05,Sitting
27:30.8,1002,1002,1503,1003,375,1.73,578.7,1.83,0,0,119,0,0,0,85205,715,0.97,-0.18,0.2,-1.95,2.92,-0.44,-10.96,-73.09,-2.1,0,0.07,-2.46,-2.92,Sitting
27:31.0,1003,1002,1503,1003,374,1.74,576.27,1.83,0,0,119,0,0,0,99366,834,0.98,-0.17,0.18,0.31,2.56,-0.75,-10.11,-74.56,-2,0.07,0.08,-2.32,-2.91,Sitting
27:31.1,1004,1002,1503,1004,372,1.75,571.43,1.82,0,0,119,0,0,0,113527,953,0.97,-0.18,0.19,-1.39,0.87,-1.67,-10.79,-73.37,-2.1,-0.06,-0.03,-2.45,-3,Sitting
27:31.2,1002,1002,1503,1004,370,1.76,566.62,1.81,0,0,119,0,0,0,127688,1072,0.98,-0.16,0.19,0.69,4.5,-0.87,-9.6,-74.33,-1.94,0.25,-0.04,-2.25,-2.74,Sitting
27:31.3,1001,1002,1503,1004,371,1.76,569.02,1.81,85.09,371,118,119,119,14160,0,0,0.98,-0.16,0.19,-1.29,0.53,-2.11,-9.75,-73.96,-2.03,0.06,-0.2,-2.34,-2.9,Sitting
27:31.4,1001,1002,1503,1004,373,1.74,573.85,1.82,85.09,371,118,119,119,14160,13924,118,0.97,-0.17,0.19,0.21,1.61,0.47,-10.5,-73.49,-1.94,0.01,-0.05,-2.28,-2.93,Sitting
27:31.6,1002,1002,1503,1004,375,1.73,578.7,1.83,85.09,371,119,119,119,14160,28085,237,0.98,-0.18,0.2,0.24,1.31,0.05,-10.86,-72.92,-1.84,-0.07,0.06,-2.2,-2.99,Sitting
27:31.7,1002,1002,1503,1004,371,1.76,569.02,1.81,85.09,371,118,119,119,14160,42009,355,0.97,-0.17,0.2,0.73,3.27,-0.59,-10.47,-73.13,-1.68,0.09,0.08,-2.03,-2.84,Sitting
27:31.8,1003,1002,1503,1004,370,1.76,566.62,1.81,85.09,371,119,119,119,14160,56170,474,0.97,-0.17,0.21,0.02,2.81,-0.84,-10.36,-72.89,-1.6,0.19,0.08,-1.95,-2.74,Sitting
27:31.9,1002,1002,1503,1004,372,1.75,571.43,1.82,85.09,371,119,119,119,14160,70331,593,0.96,-0.17,0.2,-0.72,2.15,-0.05,-10.19,-73.15,-1.62,0.21,0.17,-1.97,-2.73,Sitting
27:32.1,1001,1002,1503,1004,373,1.74,573.85,1.82,85.09,371,119,119,119,14160,84492,712,0.98,-0.17,0.21,-2.26,-1.37,-0.79,-10.2,-72.94,-1.84,-0.22,0.17,-2.17,-3.13,Sitting
27:32.2,1003,1002,1503,1004,371,1.76,569.02,1.81,85.09,371,118,119,119,14160,98416,830,0.98,-0.18,0.2,-3.95,-1.25,-0.66,-10.8,-73.19,-2.26,-0.62,0.19,-2.6,-3.53,Sitting
27:32.3,1003,1002,1503,1004,370,1.76,566.62,1.81,85.09,371,118,119,119,14160,112340,948,0.97,-0.17,0.22,-1.7,3.51,-0.26,-10.38,-72.15,-2.41,-0.43,0.25,-2.72,-3.3,Sitting
27:32.4,1001,1002,1503,1004,371,1.76,569.02,1.81,85.09,371,117,119,119,14160,126029,1065,0.98,-0.17,0.21,-3.34,-3.21,-2.64,-10.1,-73.06,-2.75,-1.08,0.02,-3.05,-3.96,Sitting
27:32.6,1002,1002,1503,1004,373,1.74,573.85,1.82,85.08,371,119,118.4,118,14018,0,0,0.97,-0.18,0.22,-1.76,2.35,-0.24,-10.59,-72.28,-2.9,-1.04,0.09,-3.21,-3.89,Sitting
27:32.7,1003,1002,1503,1004,369,1.77,564.22,1.8,85.08,371,118,118.4,118,14018,13924,118,0.97,-0.19,0.21,-2.15,2.7,0.24,-11.23,-72.37,-3.1,-0.95,0.22,-3.43,-3.81,Sitting
27:32.8,1003,1002,1503,1004,370,1.76,566.62,1.81,85.08,371,117,118.4,118,14018,27613,235,0.96,-0.18,0.21,-1.31,-1.4,-2.84,-10.83,-72.22,-3.19,-1.37,-0.03,-3.5,-4.21,Sitting
27:32.9,1001,1002,1503,1004,372,1.75,571.43,1.82,85.08,371,123,118.4,118,14018,42742,358,0.96,-0.18,0.19,-2.13,-0.16,-2.6,-11.21,-73.02,-3.39,-1.64,-0.26,-3.7,-4.5,Sitting
27:33.1,1001,1002,1503,1004,373,1.74,573.85,1.82,85.08,371,130,118.4,118,14018,59642,488,0.97,-0.17,0.21,-1.71,-0.08,-1.25,-10.15,-72.99,-3.54,-1.91,-0.32,-3.8,-4.75,Sitting
27:33.2,1003,1002,1503,1004,370,1.76,566.62,1.81,85.08,371,134,118.4,118,14018,77598,622,0.97,-0.15,0.19,-2.78,-2.45,-5.1,-9.25,-74.43,-3.81,-2.46,-0.86,-4.03,-5.34,Sitting
27:33.3,1002,1002,1503,1004,371,1.76,569.02,1.81,85.08,371,136,118.4,118,14018,96094,758,0.98,-0.17,0.19,-3.16,-0.87,-2.86,-10.01,-73.87,-4.14,-2.82,-1.12,-4.38,-5.67,Sitting
27:33.4,1002,1002,1503,1004,375,1.73,578.7,1.83,85.08,371,141,118.4,118,14018,115975,899,0.97,-0.16,0.2,-2.21,0.61,1.09,-9.99,-73.37,-4.35,-3,-0.88,-4.57,-5.81,Sitting
27:33.6,1002,1002,1503,1004,372,1.75,571.43,1.82,85.08,371,139,118.4,118,14018,135296,1038,0.98,-0.17,0.19,-1.43,3.87,2.23,-10.04,-73.77,-4.46,-2.76,-0.5,-4.68,-5.6,Sitting
27:33.7,1002,1002,1503,1004,370,1.76,566.62,1.81,85.08,371,138,118.4,118,14018,154340,1176,0.99,-0.17,0.19,-3.53,-1.2,-2.48,-10.39,-73.84,-4.83,-3.16,-0.71,-5.05,-5.99,Sitting
27:33.8,1002,1002,1503,1004,372,1.75,571.43,1.82,82.87,371,139,131.78,131,17365,0,0,0.96,-0.17,0.21,-1.71,3.11,-0.59,-10.51,-72.73,-4.97,-3.02,-0.69,-5.19,-5.81,Sitting
27:33.9,1001,1002,1503,1004,374,1.74,576.27,1.83,82.87,371,147,131.78,131,17365,21609,147,0.97,-0.18,0.2,-1.98,2.31,0.72,-10.9,-72.84,-5.15,-2.98,-0.5,-5.38,-5.78,Sitting
27:34.1,1003,1002,1503,1004,369,1.77,564.22,1.8,82.87,371,134,131.78,131,17365,39565,281,0.97,-0.16,0.19,-1.79,0.7,-1.92,-10.06,-73.81,-5.3,-3.15,-0.64,-5.49,-5.97,Sitting
27:34.2,1003,1002,1503,1004,367,1.79,559.45,1.79,82.87,371,130,131.78,131,17365,56465,411,1,-0.17,0.18,-5.31,-4.46,-4.05,-10.24,-74.61,-5.9,-3.96,-1.05,-6.07,-6.79,Sitting
27:34.3,1002,1002,1503,1004,370,1.76,566.62,1.81,82.87,371,129,131.78,131,17365,73106,540,0.95,-0.18,0.21,-1.32,5.71,1.08,-10.95,-72.17,-6,-3.5,-0.82,-6.19,-6.24,Sitting
27:34.4,1001,1002,1503,1004,371,1.76,569.02,1.81,82.87,371,128,131.78,131,17365,89490,668,0.98,-0.18,0.21,-1.63,-3.55,-1.79,-11,-72.51,-6.13,-4.19,-0.94,-6.32,-6.92,Sitting
27:34.6,1003,1002,1503,1004,367,1.79,559.45,1.79,82.87,371,128,131.78,131,17365,105874,796,0.96,-0.18,0.2,-1.5,3.5,2.17,-11.06,-72.77,-6.25,-4,-0.57,-6.44,-6.75,Sitting
27:34.7,1002,1002,1503,1004,367,1.79,559.45,1.79,82.87,371,128,131.78,131,17365,122258,924,0.95,-0.18,0.2,-0.89,0.69,1.57,-10.87,-72.95,-6.29,-4.17,-0.27,-6.47,-6.92,Sitting
27:34.8,1002,1002,1503,1004,371,1.76,569.02,1.81,82.87,371,128,131.78,131,17365,138642,1052,0.98,-0.16,0.21,-0.72,-0.66,-2.61,-9.93,-73.14,-6.31,-4.5,-0.5,-6.45,-7.24,Sitting
27:35.0,1001,1002,1503,1004,369,1.77,564.22,1.8,82.87,371,128,131.78,131,17365,155026,1180,0.98,-0.18,0.18,-4.65,-2.41,-3.9,-10.75,-73.97,-6.82,-5.05,-0.89,-6.98,-7.81,Sitting
27:35.1,1003,1002,1503,1004,368,1.78,561.83,1.8,72.9,369,128,130.92,130,17140,0,0,0.99,-0.19,0.2,-2.77,5.57,-0.23,-10.93,-73.05,-7.1,-4.61,-0.82,-7.25,-7.35,Sitting
27:35.2,1003,1002,1503,1004,368,1.78,561.83,1.8,72.9,369,129,130.92,130,17140,16641,129,0.96,-0.18,0.2,-2.4,2.7,-1.92,-10.76,-72.81,-7.33,-4.52,-0.96,-7.47,-7.25,Sitting
27:35.3,1001,1002,1503,1004,371,1.76,569.02,1.81,72.9,369,129,130.92,130,17140,33282,258,0.96,-0.16,0.19,-3.19,-1.4,-5.99,-9.87,-73.84,-7.66,-4.95,-1.61,-7.75,-7.7,Sitting
27:35.5,1002,1002,1503,1004,369,1.77,564.22,1.8,72.9,369,128,130.92,130,17140,49666,386,0.97,-0.17,0.19,0.23,2.92,-3.27,-10.32,-73.76,-7.56,-4.83,-1.92,-7.67,-7.59,Sitting
27:35.6,1001,1002,1503,1004,368,1.78,561.83,1.8,72.9,369,129,130.92,130,17140,66307,515,0.97,-0.17,0.2,-1.6,0.39,-1.29,-10.38,-73.34,-7.69,-5.03,-1.99,-7.8,-7.77,Sitting
27:35.7,1002,1002,1503,1004,369,1.77,564.22,1.8,72.9,369,127,130.92,130,17140,82436,642,0.98,-0.17,0.2,-0.54,1.15,-2,-10.16,-73.53,-7.69,-5.14,-2.14,-7.79,-7.87,Sitting
27:35.8,1003,1002,1503,1004,372,1.75,571.43,1.82,72.9,369,130,130.92,130,17140,99336,772,0.97,-0.16,0.2,-0.71,0.91,-1.66,-9.54,-73.97,-7.71,-5.28,-2.25,-7.78,-8.02,Sitting
27:36.0,1001,1002,1503,1004,368,1.78,561.83,1.8,72.9,369,129,130.92,130,17140,115977,901,0.96,-0.16,0.2,-1.17,1.05,-0.11,-9.94,-73.65,-7.78,-5.4,-2.16,-7.87,-8.13,Sitting
27:36.1,1003,1002,1503,1004,367,1.79,559.45,1.79,72.9,369,128,130.92,130,17140,132361,1029,0.98,-0.16,0.2,-1.88,0.38,-1.39,-9.62,-73.77,-7.95,-5.6,-2.24,-8.02,-8.33,Sitting
27:36.2,1002,1002,1503,1004,369,1.77,564.22,1.8,72.9,369,128,130.92,130,17140,148745,1157,0.97,-0.16,0.19,-0.23,1.84,-2.05,-9.85,-74.01,-7.91,-5.62,-2.4,-7.98,-8.35,Sitting
27:36.3,1003,1002,1503,1004,370,1.76,566.62,1.81,71.86,369,129,128.6,128,16537,0,0,0.98,-0.15,0.2,-1.34,0.67,-2.98,-9.24,-74.17,-8,-5.78,-2.67,-8.05,-8.52,Sitting
27:36.5,1001,1002,1503,1004,367,1.79,559.45,1.79,71.86,369,129,128.6,128,16537,16641,129,0.97,-0.16,0.2,-2,1.22,-1.33,-9.55,-73.93,-8.18,-5.88,-2.73,-8.24,-8.6,Sitting
27:36.6,1002,1002,1503,1004,367,1.79,559.45,1.79,71.86,369,128,128.6,128,16537,33025,257,0.97,-0.16,0.21,-1.73,1.59,-0.51,-9.64,-73.43,-8.33,-5.93,-2.7,-8.38,-8.63,Sitting
27:36.7,1002,1002,1503,1004,369,1.77,564.22,1.8,71.86,369,129,128.6,128,16537,49666,386,0.98,-0.16,0.19,-0.93,1.15,-0.44,-9.51,-74.15,-8.37,-6.04,-2.66,-8.42,-8.76,Sitting
27:36.8,1001,1002,1503,1004,371,1.76,569.02,1.81,71.86,369,129,128.6,128,16537,66307,515,0.98,-0.15,0.2,-1.43,0.56,-1.36,-9.22,-74.09,-8.48,-6.22,-2.73,-8.51,-8.93,Sitting
27:37.0,1002,1002,1503,1004,368,1.78,561.83,1.8,71.86,369,126,128.6,128,16537,82183,641,0.99,-0.15,0.19,-1.76,0.89,-1.79,-9.1,-74.73,-8.63,-6.36,-2.85,-8.65,-9.09,Sitting
27:37.1,1001,1002,1503,1004,368,1.78,561.83,1.8,71.86,369,128,128.6,128,16537,98567,769,0.97,-0.16,0.2,-2.37,0.69,-1.55,-9.59,-73.77,-8.86,-6.52,-2.95,-8.89,-9.21,Sitting
27:37.2,1001,1002,1503,1004,370,1.76,566.62,1.81,71.86,369,130,128.6,128,16537,115467,899,0.97,-0.15,0.18,-1.37,1.57,-0.44,-9.09,-74.91,-8.96,-6.58,-2.9,-8.97,-9.31,Sitting
27:37.3,1004,1002,1503,1004,369,1.77,564.22,1.8,71.86,369,129,128.6,128,16537,132108,1028,0.98,-0.16,0.2,-2.6,-0.08,-1.03,-9.51,-73.8,-9.22,-6.84,-2.93,-9.23,-9.52,Sitting
27:37.5,1001,1002,1503,1004,368,1.78,561.83,1.8,71.86,369,129,128.6,128,16537,148749,1157,0.99,-0.15,0.19,-2.05,0.98,-1.89,-9.16,-74.49,-9.4,-6.97,-3.07,-9.39,-9.67,Sitting
27:37.6,1001,1002,1503,1004,368,1.78,561.83,1.8,68.71,368,129,128.6,128,16538,0,0,0.98,-0.15,0.19,-1.37,1.35,-2.08,-9.16,-74.6,-9.5,-7.05,-3.23,-9.49,-9.75,Sitting
27:37.7,1003,1002,1503,1004,370,1.76,566.62,1.81,68.71,368,130,128.6,128,16538,16900,130,0.97,-0.15,0.19,-0.92,2.34,-0.85,-9.31,-74.34,-9.55,-7.01,-3.24,-9.54,-9.7,Sitting
27:37.8,1001,1002,1503,1004,368,1.78,561.83,1.8,68.71,368,128,128.6,128,16538,33284,258,0.97,-0.14,0.2,-1.66,1.66,-1.18,-8.9,-74.07,-9.69,-7.05,-3.29,-9.66,-9.73,Sitting
27:38.0,1002,1002,1503,1004,368,1.78,561.83,1.8,68.71,368,129,128.6,128,16538,49925,387,0.98,-0.15,0.2,-2.5,0.26,-1.77,-9.3,-73.91,-9.93,-7.27,-3.41,-9.9,-9.93,Sitting
27:38.1,1001,1002,1503,1004,368,1.78,561.83,1.8,68.71,368,128,128.6,128,16538,66309,515,0.97,-0.16,0.19,-0.68,2.69,-1.49,-9.51,-74.2,-9.94,-7.18,-3.5,-9.93,-9.86,Sitting
27:38.2,1003,1002,1503,1004,372,1.75,571.43,1.82,68.71,368,130,128.6,128,16538,83209,645,0.98,-0.15,0.2,-1.73,0.8,-1.79,-9.08,-74.27,-10.09,-7.33,-3.62,-10.05,-10.01,Sitting
27:38.3,1001,1002,1503,1004,368,1.78,561.83,1.8,68.71,368,129,128.6,128,16538,99850,774,0.97,-0.15,0.2,-1.58,5.08,1.42,-8.96,-74.16,-10.22,-6.94,-3.35,-10.17,-9.63,Sitting
27:38.5,1002,1002,1503,1004,366,1.8,557.08,1.79,68.71,368,129,128.6,128,16538,116491,903,0.97,-0.16,0.21,-2.21,1.15,-0.42,-9.57,-73.24,-10.42,-7.05,-3.3,-10.39,-9.7,Sitting
27:41.5,1001,1001,1501.5,1001,372,1.75,571.43,1.82,0,0,127,0,0,0,32513,255,0.99,0.06,0.23,0.48,4.96,-8.79,3.07,-74.77,-0.41,0.79,-1.37,-0.27,-2.23,Left Fall while Sitting
27:41.7,1002,1001,1501.5,1002,372,1.75,571.43,1.82,0,0,127,0,0,0,48642,382,0.96,0.07,0.22,-2.57,-0.89,-12.76,3.76,-74.72,-0.66,0.44,-2.85,-0.48,-2.57,Left Fall while Sitting
27:41.8,1001,1001,1501.5,1002,369,1.77,564.22,1.8,0,0,126,0,0,0,64518,508,0.96,0.1,0.22,-3.69,1.92,-6.35,5.49,-73.89,-1.05,0.43,-3.53,-0.79,-2.55,Left Fall while Sitting
27:41.9,1002,1001,1501.5,1002,368,1.78,561.83,1.8,0,0,124,0,0,0,79894,632,0.97,0.12,0.24,-4.06,1.27,-5.42,6.02,-73.27,-1.48,0.34,-4.1,-1.18,-2.61,Left Fall while Sitting
27:42.0,1001,1001,1501.5,1002,368,1.78,561.83,1.8,0,0,126,0,0,0,95770,758,0.98,0.13,0.21,-5.47,0.54,-6.66,6.91,-74.29,-2.08,0.16,-4.82,-1.72,-2.82,Left Fall while Sitting
27:42.2,1002,1001,1501.5,1002,369,1.77,564.22,1.8,0,0,126,0,0,0,111646,884,0.96,0.13,0.23,-5.57,-1.56,-8.49,6.87,-73.04,-2.7,-0.28,-5.77,-2.32,-3.19,Left Fall while Sitting
27:42.3,1001,1001,1501.5,1002,372,1.75,571.43,1.82,0,0,126,0,0,0,127522,1010,0.97,0.14,0.23,-1.85,1.72,-8.73,7.31,-73.18,-2.86,-0.32,-6.74,-2.45,-3.23,Left Fall while Sitting
27:42.4,526,942,1413,1002,376,1.72,581.14,1.84,0,0,129,0,0,0,144163,1139,0.96,0.15,0.23,-0.46,4.98,-8.06,8.05,-72.32,-2.84,0.05,-7.63,-2.41,-2.84,Left Fall while Sitting
27:42.5,1002,948,1422,1002,374,1.74,576.27,1.83,80.17,370,128,126.7,126,16053,0,0,0.94,0.18,0.23,-3.71,0.37,-12.21,9.94,-71.15,-3.23,-0.15,-9.05,-2.71,-2.99,Left Fall while Sitting
27:42.7,1001,953,1429.5,1002,372,1.75,571.43,1.82,80.17,370,124,126.7,126,16053,15376,124,0.95,0.19,0.24,-2.47,0.76,-13.61,10.38,-70.76,-3.47,-0.31,-10.65,-2.92,-3.12,Left Fall while Sitting
27:42.8,1002,958,1437,1002,369,1.77,564.22,1.8,80.17,370,125,126.7,126,16053,31001,249,0.94,0.23,0.22,-4.14,0.38,-12.8,12.64,-69.65,-3.92,-0.51,-12.15,-3.26,-3.27,Left Fall while Sitting
27:42.9,532,922,1383,1002,374,1.74,576.27,1.83,80.17,370,128,126.7,126,16053,47385,377,0.94,0.25,0.22,-6.87,-0.08,-10.9,13.84,-69.12,-4.71,-0.77,-13.42,-3.97,-3.5,Left Fall while Sitting
27:43.0,1001,928,1392,1002,375,1.73,578.7,1.83,80.17,370,129,126.7,126,16053,64026,506,0.92,0.25,0.25,-5.99,4.56,-10.44,14.19,-67.26,-5.39,-0.45,-14.62,-4.6,-3.12,Left Fall while Sitting
27:43.2,527,900,1350,1002,374,1.74,576.27,1.83,80.17,370,125,126.7,126,16053,79651,631,0.93,0.26,0.25,-0.05,2.63,-8.51,14.26,-67.26,-5.32,-0.37,-15.6,-4.54,-3.04,Left Fall while Sitting
27:43.3,1002,906,1359,1002,374,1.74,576.27,1.83,80.17,370,124,126.7,126,16053,95027,755,0.94,0.29,0.23,-3.47,-3.11,-13.88,15.98,-67.08,-5.69,-1.01,-17.23,-4.82,-3.65,Left Fall while Sitting
27:43.4,1001,912,1368,1002,378,1.71,586.05,1.85,80.17,370,129,126.7,126,16053,111668,884,0.88,0.3,0.26,-0.08,4.24,-9.69,17.62,-64.23,-5.63,-0.73,-18.34,-4.7,-3.27,Left Fall while Sitting
27:43.5,1002,918,1377,1002,377,1.71,583.59,1.84,80.17,370,126,126.7,126,16053,127544,1010,0.88,0.33,0.26,-0.75,-1.71,-8.61,18.96,-62.94,-5.65,-1.19,-19.32,-4.66,-3.66,Left Fall while Sitting
27:43.7,1002,922,1383,1002,375,1.73,578.7,1.83,80.17,370,126,126.7,126,16053,143420,1136,0.9,0.33,0.24,2.77,-0.33,-1.27,19.04,-63.86,-5.23,-1.48,-19.38,-4.26,-3.98,Left Fall while Sitting
27:43.8,1002,926,1389,1002,377,1.71,583.59,1.84,95.83,374,125,126.11,126,15903,0,0,0.9,0.34,0.23,7.11,-1.47,-1.41,19.77,-63.78,-4.28,-1.91,-19.46,-3.32,-4.39,Left Fall while Sitting
27:43.9,400,900,1350,1002,379,1.7,588.51,1.85,95.83,374,128,126.11,126,15903,16384,128,0.9,0.35,0.2,3.37,-4.05,-1.98,20.1,-64.27,-3.79,-2.66,-19.61,-2.83,-5.13,Left Fall while Sitting
27:44.0,0,857,1285.5,1002,378,1.71,586.05,1.85,95.83,374,127,126.11,126,15903,32513,255,0.93,0.38,0.21,-0.79,2.61,-5.93,21.1,-63.3,-3.82,-2.59,-20.24,-2.82,-5.02,Left Fall while Sitting
27:44.2,0,818,1227,1002,376,1.72,581.14,1.84,95.83,374,126,126.11,126,15903,48389,381,0.89,0.38,0.18,-6.56,1.44,-7.27,21.88,-63.32,-4.57,-2.66,-21.05,-3.51,-5.08,Left Fall while Sitting
27:44.3,0,783,1174.5,1002,376,1.72,581.14,1.84,95.83,374,126,126.11,126,15903,64265,507,0.88,0.36,0.22,-9.21,1.59,-0.41,20.89,-63.06,-5.64,-2.71,-21.01,-4.58,-5.12,Left Fall while Sitting
27:44.4,0,750,1125,1002,379,1.7,588.51,1.85,95.83,374,125,126.11,126,15903,79890,632,0.88,0.33,0.25,-1.57,2.49,2.56,19.3,-63.39,-5.77,-2.65,-20.59,-4.77,-5.08,Left Fall while Sitting
27:44.5,0,720,1080,1002,379,1.7,588.51,1.85,95.83,374,127,126.11,126,15903,96019,759,0.93,0.35,0.24,6.75,10.81,5.1,19.46,-63.81,-4.86,-1.55,-19.86,-3.89,-4.05,Left Fall while Sitting
27:44.7,0,692,1038,1002,378,1.71,586.05,1.85,95.83,374,127,126.11,126,15903,112148,886,0.9,0.38,0.25,5.44,3.26,-4.6,21.55,-61.65,-4.11,-1.4,-20.33,-3.09,-3.81,Left Fall while Sitting
27:44.8,0,667,1000.5,1002,376,1.72,581.14,1.84,95.83,374,125,126.11,126,15903,127773,1011,0.89,0.38,0.21,7.93,2.64,0.66,22.2,-62.08,-3.05,-1.32,-20.15,-2.04,-3.75,Left Fall while Sitting
27:44.9,0,643,964.5,1002,377,1.71,583.59,1.84,95.83,374,125,126.11,126,15903,143398,1136,0.89,0.4,0.23,1.64,2.07,-11.34,22.81,-61.12,-2.78,-1.31,-21.46,-1.75,-3.7,Left Fall while Sitting
27:45.0,0,621,931.5,1002,380,1.69,590.98,1.86,107.99,377,126,126.2,126,15926,0,0,0.9,0.4,0.21,7.85,9.69,-8.77,22.82,-61.86,-1.74,-0.36,-22.44,-0.76,-2.82,Left Fall while Sitting
27:45.2,0,600,900,1002,379,1.7,588.51,1.85,107.99,377,127,126.2,126,15926,16129,127,0.84,0.4,0.21,0.29,2.42,-14.27,24.43,-59.9,-1.64,-0.31,-24.13,-0.59,-2.69,Left Fall while Sitting
27:45.3,0,580,870,1002,375,1.73,578.7,1.83,107.99,377,125,126.2,126,15926,31754,252,0.84,0.44,0.24,-1.94,2.19,-7.68,26.04,-57.75,-1.81,-0.29,-24.98,-0.69,-2.58,Left Fall while Sitting
27:45.4,0,562,843,1002,377,1.71,583.59,1.84,107.99,377,125,126.2,126,15926,47379,377,0.84,0.45,0.25,-4.65,-3.98,-8.09,26.85,-56.62,-2.32,-1.03,-25.89,-1.15,-3.26,Left Fall while Sitting
27:45.5,0,545,817.5,1002,378,1.71,586.05,1.85,107.99,377,125,126.2,126,15926,63004,502,0.83,0.47,0.25,-1.58,1.77,-7.66,27.6,-56.08,-2.45,-1.06,-26.75,-1.24,-3.26,Left Fall while Sitting
27:45.6,0,529,793.5,1002,379,1.7,588.51,1.85,107.99,377,126,126.2,126,15926,78880,628,0.85,0.46,0.25,2.64,2.29,-3.99,26.92,-56.87,-2.05,-1.03,-27.15,-0.89,-3.26,Left Fall while Sitting
27:45.8,0,514,771,1002,375,1.73,578.7,1.83,107.99,377,128,126.2,126,15926,95264,756,0.82,0.46,0.23,8.53,6.6,-1.68,27.53,-56.61,-0.92,-0.46,-27.26,0.22,-2.7,Left Fall while Sitting
27:45.9,0,500,750,1002,375,1.73,578.7,1.83,107.99,377,125,126.2,126,15926,110889,881,0.83,0.51,0.23,8.5,8.63,-0.88,30.09,-54.42,0.21,0.37,-27.27,1.41,-1.82,Left Fall while Sitting
27:46.0,0,486,729,1002,374,1.74,576.27,1.83,107.99,377,126,126.2,126,15926,126765,1007,0.8,0.52,0.22,0.65,1.79,-2.47,31.75,-53.01,0.36,0.35,-27.48,1.62,-1.79,Left Fall while Sitting
27:46.1,0,473,709.5,1002,374,1.74,576.27,1.83,107.99,377,126,126.2,126,15926,142641,1133,0.81,0.5,0.21,-2.87,-3.92,-6.53,30.47,-54.47,0.07,-0.39,-28.19,1.29,-2.55,Left Fall while Sitting
27:46.3,0,461,691.5,1002,373,1.74,573.85,1.82,101.16,375,125,125.8,125,15825,0,0,0.82,0.49,0.24,-0.69,0.21,0.5,29.3,-54.87,0.06,-0.61,-28.03,1.23,-2.78,Left Fall while Sitting
27:46.4,0,450,675,1002,371,1.76,569.02,1.81,101.16,375,126,125.8,125,15825,15876,126,0.81,0.5,0.21,0.55,-0.36,-1.32,30.25,-54.58,0.19,-0.9,-28.09,1.4,-3.05,Left Fall while Sitting
27:46.5,64,440,660,1002,372,1.75,571.43,1.82,101.16,375,126,125.8,125,15825,31752,252,0.83,0.51,0.2,0.28,-0.98,-0.27,30.3,-54.83,0.3,-1.27,-28.03,1.5,-3.41,Left Fall while Sitting
27:46.6,130,433,649.5,1002,372,1.75,571.43,1.82,101.16,375,127,125.8,125,15825,47881,379,0.82,0.51,0.22,0.33,4.12,8.56,30.59,-54.17,0.41,-1.01,-26.86,1.62,-3.13,Left Fall while Sitting
27:46.8,87,425,637.5,1002,374,1.74,576.27,1.83,101.16,375,127,125.8,125,15825,64010,506,0.8,0.51,0.19,-5.27,-4.23,2.65,31.24,-54.23,-0.17,-1.77,-26.44,1.09,-3.87,Left Fall while Sitting
27:46.9,114,418,627,1002,376,1.72,581.14,1.84,101.16,375,127,125.8,125,15825,80139,633,0.86,0.47,0.26,0.75,1.76,14.24,26.95,-56.62,-0.01,-1.8,-24.57,1.07,-4,Left Fall while Sitting
27:47.0,162,412,618,1002,374,1.74,576.27,1.83,101.16,375,128,125.8,125,15825,96523,761,0.84,0.46,0.2,-0.24,2.44,12.39,27.55,-57.58,0.03,-1.75,-22.93,1.13,-3.98,Left Fall while Sitting
27:47.1,28,404,606,1002,375,1.73,578.7,1.83,101.16,375,126,125.8,125,15825,112399,887,0.88,0.45,0.2,-1.7,-8.77,6.44,25.77,-59.38,-0.11,-3.08,-22.03,0.93,-5.33,Left Fall while Sitting
27:47.3,33,396,594,1002,376,1.72,581.14,1.84,101.16,375,127,125.8,125,15825,128528,1014,0.86,0.41,0.17,2.35,4.64,13.08,24.55,-61.05,0.26,-2.75,-20.3,1.23,-5.08,Left Fall while Sitting
27:47.4,108,390,585,1002,376,1.72,581.14,1.84,101.16,375,129,125.8,125,15825,145169,1143,0.93,0.37,0.19,-0.1,14.3,15.53,20.72,-64.19,0.31,-1.22,-18.26,1.13,-3.73,Left Fall while Sitting
27:47.5,139,385,577.5,1002,372,1.75,571.43,1.82,93.04,373,127,127,127,16128,0,0,0.9,0.3,0.23,-3.76,5.61,16.65,17.33,-65.63,-0.08,-0.77,-16.11,0.62,-3.37,Left Fall while Sitting
27:47.6,219,381,571.5,1002,372,1.75,571.43,1.82,93.04,373,126,127,127,16128,15876,126,0.92,0.26,0.24,1.67,4.41,25.56,14.7,-67.52,0.2,-0.47,-12.82,0.78,-3.15,Left Fall while Sitting
27:47.8,141,377,565.5,1002,372,1.75,571.43,1.82,93.04,373,127,127,127,16128,32005,253,0.94,0.25,0.2,2.85,0.69,26.44,13.85,-69.57,0.62,-0.63,-9.44,1.15,-3.39,Left Fall while Sitting
27:47.9,73,371,556.5,1002,374,1.74,576.27,1.83,93.04,373,126,127,127,16128,47881,379,0.96,0.2,0.19,1.59,-0.26,25.01,10.77,-72.51,0.89,-0.91,-6.24,1.28,-3.78,Left Fall while Sitting
27:48.0,60,365,547.5,1002,375,1.73,578.7,1.83,93.04,373,125,127,127,16128,63506,504,0.98,0.15,0.21,-1.36,2.61,27.71,7.83,-73.8,0.79,-0.84,-2.71,1.07,-3.76,Left Fall while Sitting
27:48.1,152,361,541.5,1002,372,1.75,571.43,1.82,93.04,373,126,127,127,16128,79382,630,0.97,0.08,0.24,-5.56,-3.81,19.34,4.06,-73.88,0.17,-1.55,-0.23,0.33,-4.44,Left Fall while Sitting
27:48.3,101,356,534,1002,371,1.76,569.02,1.81,93.04,373,125,127,127,16128,95007,755,0.98,0.04,0.21,-2.46,-1.1,18.38,1.45,-76.07,-0.06,-1.94,2.14,0,-4.9,Left Fall while Sitting
27:48.4,169,353,529.5,1002,372,1.75,571.43,1.82,93.04,373,125,127,127,16128,110632,880,0.98,0,0.21,1.2,1.85,13.53,-0.84,-76.27,0.16,-1.95,3.93,0.12,-4.93,Left Fall while Sitting
27:48.5,56,348,522,1002,374,1.74,576.27,1.83,93.04,373,126,127,127,16128,126508,1006,0.97,-0.03,0.22,2.92,1.33,12.03,-2.23,-75.69,0.59,-2.04,5.52,0.48,-4.98,Left Fall while Sitting
27:48.6,191,345,517.5,1002,375,1.73,578.7,1.83,93.04,373,127,127,127,16128,142637,1133,0.99,-0.06,0.21,0.89,1.81,10.33,-3.88,-75.87,0.77,-2.06,6.9,0.58,-5.01,Left Fall while Sitting
27:48.7,343,345,517.5,1002,372,1.75,571.43,1.82,89.35,372,125,125.8,125,15825,0,0,0.99,-0.06,0.2,-0.68,3.13,3.94,-4.25,-76.52,0.75,-1.92,7.48,0.55,-4.91,Left Fall while Sitting
27:48.9,445,347,520.5,1002,372,1.75,571.43,1.82,89.35,372,126,125.8,125,15825,15876,126,0.95,-0.06,0.19,-7.98,-2.2,1.79,-4.34,-76.22,-0.17,-2.44,7.8,-0.33,-5.39,Left Fall while Sitting
27:52.6,515,515,772.5,515,373,1.74,573.85,1.82,0,0,126,0,0,0,32005,253,0.88,-0.47,0.18,-3.04,3.01,11.44,-28.08,-58.8,-0.32,0.06,2.25,-1.43,-2.29,Right Fall while Sitting
27:52.7,552,533,799.5,552,372,1.75,571.43,1.82,0,0,126,0,0,0,47881,379,0.86,-0.47,0.19,-2.31,7.89,13.02,-28.78,-57.93,-0.53,0.78,3.93,-1.66,-1.57,Right Fall while Sitting
27:52.8,491,519,778.5,552,372,1.75,571.43,1.82,0,0,123,0,0,0,63010,502,0.88,-0.49,0.18,-3.09,1.43,8.4,-29.39,-57.62,-0.84,0.71,5.06,-1.99,-1.62,Right Fall while Sitting
27:53.0,401,489,733.5,552,371,1.76,569.02,1.81,0,0,127,0,0,0,79139,629,0.81,-0.51,0.2,-0.7,0.01,8.19,-32.16,-54.19,-0.86,0.47,6.16,-2.11,-1.72,Right Fall while Sitting
27:53.1,227,437,655.5,552,371,1.76,569.02,1.81,0,0,127,0,0,0,95268,756,0.82,-0.54,0.18,-2.47,0.4,9.79,-33.16,-53.73,-1.1,0.27,7.46,-2.38,-1.89,Right Fall while Sitting
27:53.2,167,392,588,552,374,1.74,576.27,1.83,0,0,128,0,0,0,111652,884,0.83,-0.56,0.19,-5.57,-1.68,10.81,-33.97,-52.89,-1.7,-0.17,8.87,-2.99,-2.28,Right Fall while Sitting
27:53.3,517,410,615,552,374,1.74,576.27,1.83,0,0,128,0,0,0,128036,1012,0.82,-0.58,0.17,-1.79,2.61,11.59,-35.17,-52.13,-1.85,-0.1,10.39,-3.19,-2.18,Right Fall while Sitting
27:53.4,1002,484,726,1002,372,1.75,571.43,1.82,0,0,126,0,0,0,143912,1138,0.81,-0.59,0.16,-2.78,-0.19,10.4,-36.31,-51.13,-2.13,-0.37,11.77,-3.5,-2.4,Right Fall while Sitting
27:53.6,1002,541,811.5,1002,367,1.79,559.45,1.79,85.97,372,128,126.61,126,16028,0,0,0.79,-0.64,0.17,-2.62,2.66,12.02,-39.07,-48.28,-2.39,-0.29,13.36,-3.85,-2.21,Right Fall while Sitting
27:53.7,1002,587,880.5,1002,365,1.8,554.71,1.78,85.97,372,127,126.61,126,16028,16129,127,0.75,-0.64,0.16,-0.27,2.3,13.86,-40.57,-46.91,-2.35,-0.25,15.2,-3.88,-2.12,Right Fall while Sitting
27:53.8,1002,625,937.5,1002,367,1.79,559.45,1.79,85.97,372,126,126.61,126,16028,32005,253,0.75,-0.67,0.17,1.06,-2.08,8.65,-41.63,-45.79,-2.15,-0.76,16.38,-3.73,-2.56,Right Fall while Sitting
27:53.9,1001,656,984,1002,369,1.77,564.22,1.8,85.97,372,127,126.61,126,16028,48134,380,0.75,-0.68,0.19,-0.05,-2.34,8.02,-41.63,-45.41,-2.08,-1.31,17.48,-3.67,-3.07,Right Fall while Sitting
27:54.1,1002,683,1024.5,1002,367,1.79,559.45,1.79,85.97,372,127,126.61,126,16028,64263,507,0.72,-0.69,0.19,-0.6,3.44,10.85,-43.55,-43.49,-2.09,-1.13,18.93,-3.75,-2.82,Right Fall while Sitting
27:54.2,1002,705,1057.5,1002,366,1.8,557.08,1.79,85.97,372,126,126.61,126,16028,80139,633,0.68,-0.7,0.16,-1.22,4.5,10.63,-45.67,-41.89,-2.17,-0.81,20.37,-3.91,-2.45,Right Fall while Sitting
27:54.3,1002,725,1087.5,1002,367,1.79,559.45,1.79,85.97,372,123,126.61,126,16028,95268,756,0.7,-0.73,0.17,-5.31,1.56,8.98,-45.96,-41.47,-2.77,-0.86,21.59,-4.49,-2.49,Right Fall while Sitting
27:54.4,963,740,1110,1002,372,1.75,571.43,1.82,85.97,372,126,126.61,126,16028,111144,882,0.69,-0.73,0.19,-8.22,-0.18,9.05,-46.15,-40.88,-3.72,-1.14,22.82,-5.42,-2.73,Right Fall while Sitting
27:54.6,1002,755,1132.5,1002,372,1.75,571.43,1.82,85.97,372,124,126.61,126,16028,126520,1006,0.67,-0.75,0.18,-6.92,3.07,6.89,-48.09,-39.21,-4.52,-1,23.78,-6.26,-2.53,Right Fall while Sitting
27:54.7,514,742,1113,1002,371,1.76,569.02,1.81,85.97,372,125,126.61,126,16028,142145,1131,0.65,-0.78,0.14,-5.69,2.45,6.6,-49.9,-37.94,-5.16,-0.95,24.71,-6.95,-2.43,Right Fall while Sitting
27:54.8,1002,756,1134,1002,373,1.74,573.85,1.82,70.87,368,124,125.51,125,15751,0,0,0.62,-0.79,0.13,-7.76,0.13,8.27,-51.85,-36.24,-6.05,-1.18,25.82,-7.88,-2.58,Right Fall while Sitting
27:54.9,608,748,1122,1002,375,1.73,578.7,1.83,70.87,368,127,125.51,125,15751,16129,127,0.62,-0.81,0.12,-4.87,0.12,13.88,-52.84,-35.4,-6.58,-1.41,27.65,-8.43,-2.77,Right Fall while Sitting
27:55.1,1001,760,1140,1002,373,1.74,573.85,1.82,70.87,368,124,125.51,125,15751,31505,251,0.57,-0.82,0.13,-6.17,0.71,12.21,-54.93,-33.09,-7.29,-1.57,29.29,-9.2,-2.84,Right Fall while Sitting
27:55.2,1002,771,1156.5,1002,373,1.74,573.85,1.82,70.87,368,128,125.51,125,15751,47889,379,0.58,-0.83,0.11,-8.22,-1.36,8.79,-55.39,-32.95,-8.25,-1.99,30.49,-10.13,-3.23,Right Fall while Sitting
27:55.3,1001,781,1171.5,1002,374,1.74,576.27,1.83,70.87,368,124,125.51,125,15751,63265,503,0.56,-0.84,0.1,-8.7,-2.9,4.66,-56.53,-31.83,-9.27,-2.61,31.17,-11.16,-3.78,Right Fall while Sitting
27:55.4,1001,790,1185,1002,377,1.71,583.59,1.84,70.87,368,128,125.51,125,15751,79649,631,0.54,-0.88,0.08,-7.6,1.79,6.29,-58.57,-30,-10.15,-2.63,32.06,-12.08,-3.73,Right Fall while Sitting
27:55.6,1002,799,1198.5,1002,373,1.74,573.85,1.82,70.87,368,125,125.51,125,15751,95274,756,0.53,-0.87,0.09,-6.94,7.19,5.38,-58.72,-29.8,-10.95,-1.98,32.83,-12.86,-3.09,Right Fall while Sitting
27:55.7,1002,807,1210.5,1002,372,1.75,571.43,1.82,70.87,368,125,125.51,125,15751,110899,881,0.52,-0.87,0.1,-8.68,4.67,2.82,-59.32,-29.06,-11.97,-1.65,33.28,-13.86,-2.74,Right Fall while Sitting
27:55.8,610,799,1198.5,1002,374,1.74,576.27,1.83,70.87,368,126,125.51,125,15751,126775,1007,0.49,-0.9,0.1,-7.39,2.91,10.09,-61.57,-26.81,-12.83,-1.53,34.66,-14.78,-2.54,Right Fall while Sitting
27:55.9,134,775,1162.5,1002,376,1.72,581.14,1.84,70.87,368,127,125.51,125,15751,142904,1134,0.45,-0.89,0.06,-10.52,3.13,9.42,-63.57,-25.16,-14.08,-1.39,35.94,-16.06,-2.34,Right Fall while Sitting
27:56.1,0,749,1123.5,1002,372,1.75,571.43,1.82,93.44,373,124,125.81,125,15827,0,0,0.47,-0.94,0.04,-9.38,-1.62,4.93,-64.12,-24.78,-15.17,-1.84,36.65,-17.13,-2.76,Right Fall while Sitting
27:56.2,0,724,1086,1002,372,1.75,571.43,1.82,93.44,373,126,125.81,125,15827,15876,126,0.4,-0.92,0.06,-8.15,5.3,4.96,-66.87,-21.88,-16.12,-1.43,37.37,-18.15,-2.24,Right Fall while Sitting
27:56.3,0,700,1050,1002,375,1.73,578.7,1.83,93.44,373,124,125.81,125,15827,31252,250,0.44,-0.92,0.04,-3.21,8.12,9.63,-64.72,-24.19,-16.46,-0.66,38.67,-18.39,-1.6,Right Fall while Sitting
27:56.4,0,678,1017,1002,375,1.73,578.7,1.83,93.44,373,125,125.81,125,15827,46877,375,0.42,-0.94,0.06,-7.08,6.8,0.21,-66.14,-22.61,-17.26,-0.07,38.8,-19.22,-0.97,Right Fall while Sitting
27:56.6,0,658,987,1002,373,1.74,573.85,1.82,93.44,373,127,125.81,125,15827,63006,502,0.39,-0.94,0.01,-7.6,5.79,6.35,-67.84,-21.16,-18.14,0.41,39.68,-20.12,-0.46,Right Fall while Sitting
27:56.7,0,639,958.5,1002,372,1.75,571.43,1.82,93.44,373,125,125.81,125,15827,78631,627,0.38,-0.95,0.02,-3.44,2.59,3.93,-68.95,-20.03,-18.5,0.48,40.27,-20.51,-0.34,Right Fall while Sitting
27:56.8,0,620,930,1002,374,1.74,576.27,1.83,93.44,373,127,125.81,125,15827,94760,754,0.38,-0.95,0,-1.94,-1.01,4.24,-68.55,-20.45,-18.67,0.11,40.9,-20.66,-0.72,Right Fall while Sitting
27:56.9,0,603,904.5,1002,375,1.73,578.7,1.83,93.44,373,125,125.81,125,15827,110385,879,0.37,-0.94,0.02,-3.75,-1.16,-1.56,-68.97,-20,-19.06,-0.29,40.8,-21.06,-1.08,Right Fall while Sitting
27:57.1,0,587,880.5,1002,374,1.74,576.27,1.83,93.44,373,124,125.81,125,15827,125761,1003,0.37,-0.96,0,-3.3,1.92,-3.85,-69.58,-19.42,-19.41,-0.3,40.42,-21.41,-1.06,Right Fall while Sitting
27:57.2,0,571,856.5,1002,374,1.74,576.27,1.83,93.44,373,126,125.81,125,15827,141637,1129,0.36,-0.96,0.01,-1.4,1.98,-5.79,-70.14,-18.86,-19.51,-0.3,39.79,-21.54,-1.04,Right Fall while Sitting
27:57.3,0,557,835.5,1002,375,1.73,578.7,1.83,93.43,373,123,125.2,125,15675,0,0,0.43,-0.94,-0.01,-4.53,1.82,-16.3,-66.14,-22.86,-20,-0.32,37.88,-21.85,-1.22,Right Fall while Sitting
27:57.4,25,543,814.5,1002,377,1.71,583.59,1.84,93.43,373,124,125.2,125,15675,15376,124,0.45,-0.91,0.02,1.3,17.12,-17.26,-64.1,-24.88,-19.77,1.58,35.8,-21.54,0.52,Right Fall while Sitting
27:57.6,1001,554,831,1002,373,1.74,573.85,1.82,93.43,373,126,125.2,125,15675,31252,250,0.47,-0.92,0.02,-4.67,11.39,-26.52,-63.56,-25.41,-20.28,2.76,32.59,-22.01,1.63,Right Fall while Sitting
27:57.7,502,553,829.5,1002,372,1.75,571.43,1.82,93.43,373,123,125.2,125,15675,46381,373,0.53,-0.9,0.04,-4.3,15.46,-35.08,-60.14,-28.74,-20.75,4.44,28.3,-22.32,3.11,Right Fall while Sitting
27:57.8,1002,564,846,1002,374,1.74,576.27,1.83,93.43,373,126,125.2,125,15675,62257,499,0.56,-0.83,0.07,2.76,24.04,-37.14,-56.37,-32.36,-20.33,7.21,23.72,-21.77,5.63,Right Fall while Sitting
27:57.9,1002,574,861,1002,377,1.71,583.59,1.84,93.43,373,126,125.2,125,15675,78133,625,0.64,-0.83,0.08,0.52,16.37,-28.48,-52.64,-36.05,-20.2,9.01,20.26,-21.49,7.21,Right Fall while Sitting
27:58.1,1001,583,874.5,1002,370,1.76,566.62,1.81,93.43,373,124,125.2,125,15675,93509,749,0.7,-0.75,0.06,2.93,10.15,-30.99,-47.55,-41.24,-19.76,10.03,16.48,-20.87,7.98,Right Fall while Sitting
27:58.2,990,592,888,1002,369,1.77,564.22,1.8,93.43,373,123,125.2,125,15675,108638,872,0.73,-0.71,0.1,6.64,9.75,-33.13,-44.36,-44.07,-18.86,11,12.44,-19.88,8.79,Right Fall while Sitting
27:58.3,1002,601,901.5,1002,374,1.74,576.27,1.83,93.43,373,124,125.2,125,15675,124014,996,0.76,-0.64,0.14,6.02,7.56,-34.66,-40.12,-47.81,-18.04,11.69,8.21,-18.92,9.31,Right Fall while Sitting
27:58.5,513,599,898.5,1002,375,1.73,578.7,1.83,93.43,373,124,125.2,125,15675,139390,1120,0.79,-0.6,0.18,1.26,7.53,-32.11,-37.03,-50.04,-17.81,12.38,4.29,-18.58,9.89,Right Fall while Sitting
27:58.6,1001,607,910.5,1002,371,1.76,569.02,1.81,90.63,373,126,124.6,124,15525,0,0,0.84,-0.56,0.21,1.65,9.13,-22.24,-33.43,-52.97,-17.54,13.27,1.63,-18.17,10.62,Right Fall while Sitting
27:58.7,1001,615,922.5,1002,371,1.76,569.02,1.81,90.63,373,126,124.6,124,15525,15876,126,0.84,-0.5,0.21,2.83,11.29,-21.82,-30.72,-55.46,-17.11,14.43,-0.99,-17.66,11.63,Right Fall while Sitting
27:58.8,1002,622,933,1002,374,1.74,576.27,1.83,90.63,373,126,124.6,124,15525,31752,252,0.85,-0.45,0.23,3.59,8.11,-21.95,-27.57,-57.88,-16.59,15.2,-3.66,-17.03,12.28,Right Fall while Sitting
27:59.0,1001,630,945,1002,374,1.74,576.27,1.83,90.63,373,127,124.6,124,15525,47881,379,0.89,-0.43,0.26,6.08,6.67,-14.05,-25.26,-59.01,-15.76,15.78,-5.32,-16.14,12.79,Right Fall while Sitting
27:59.1,1002,637,955.5,1002,371,1.76,569.02,1.81,90.63,373,126,124.6,124,15525,63757,505,0.89,-0.4,0.26,6.21,1.53,-18.05,-24.15,-60.01,-14.91,15.72,-7.48,-15.28,12.7,Right Fall while Sitting
27:59.2,999,643,964.5,1002,372,1.75,571.43,1.82,90.63,373,125,124.6,124,15525,79382,630,0.94,-0.35,0.23,4.77,-3.16,-18.56,-20.4,-64.44,-14.24,15.07,-9.71,-14.49,11.89,Right Fall while Sitting
27:59.3,417,639,958.5,1002,373,1.74,573.85,1.82,90.63,373,127,124.6,124,15525,95511,757,0.9,-0.3,0.27,0.4,0.24,-16.69,-18.59,-64.14,-14.12,14.85,-11.7,-14.3,11.69,Right Fall while Sitting
27:59.5,95,630,945,1002,372,1.75,571.43,1.82,90.63,373,126,124.6,124,15525,111387,883,0.92,-0.28,0.25,-1.65,-1.96,-12.65,-16.82,-66.23,-14.26,14.36,-13.19,-14.36,11.14,Right Fall while Sitting
27:59.6,0,619,928.5,1002,370,1.76,566.62,1.81,90.63,373,123,124.6,124,15525,126516,1006,0.94,-0.27,0.27,-3.05,0.05,-8.11,-16.31,-66.09,-14.57,14.11,-14.11,-14.64,10.91,Right Fall while Sitting
27:59.7,0,608,912,1002,371,1.76,569.02,1.81,90.63,373,126,124.6,124,15525,142392,1132,0.94,-0.25,0.26,-3.4,0.19,-4.52,-15.05,-67.53,-14.93,13.89,-14.57,-14.93,10.63,Right Fall while Sitting
27:59.8,0,598,897,1002,374,1.74,576.27,1.83,86.38,372,128,126,126,15876,0,0,0.94,-0.25,0.27,0.99,1.72,-2.33,-14.95,-67.11,-14.74,13.85,-14.76,-14.74,10.61,Right Fall while Sitting
28:00.0,0,588,882,1002,373,1.74,573.85,1.82,86.38,372,128,126,126,15876,16384,128,0.94,-0.25,0.26,1.56,-0.87,-0.98,-14.84,-67.58,-14.47,13.49,-14.79,-14.49,10.25,Right Fall while Sitting
28:00.1,0,578,867,1002,371,1.76,569.02,1.81,86.38,372,125,126,126,15876,32009,253,0.95,-0.25,0.25,1.29,0.79,0.44,-14.95,-67.88,-14.24,13.34,-14.63,-14.27,10.09,Right Fall while Sitting
28:00.2,0,569,853.5,1002,371,1.76,569.02,1.81,86.38,372,129,126,126,15876,48650,382,0.94,-0.25,0.25,0.56,3.7,0.18,-14.8,-68.03,-14.1,13.55,-14.51,-14.13,10.29,Right Fall while Sitting
28:00.3,0,560,840,1002,373,1.74,573.85,1.82,86.38,372,129,126,126,15876,65291,511,0.92,-0.24,0.26,-1.89,2.13,-0.11,-14.81,-67.42,-14.27,13.57,-14.43,-14.29,10.33,Right Fall while Sitting
28:00.5,0,551,826.5,1002,373,1.74,573.85,1.82,86.38,372,129,126,126,15876,81932,640,0.94,-0.24,0.26,-3.25,0.24,-0.6,-14.59,-67.54,-14.6,13.35,-14.41,-14.6,10.11,Right Fall while Sitting
28:00.6,0,542,813,1002,370,1.76,566.62,1.81,86.38,372,124,126,126,15876,97308,764,0.94,-0.24,0.27,-2.1,1.76,-0.76,-14.61,-67.35,-14.8,13.32,-14.4,-14.79,10.09,Right Fall while Sitting
28:20.3,1002,1002,1503,1002,364,1.81,552.35,1.78,0,0,125,0,0,0,31501,251,0.96,-0.09,0.25,-0.94,0.49,-1.53,-5.72,-73.2,0.04,-0.06,-0.17,-0.19,-2.99,Forward Fall while Sitting
28:20.4,1001,1001,1501.5,1002,362,1.83,547.66,1.77,0,0,125,0,0,0,47126,376,0.97,-0.08,0.24,-2.34,0.02,-0.49,-5.39,-73.92,-0.18,-0.31,-0.13,-0.39,-3.25,Forward Fall while Sitting
28:20.5,1001,1001,1501.5,1002,361,1.83,545.32,1.76,0,0,123,0,0,0,62255,499,0.97,-0.09,0.24,-5.08,-2.21,-0.44,-5.48,-73.52,-0.74,-0.83,-0.09,-0.93,-3.74,Forward Fall while Sitting
28:20.7,1000,1001,1501.5,1002,361,1.83,545.32,1.76,0,0,125,0,0,0,77880,624,0.96,-0.09,0.24,-6.11,-5.7,-0.48,-5.76,-73.52,-1.42,-1.78,-0.05,-1.59,-4.65,Forward Fall while Sitting
28:20.8,1002,1001,1501.5,1002,362,1.83,547.66,1.77,0,0,127,0,0,0,94009,751,0.98,-0.11,0.23,-6.18,-3.83,3.94,-6.9,-73.65,-2.12,-2.5,0.54,-2.31,-5.35,Forward Fall while Sitting
28:20.9,1002,1001,1501.5,1002,365,1.8,554.71,1.78,0,0,128,0,0,0,110393,879,0.98,-0.12,0.25,-8.37,0.63,6.78,-7.45,-72.5,-3.08,-2.67,1.47,-3.25,-5.46,Forward Fall while Sitting
28:21.0,1002,1001,1501.5,1002,366,1.8,557.08,1.79,0,0,127,0,0,0,126522,1006,0.98,-0.14,0.24,-5.79,-4.86,2.81,-8.67,-72.44,-3.72,-3.51,1.91,-3.92,-6.27,Forward Fall while Sitting
28:21.1,1002,1001,1501.5,1002,362,1.83,547.66,1.77,0,0,128,0,0,0,142906,1134,0.96,-0.12,0.2,-4.25,-6.73,-2.96,-7.68,-74.94,-4.18,-4.59,1.64,-4.32,-7.4,Forward Fall while Sitting
28:21.3,1002,1001,1501.5,1002,363,1.82,550,1.77,25.02,362,126,126.01,126,15877,0,0,0.96,-0.13,0.17,-4.04,-7.86,-1.56,-8.27,-75.99,-4.61,-5.81,1.55,-4.75,-8.62,Forward Fall while Sitting
28:21.4,1001,1001,1501.5,1002,364,1.81,552.35,1.78,25.02,362,127,126.01,126,15877,16129,127,0.96,-0.16,0.18,-2.33,-2.64,2.31,-9.57,-74.78,-4.83,-6.39,1.94,-5.02,-9.13,Forward Fall while Sitting
28:21.5,1003,1001,1501.5,1003,365,1.8,554.71,1.78,25.02,362,127,126.01,126,15877,32258,254,1,-0.14,0.19,-4.69,-4.5,-2.63,-8.61,-74.77,-5.35,-7.21,1.71,-5.48,-9.91,Forward Fall while Sitting
28:21.6,1002,1001,1501.5,1003,365,1.8,554.71,1.78,25.02,362,128,126.01,126,15877,48642,382,0.99,-0.13,0.17,-3.17,-11.12,-6.14,-8.18,-76.19,-5.67,-8.85,1.04,-5.77,-11.54,Forward Fall while Sitting
28:21.8,1002,1001,1501.5,1003,363,1.82,550,1.77,25.02,362,127,126.01,126,15877,64771,509,0.98,-0.13,0.14,-4.89,-6.08,-1.76,-8.12,-77.55,-6.21,-9.86,0.92,-6.29,-12.57,Forward Fall while Sitting
28:21.9,1002,1001,1501.5,1003,364,1.81,552.35,1.78,25.02,362,128,126.01,126,15877,81155,637,0.99,-0.13,0.12,-9.19,-10.56,-0.96,-7.81,-78.32,-7.3,-11.44,0.9,-7.32,-14.12,Forward Fall while Sitting
28:22.0,1003,1001,1501.5,1003,367,1.79,559.45,1.79,25.02,362,127,126.01,126,15877,97284,764,0.99,-0.15,0.1,-4.49,-7.89,5.7,-9.33,-78.06,-7.79,-12.68,1.71,-7.85,-15.29,Forward Fall while Sitting
28:22.1,1001,1001,1501.5,1003,364,1.81,552.35,1.78,25.02,362,127,126.01,126,15877,113413,891,1.01,-0.16,0.07,-5.86,-7.73,1.4,-9.69,-78.39,-8.46,-13.9,1.98,-8.51,-16.48,Forward Fall while Sitting
28:22.3,1003,1001,1501.5,1003,363,1.82,550,1.77,25.02,362,127,126.01,126,15877,129542,1018,0.98,-0.18,0.07,-4.26,-6.72,0.97,-10.79,-77.32,-8.93,-15,2.21,-9,-17.49,Forward Fall while Sitting
28:22.4,1001,1001,1501.5,1003,367,1.79,559.45,1.79,25.02,362,127,126.01,126,15877,145671,1145,1.01,-0.17,0.05,-1.68,-4.59,0.1,-9.85,-78.78,-9.07,-15.82,2.32,-9.1,-18.34,Forward Fall while Sitting
28:22.5,1002,1001,1501.5,1003,368,1.78,561.83,1.8,46.42,365,128,127.3,127,16204,0,0,1.02,-0.18,0.06,1.41,-1.15,3.94,-10.72,-77.76,-8.82,-16.22,2.91,-8.9,-18.68,Forward Fall while Sitting
28:22.6,494,976,1464,1003,369,1.77,564.22,1.8,46.42,365,129,127.3,127,16204,16641,129,1.02,-0.19,0.04,-1.11,-4.53,-2.94,-11.24,-77.55,-8.89,-17.03,2.64,-8.98,-19.45,Forward Fall while Sitting
28:22.8,1000,977,1465.5,1003,370,1.76,566.62,1.81,46.42,365,128,127.3,127,16204,33025,257,1.03,-0.17,0.02,0.47,-1.4,-4.82,-9.91,-79,-8.76,-17.46,2.14,-8.81,-19.92,Forward Fall while Sitting
28:22.9,516,956,1434,1003,375,1.73,578.7,1.83,46.42,365,131,127.3,127,16204,50186,388,1,-0.19,0.02,2.73,11.37,0.98,-11.29,-77.64,-8.35,-16.3,2.36,-8.47,-18.75,Forward Fall while Sitting
28:23.0,509,937,1405.5,1003,375,1.73,578.7,1.83,46.42,365,131,127.3,127,16204,67347,519,0.98,-0.19,0.04,2.21,3.45,1.62,-11.26,-77.52,-8.01,-16.11,2.66,-8.14,-18.57,Forward Fall while Sitting
28:23.2,1003,939,1408.5,1003,375,1.73,578.7,1.83,46.42,365,129,127.3,127,16204,83988,648,1.02,-0.19,0.08,-4.02,-11.5,-5.31,-10.93,-77.24,-8.44,-17.8,2.09,-8.54,-20.18,Forward Fall while Sitting
28:23.3,463,920,1380,1003,373,1.74,573.85,1.82,46.42,365,132,127.3,127,16204,101412,780,0.98,-0.16,0.04,0.73,0.77,-4.15,-9.92,-78.82,-8.28,-17.96,1.67,-8.34,-20.39,Forward Fall while Sitting
28:23.4,498,904,1356,1003,377,1.71,583.59,1.84,46.42,365,131,127.3,127,16204,118573,911,1,-0.16,0.06,14.05,-0.97,-4.05,-9.44,-78.85,-6.45,-18.33,1.26,-6.57,-20.75,Forward Fall while Sitting
28:23.5,1000,908,1362,1003,376,1.72,581.14,1.84,46.42,365,129,127.3,127,16204,135214,1040,0.99,-0.14,0.05,-1.58,-8.02,-6.71,-8.44,-80.14,-6.58,-19.59,0.51,-6.65,-22.01,Forward Fall while Sitting
28:23.7,1001,911,1366.5,1003,374,1.74,576.27,1.83,46.42,365,129,127.3,127,16204,151855,1169,1.05,-0.13,0.03,-2.31,8.31,0.48,-7.81,-81.04,-6.8,-18.79,0.67,-6.84,-21.28,Forward Fall while Sitting
28:23.8,1003,914,1371,1003,376,1.72,581.14,1.84,93.86,374,129,129.8,129,16848,0,0,1.01,-0.16,0.06,-3.24,5.59,-7.68,-9.32,-78.95,-7.13,-18.35,-0.18,-7.22,-20.77,Forward Fall while Sitting
28:23.9,1001,917,1375.5,1003,378,1.71,586.05,1.85,93.86,374,133,129.8,129,16848,17689,133,1.01,-0.15,0.06,-3.58,0.06,-5.35,-8.81,-79.61,-7.51,-18.59,-0.75,-7.56,-21.03,Forward Fall while Sitting
28:24.0,1001,920,1380,1003,373,1.74,573.85,1.82,93.86,374,128,129.8,129,16848,34073,261,1.01,-0.14,0.03,-1.85,-0.34,-4.3,-8.24,-80.61,-7.67,-18.88,-1.19,-7.69,-21.35,Forward Fall while Sitting
28:24.2,494,906,1359,1003,371,1.76,569.02,1.81,93.86,374,131,129.8,129,16848,51234,392,0.99,-0.12,0.04,-1.69,-2.33,-0.62,-7.68,-80.96,-7.81,-19.43,-1.17,-7.81,-21.89,Forward Fall while Sitting
28:24.3,1002,909,1363.5,1003,372,1.75,571.43,1.82,93.86,374,130,129.8,129,16848,68134,522,1.01,-0.12,0.05,-5.46,-4.98,-1.45,-7.63,-80.87,-8.42,-20.3,-1.25,-8.39,-22.72,Forward Fall while Sitting
28:24.4,1002,912,1368,1003,375,1.73,578.7,1.83,93.86,374,130,129.8,129,16848,85034,652,1.01,-0.12,0.05,-1.42,0.11,-2.37,-7.37,-81.08,-8.53,-20.54,-1.45,-8.49,-22.96,Forward Fall while Sitting
28:24.5,525,901,1351.5,1003,371,1.76,569.02,1.81,93.86,374,132,129.8,129,16848,102458,784,1,-0.11,0.03,-2.05,-3.75,-2.54,-6.63,-82.1,-8.72,-21.26,-1.67,-8.64,-23.69,Forward Fall while Sitting
28:24.7,0,876,1314,1003,372,1.75,571.43,1.82,93.86,374,129,129.8,129,16848,119099,913,1.03,-0.11,0.02,-0.7,-0.3,-1.75,-6.71,-82.21,-8.74,-21.54,-1.79,-8.66,-23.97,Forward Fall while Sitting
28:24.8,265,859,1288.5,1003,377,1.71,583.59,1.84,93.86,374,131,129.8,129,16848,136260,1044,1.01,-0.12,-0.02,-2.77,0.38,-1.5,-7.3,-81.61,-9.01,-21.75,-1.88,-8.94,-24.14,Forward Fall while Sitting
28:24.9,1003,863,1294.5,1003,376,1.72,581.14,1.84,93.86,374,130,129.8,129,16848,153160,1174,1.03,-0.11,0.01,-1.26,2.85,0.39,-6.84,-82.15,-9.1,-21.64,-1.73,-9.01,-24.06,Forward Fall while Sitting
28:25.0,988,866,1299,1003,374,1.74,576.27,1.83,93.46,373,131,130.51,130,17031,0,0,1.04,-0.12,0.01,-2.69,6.26,-3.08,-7.09,-81.88,-9.36,-21.11,-2.01,-9.27,-23.54,Forward Fall while Sitting
28:25.2,1001,870,1305,1003,375,1.73,578.7,1.83,93.46,373,132,130.51,130,17031,17424,132,1,-0.13,0.01,-0.44,9.62,1.73,-8.05,-80.94,-9.35,-20.16,-1.7,-9.3,-22.59,Forward Fall while Sitting
28:25.3,515,861,1291.5,1003,378,1.71,586.05,1.85,93.46,373,132,130.51,130,17031,34848,264,1.03,-0.11,0.04,-7.27,0.56,-3.2,-6.61,-81.99,-10.19,-20.34,-2,-10.04,-22.81,Forward Fall while Sitting
28:25.4,999,864,1296,1003,376,1.72,581.14,1.84,93.46,373,132,130.51,130,17031,52272,396,1.01,-0.14,0.04,-8.13,0.44,-0.43,-8.19,-80.52,-11.14,-20.54,-1.95,-11.02,-22.94,Forward Fall while Sitting
28:25.5,1002,867,1300.5,1003,374,1.74,576.27,1.83,93.46,373,130,130.51,130,17031,69172,526,1.03,-0.12,0.07,0.27,11.03,0.59,-7.44,-80.61,-11.04,-19.4,-1.78,-10.89,-21.85,Forward Fall while Sitting
28:25.7,1000,870,1305,1003,375,1.73,578.7,1.83,93.46,373,130,130.51,130,17031,86072,656,0.99,-0.13,0.07,3.88,9.82,5,-8.11,-79.95,-10.48,-18.42,-1.06,-10.39,-20.88,Forward Fall while Sitting
28:25.8,1001,873,1309.5,1003,375,1.73,578.7,1.83,93.46,373,131,130.51,130,17031,103233,787,0.98,-0.13,0.08,1.56,7.68,5.65,-7.86,-79.76,-10.22,-17.71,-0.24,-10.12,-20.19,Forward Fall while Sitting
28:25.9,1002,876,1314,1003,369,1.77,564.22,1.8,93.46,373,129,130.51,130,17031,119874,916,1,-0.13,0.08,-6.24,-6.7,2.16,-7.8,-79.84,-10.93,-18.79,0.12,-10.8,-21.23,Forward Fall while Sitting
28:26.0,1001,879,1318.5,1003,367,1.79,559.45,1.79,93.46,373,130,130.51,130,17031,136774,1046,1,-0.14,0.1,-7.01,-19.18,-7.11,-8.31,-78.66,-11.74,-21.46,-0.67,-11.6,-23.75,Forward Fall while Sitting
