Datetime, ECGR , AvgECG , ampECG , MAX , GSRR , Resistance , GSR(kohm) , SCL , GSRRMS , GSRMAV , EMGR , EMGRMS , EMGMAV , EMGVAR , EMGSSI , IEMG , AccX , AccY, AccZ , GyroX , GyroY , GyroZ , Aroll , Apitch , Groll , Gpitch, Gy , Combroll , Combpitch,Features
00:56.1,531,531,796.5,531,302,2.39,418.86,1.48,0,0,130,0,0,0,34061,261,1.01,0.09,0.03,-3.73,3.31,-2.97,4.34,-83.17,-0.61,0.23,-0.42,-0.42,-3.11,Standing
00:56.2,676,603,904.5,676,302,2.39,418.86,1.48,0,0,130,0,0,0,50961,391,1.01,0.1,0.01,-2.96,-2.32,-0.78,4.84,-82.98,-0.91,-0.3,-0.42,-0.68,-3.61,Standing
00:56.3,822,676,1014,822,303,2.38,420.83,1.48,0,0,131,0,0,0,68122,522,1,0.09,0.01,-0.72,0.58,-1.06,4.7,-83.11,-0.93,-0.47,-0.45,-0.7,-3.78,Standing
00:56.4,689,679,1018.5,822,304,2.37,422.81,1.49,0,0,131,0,0,0,85283,653,1.01,0.09,0.02,-2.31,-1.23,0.18,4.48,-83.29,-1.14,-0.87,-0.34,-0.92,-4.17,Standing
00:56.6,449,633,949.5,822,305,2.35,424.79,1.49,0,0,130,0,0,0,102183,783,1.01,0.08,0.01,-2.72,0.8,-0.01,3.84,-83.98,-1.41,-1.02,-0.24,-1.2,-4.34,Standing
00:56.7,319,581,871.5,822,306,2.34,426.78,1.5,0,0,130,0,0,0,119083,913,1.01,0.09,0.02,-3.15,1.91,-2.69,4.25,-83.49,-1.72,-1.03,-0.47,-1.48,-4.33,Standing
00:56.8,241,532,798,822,307,2.33,428.77,1.5,0,0,130,0,0,0,135983,1043,1.01,0.09,0.02,-2.63,-0.18,-0.98,4.5,-83.17,-1.97,-1.3,-0.49,-1.72,-4.57,Standing
00:56.9,391,514,771,822,307,2.33,428.77,1.5,0,0,131,0,0,0,153144,1174,1.01,0.08,0.02,-0.66,0.22,0.44,3.98,-83.74,-1.99,-1.52,-0.34,-1.75,-4.81,Standing
00:57.0,628,527,790.5,822,307,2.33,428.77,1.5,164.89,304,132,130.6,130,17055,0,0,1.01,0.08,0,-1.06,0.16,-1.07,3.84,-84,-2.05,-1.74,-0.38,-1.81,-5.03,Standing
00:57.2,862,560,840,862,308,2.32,430.77,1.51,164.89,304,132,130.6,130,17055,17424,132,1.01,0.08,0,-2.66,1.89,-0.55,3.81,-84.03,-2.31,-1.76,-0.35,-2.06,-5.05,Standing
00:57.3,564,561,841.5,862,308,2.32,430.77,1.51,164.89,304,132,130.6,130,17055,34848,264,1.01,0.08,0.01,-2.59,3.22,-1.65,3.75,-84.01,-2.56,-1.6,-0.45,-2.31,-4.9,Standing
00:57.4,341,542,813,862,309,2.31,432.77,1.51,164.89,304,132,130.6,130,17055,52272,396,1.01,0.09,0.02,-1.98,-0.21,-2.14,4.61,-83.16,-2.74,-1.88,-0.62,-2.45,-5.13,Standing
00:57.5,783,561,841.5,862,309,2.31,432.77,1.51,164.89,304,131,130.6,130,17055,69433,527,1,0.09,-0.01,-1.42,-0.42,-0.78,4.74,-83.06,-2.85,-2.18,-0.62,-2.54,-5.42,Standing
00:57.7,783,577,865.5,862,309,2.31,432.77,1.51,164.89,304,132,130.6,130,17055,86857,659,1.01,0.08,0,-2.18,1.57,-0.83,4.06,-83.78,-3.05,-2.23,-0.62,-2.76,-5.5,Standing
00:57.8,597,578,867,862,310,2.3,434.78,1.52,164.89,304,132,130.6,130,17055,104281,791,0.98,0.09,0.04,-2.19,3.18,-2.18,4.46,-82.82,-3.25,-2.09,-0.8,-2.94,-5.32,Standing
00:57.9,296,560,840,862,311,2.29,436.8,1.52,164.89,304,133,130.6,130,17055,121970,924,1.02,0.09,0.02,-2.05,1.07,-0.89,4.48,-83.23,-3.44,-2.2,-0.81,-3.12,-5.44,Standing
00:58.0,375,549,823.5,862,311,2.29,436.8,1.52,164.89,304,132,130.6,130,17055,139394,1056,1,0.09,0,-2.63,0.11,-1.22,4.44,-83.4,-3.69,-2.43,-0.86,-3.37,-5.67,Standing
00:58.2,752,561,841.5,862,312,2.28,438.82,1.52,164.89,304,133,130.6,130,17055,157083,1189,1.01,0.08,0.01,-1.36,2.04,-2.55,4.13,-83.64,-3.79,-2.43,-1.08,-3.47,-5.68,Standing
00:58.3,768,571,856.5,862,313,2.27,440.85,1.53,174.83,310,133,132.2,132,17476,0,0,1,0.08,0.02,-1.04,-0.23,-1.57,4.21,-83.55,-3.85,-2.71,-1.18,-3.53,-5.94,Standing
00:58.4,296,558,837,862,313,2.27,440.85,1.53,174.83,310,132,132.2,132,17476,17424,132,1.01,0.08,0,-2.08,1.81,-1.2,4.11,-83.73,-4.04,-2.73,-1.23,-3.71,-5.97,Standing
00:58.5,348,548,822,862,313,2.27,440.85,1.53,174.83,310,132,132.2,132,17476,34848,264,1.01,0.08,0.01,-2.33,0.72,-2.24,4.13,-83.69,-4.26,-2.89,-1.41,-3.92,-6.12,Standing
00:58.7,602,550,825,862,313,2.27,440.85,1.53,174.83,310,133,132.2,132,17476,52537,397,0.99,0.1,0.02,-0.89,1.73,-1.02,4.89,-82.88,-4.3,-2.92,-1.44,-3.93,-6.12,Standing
00:58.8,664,555,832.5,862,313,2.27,440.85,1.53,174.83,310,133,132.2,132,17476,70226,530,1.02,0.09,0,-2.09,0.58,0.34,4.26,-83.57,-4.49,-3.1,-1.3,-4.14,-6.32,Standing
00:58.9,312,545,817.5,862,313,2.27,440.85,1.53,174.83,310,133,132.2,132,17476,87915,663,1.01,0.09,0.01,-2.6,1.26,-2.5,4.36,-83.46,-4.74,-3.19,-1.51,-4.38,-6.4,Standing
00:59.0,459,541,811.5,862,311,2.29,436.8,1.52,174.83,310,133,132.2,132,17476,105604,796,1,0.09,0.01,-2.11,0.45,-2.47,4.57,-83.26,-4.94,-3.39,-1.72,-4.56,-6.58,Standing
00:59.2,359,534,801,862,309,2.31,432.77,1.51,174.83,310,132,132.2,132,17476,123028,928,1.01,0.09,0,-2.11,1.28,-0.03,4.42,-83.41,-5.13,-3.47,-1.63,-4.75,-6.67,Standing
00:59.3,744,542,813,862,308,2.32,430.77,1.51,174.83,310,132,132.2,132,17476,140452,1060,1.01,0.08,0.01,-2.27,-0.25,-0.73,4.2,-83.6,-5.34,-3.76,-1.62,-4.96,-6.95,Standing
00:59.4,361,536,804,862,306,2.34,426.78,1.5,174.83,310,131,132.2,132,17476,157613,1191,1.02,0.09,0,-0.91,0.92,-2.01,4.62,-83.22,-5.39,-3.89,-1.77,-4.99,-7.06,Standing
00:59.5,165,523,784.5,862,305,2.35,424.79,1.49,175.56,310,132,132.3,132,17502,0,0,1.01,0.1,0,-2.65,0.84,-2.18,4.83,-83.01,-5.64,-4.03,-1.94,-5.22,-7.19,Standing
00:59.7,358,517,775.5,862,304,2.37,422.81,1.49,175.56,310,132,132.3,132,17502,17424,132,1,0.1,0,-3.19,2.2,-1.42,4.99,-82.85,-5.97,-4.01,-2.02,-5.53,-7.16,Standing
00:59.8,734,524,786,862,304,2.37,422.81,1.49,175.56,310,132,132.3,132,17502,34848,264,1.01,0.08,0.03,-3.29,1.48,-1.09,4.05,-83.57,-6.31,-4.07,-2.06,-5.89,-7.25,Standing
00:59.9,710,530,795,862,304,2.37,422.81,1.49,175.56,310,133,132.3,132,17502,52537,397,1.01,0.1,0.01,-1.74,-0.82,-0.95,4.91,-82.87,-6.46,-4.42,-2.08,-6,-7.56,Standing
01:00.0,347,525,787.5,862,304,2.37,422.81,1.49,175.56,310,133,132.3,132,17502,70226,530,1.01,0.09,0.01,-0.54,0.27,-0.83,4.41,-83.37,-6.45,-4.64,-2.08,-6.02,-7.79,Standing
01:00.1,368,520,780,862,304,2.37,422.81,1.49,175.56,310,133,132.3,132,17502,87915,663,1.02,0.09,0,-1.6,0.11,-0.5,4.42,-83.42,-6.58,-4.87,-2.05,-6.14,-8.02,Standing
01:00.3,686,525,787.5,862,304,2.37,422.81,1.49,175.56,310,133,132.3,132,17502,105604,796,1.01,0.08,0,-2.12,1.03,-1.84,4.2,-83.64,-6.78,-4.99,-2.18,-6.34,-8.14,Standing
01:00.4,750,531,796.5,862,305,2.35,424.79,1.49,175.56,310,133,132.3,132,17502,123293,929,1.01,0.09,0.01,-2.39,1.66,-2.07,4.36,-83.42,-7,-5.04,-2.34,-6.55,-8.17,Standing
01:00.5,358,526,789,862,306,2.34,426.78,1.5,175.56,310,134,132.3,132,17502,141249,1063,1,0.09,0,-2.36,0.11,-1.15,4.65,-83.18,-7.23,-5.27,-2.38,-6.75,-8.39,Standing
01:00.6,350,522,783,862,306,2.34,426.78,1.5,175.56,310,133,132.3,132,17502,158938,1196,1.01,0.09,0.01,-0.52,3.47,-1.45,4.36,-83.44,-7.22,-5.09,-2.46,-6.76,-8.22,Standing
01:00.8,673,525,787.5,862,307,2.33,428.77,1.5,165.43,304,133,132.9,132,17661,0,0,1.01,0.09,0,-1.52,-1.74,-0.94,4.52,-83.31,-7.34,-5.55,-2.48,-6.87,-8.66,Standing
01:00.9,797,532,798,862,308,2.32,430.77,1.51,165.43,304,135,132.9,132,17661,18225,135,1.01,0.09,0,-1.42,0.48,-1.57,4.54,-83.29,-7.45,-5.74,-2.58,-6.97,-8.84,Standing
01:01.0,443,530,795,862,309,2.31,432.77,1.51,165.43,304,136,132.9,132,17661,36721,271,1.01,0.09,0,-1.69,0.3,-0.63,4.56,-83.27,-7.59,-5.95,-2.56,-7.1,-9.04,Standing
01:01.1,280,524,786,862,310,2.3,434.78,1.52,165.43,304,137,132.9,132,17661,55490,408,1.01,0.09,0,-2.76,2.98,-0.46,4.24,-83.59,-7.86,-5.83,-2.52,-7.38,-8.94,Standing
01:01.3,500,523,784.5,862,310,2.3,434.78,1.52,165.43,304,136,132.9,132,17661,73986,544,1.02,0.09,0.01,-3.09,2.88,-2.34,4.42,-83.41,-8.18,-5.72,-2.71,-7.67,-8.83,Standing
01:01.4,757,529,793.5,862,310,2.3,434.78,1.52,165.43,304,137,132.9,132,17661,92755,681,1,0.1,0.02,-1.11,0.86,-1.76,5.37,-82.31,-8.25,-5.86,-2.83,-7.7,-8.92,Standing
01:01.5,610,531,796.5,862,311,2.29,436.8,1.52,165.43,304,138,132.9,132,17661,111799,819,1.01,0.09,0,-0.18,-3.07,1.31,4.67,-83.17,-8.2,-6.49,-2.57,-7.68,-9.56,Standing
01:01.6,315,526,789,862,310,2.3,434.78,1.52,165.43,304,138,132.9,132,17661,130843,957,1.02,0.08,-0.03,-1.02,-1.28,0.11,3.77,-83.81,-8.26,-6.9,-2.46,-7.78,-9.98,Standing
01:01.8,388,523,784.5,862,310,2.3,434.78,1.52,165.43,304,138,132.9,132,17661,149887,1095,1.03,0.08,-0.03,-3.26,0.83,-2.11,3.97,-83.6,-8.59,-7.05,-2.62,-8.09,-10.11,Standing
01:01.9,728,527,790.5,862,310,2.3,434.78,1.52,165.43,304,139,132.9,132,17661,169208,1234,1.01,0.09,0,-4.15,5.47,-3.47,4.49,-83.34,-9.04,-6.61,-2.96,-8.5,-9.68,Standing
01:02.0,534,527,790.5,862,310,2.3,434.78,1.52,174.47,309,139,137.3,137,18851,0,0,1,0.1,0.02,-3.78,1.34,-2.15,5.14,-82.59,-9.44,-6.7,-3.13,-8.85,-9.73,Standing
01:02.1,235,521,781.5,862,310,2.3,434.78,1.52,174.47,309,140,137.3,137,18851,19600,140,1.01,0.09,0.02,-1.15,2.08,-0.85,4.3,-83.46,-9.51,-6.68,-3.13,-8.96,-9.76,Standing
01:02.3,279,517,775.5,862,310,2.3,434.78,1.52,174.47,309,140,137.3,137,18851,39200,280,1,0.09,0.02,-1.97,-1.35,-0.15,4.79,-82.95,-9.69,-7.1,-3.05,-9.11,-10.13,Standing
01:02.4,647,519,778.5,862,310,2.3,434.78,1.52,174.47,309,139,137.3,137,18851,58521,419,1.01,0.09,-0.01,-0.71,0.15,1.1,4.38,-83.43,-9.71,-7.33,-2.82,-9.14,-10.37,Standing
01:02.5,755,524,786,862,311,2.29,436.8,1.52,174.47,309,140,137.3,137,18851,78121,559,1.02,0.08,0.01,-2.62,2.66,-1.17,3.85,-83.96,-9.96,-7.25,-2.87,-9.41,-10.32,Standing
01:02.6,382,521,781.5,862,310,2.3,434.78,1.52,174.47,309,140,137.3,137,18851,97721,699,1,0.09,0.01,-3.34,3.45,-3.71,4.51,-83.33,-10.31,-7.07,-3.23,-9.71,-10.12,Standing
01:02.8,342,518,777,862,311,2.29,436.8,1.52,174.47,309,139,137.3,137,18851,117042,838,1,0.1,0.01,-1.64,2.72,-2.12,5.26,-82.54,-10.44,-6.98,-3.4,-9.81,-10,Standing
01:02.9,636,520,780,862,311,2.29,436.8,1.52,174.47,309,140,137.3,137,18851,136642,978,1,0.09,0.02,-1.39,-1.57,-0.06,4.57,-83.18,-10.55,-7.42,-3.31,-9.94,-10.45,Standing
01:03.0,641,522,783,862,312,2.28,438.82,1.52,174.47,309,141,137.3,137,18851,156523,1119,1.01,0.09,-0.01,-0.89,-0.37,-0.4,4.31,-83.51,-10.59,-7.72,-3.26,-9.99,-10.75,Standing
01:03.1,239,517,775.5,862,312,2.28,438.82,1.52,174.47,309,141,137.3,137,18851,176404,1260,1.02,0.08,-0.01,-2.61,-0.68,-1.18,4.18,-83.64,-10.84,-8.06,-3.31,-10.24,-11.08,Standing
01:03.3,387,515,772.5,862,313,2.27,440.85,1.53,176.6,311,141,140.1,140,19627,0,0,1.02,0.09,0,-2.53,3.53,-3.27,4.46,-83.38,-11.09,-7.87,-3.61,-10.47,-10.89,Standing
01:03.4,669,517,775.5,862,313,2.27,440.85,1.53,176.6,311,142,140.1,140,19627,20164,142,1.01,0.1,0.01,-2.44,1.45,-1.76,5.2,-82.59,-11.32,-7.93,-3.74,-10.66,-10.92,Standing
01:03.5,569,518,777,862,314,2.26,442.88,1.53,176.6,311,143,140.1,140,19627,40613,285,1.01,0.09,0.02,-1.75,0.31,-0.22,4.68,-83.09,-11.47,-8.15,-3.66,-10.83,-11.14,Standing
01:03.6,250,514,771,862,315,2.25,444.92,1.54,176.6,311,143,140.1,140,19627,61062,428,1.01,0.09,0.02,-1,-0.11,-0.5,4.44,-83.32,-11.53,-8.41,-3.63,-10.89,-11.41,Standing
01:03.8,384,512,768,862,315,2.25,444.92,1.54,176.6,311,143,140.1,140,19627,81511,571,1.02,0.09,0,-1.6,1.01,-2.83,4.67,-83.16,-11.66,-8.53,-3.88,-11,-11.52,Standing
01:03.9,784,516,774,862,316,2.24,446.96,1.54,176.6,311,145,140.1,140,19627,102536,716,0.99,0.11,-0.02,-3.18,-1.44,0.02,5.8,-81.91,-11.98,-8.96,-3.78,-11.27,-11.88,Standing
01:04.0,618,518,777,862,317,2.23,449.01,1.55,176.6,311,146,140.1,140,19627,123852,862,1.02,0.09,0,-2.58,1.44,0.4,4.27,-83.57,-12.24,-9.03,-3.63,-11.58,-12.01,Standing
01:04.1,285,514,771,862,319,2.21,453.13,1.56,176.6,311,147,140.1,140,19627,145461,1009,1.02,0.09,0.01,-2.59,3.31,-1.27,4.29,-83.54,-12.49,-8.87,-3.69,-11.82,-11.86,Standing
01:04.3,471,513,769.5,862,319,2.21,453.13,1.56,176.6,311,149,140.1,140,19627,167662,1158,1,0.1,0.02,-2.9,1.91,-2.13,5.01,-82.74,-12.78,-8.88,-3.86,-12.07,-11.83,Standing
01:04.4,850,518,777,862,320,2.2,455.19,1.56,176.6,311,147,140.1,140,19627,189271,1305,1.01,0.1,0.01,-2,0.91,-0.5,5.36,-82.45,-12.96,-9.02,-3.83,-12.23,-11.95,Standing
01:04.5,424,517,775.5,862,320,2.2,455.19,1.56,20723.72,316,148,145.32,145,21116,0,0,1.01,0.09,0,-1.62,-2.88,-0.21,4.64,-83.2,-13.09,-9.62,-3.75,-12.38,-12.56,Standing
01:04.6,232,513,769.5,862,320,2.2,455.19,1.56,20723.72,316,148,145.32,145,21116,21904,148,1.01,0.09,-0.01,-0.44,1.44,-0.69,4.7,-83.11,-13.08,-9.69,-3.74,-12.37,-12.63,Standing
01:04.8,567,514,771,862,320,2.2,455.19,1.56,20723.72,316,149,145.32,145,21116,44105,297,1.02,0.1,-0.01,-2.12,1.52,-1.6,4.92,-82.9,-13.27,-9.75,-3.84,-12.55,-12.68,Standing
01:04.9,728,517,775.5,862,320,2.2,455.19,1.56,20723.72,316,149,145.32,145,21116,66306,446,1.01,0.09,0,-2.82,3.7,-2.02,4.65,-83.19,-13.56,-9.54,-4,-12.83,-12.48,Standing
01:05.0,324,514,771,862,320,2.2,455.19,1.56,20723.72,316,150,145.32,145,21116,88806,596,1.01,0.1,0.02,-2.38,1.82,-1.44,5.02,-82.73,-13.79,-9.56,-4.08,-13.04,-12.49,Standing
01:05.1,320,511,766.5,862,320,2.2,455.19,1.56,20723.72,316,149,145.32,145,21116,111007,745,1.01,0.1,0.02,-1.42,-0.4,0.03,4.84,-82.9,-13.89,-9.86,-3.98,-13.15,-12.78,Standing
01:05.3,665,513,769.5,862,320,2.2,455.19,1.56,20723.72,316,151,145.32,145,21116,133808,896,1.01,0.09,0.01,-1.06,-0.37,-1.4,4.32,-83.51,-13.96,-10.16,-4.05,-13.23,-13.09,Standing
01:05.4,421,512,768,862,320,2.2,455.19,1.56,20723.72,316,151,145.32,145,21116,156609,1047,1.01,0.1,0,-1.97,1.68,-1.55,5.05,-82.79,-14.13,-10.2,-4.15,-13.37,-13.1,Standing
01:05.5,168,508,762,862,319,2.21,453.13,1.56,20723.72,316,151,145.32,145,21116,179410,1198,1.01,0.1,0.01,-1.31,5.43,-0.71,5.08,-82.75,-14.23,-9.77,-4.14,-13.46,-12.69,Standing
01:05.6,512,508,762,862,318,2.22,451.06,1.55,20723.72,316,149,145.32,145,21116,201611,1347,1.02,0.09,0.01,-3.98,-1.54,0.54,4.42,-83.4,-14.66,-10.21,-3.97,-13.9,-13.14,Standing
01:05.8,606,509,763.5,862,318,2.22,451.06,1.55,20723.6,319,149,149.6,149,22380,0,0,1.01,0.1,0,-1.25,2.88,-2,5.01,-82.83,-14.75,-10.1,-4.12,-13.96,-13.01,Standing
01:05.9,259,506,759,862,316,2.24,446.96,1.54,20723.6,319,149,149.6,149,22380,22201,149,1.02,0.1,0.02,-2.77,0.17,-0.26,5.13,-82.63,-15.02,-10.33,-4.05,-14.22,-13.23,Standing
01:06.0,328,504,756,862,315,2.25,444.92,1.54,20723.6,319,149,149.6,149,22380,44402,298,1.01,0.09,0.02,-1.78,1.28,-2.28,4.39,-83.34,-15.17,-10.42,-4.24,-14.39,-13.34,Standing
01:06.1,995,510,765,995,313,2.27,440.85,1.53,20723.6,319,149,149.6,149,22380,66603,447,1.01,0.1,0.01,-3.16,0.02,-2.76,4.97,-82.82,-15.5,-10.67,-4.48,-14.68,-13.56,Standing
01:06.3,574,510,765,995,312,2.28,438.82,1.52,20723.6,319,148,149.6,149,22380,88507,595,1,0.1,0,-2.48,0.56,-1.04,5.39,-82.45,-15.74,-10.85,-4.52,-14.9,-13.72,Standing
01:06.4,286,508,762,995,311,2.29,436.8,1.52,20723.6,319,149,149.6,149,22380,110708,744,1.01,0.09,0.01,-2.32,1.45,1.09,4.58,-83.22,-15.96,-10.92,-4.28,-15.14,-13.81,Standing
01:06.5,466,507,760.5,995,310,2.3,434.78,1.52,20723.6,319,148,149.6,149,22380,132612,892,1.02,0.08,0.01,-3.56,0.81,0.03,4.03,-83.73,-16.34,-11.07,-4.18,-15.52,-13.98,Standing
01:06.6,796,511,766.5,995,310,2.3,434.78,1.52,20723.6,319,149,149.6,149,22380,154813,1041,1.01,0.09,0.01,-1.59,2.36,-2.79,4.34,-83.44,-16.47,-11.03,-4.43,-15.64,-13.92,Standing
01:06.8,364,509,763.5,995,309,2.31,432.77,1.51,20723.6,319,148,149.6,149,22380,176717,1189,1,0.1,0.01,-2.4,-0.5,-0.6,5.25,-82.55,-16.7,-11.34,-4.4,-15.82,-14.19,Standing
01:06.9,359,507,760.5,995,309,2.31,432.77,1.51,20723.6,319,148,149.6,149,22380,198621,1337,1.01,0.09,0,-1.89,0.95,0.27,4.78,-83.05,-16.87,-11.47,-4.27,-16,-14.33,Standing
01:07.0,762,510,765,995,309,2.31,432.77,1.51,135.4,311,150,148.7,148,22111,0,0,1.01,0.08,0.01,-1.43,2.39,-0.53,3.72,-84.05,-16.98,-11.42,-4.24,-16.15,-14.33,Standing
01:07.1,717,512,768,995,310,2.3,434.78,1.52,135.4,311,151,148.7,148,22111,22801,151,1.02,0.08,0.03,-1.42,2.76,-1.47,4.08,-83.5,-17.08,-11.33,-4.32,-16.24,-14.21,Standing
01:07.3,291,510,765,995,310,2.3,434.78,1.52,135.4,311,150,148.7,148,22111,45301,301,1.03,0.07,0.02,-2.27,0.07,-2.94,3.53,-84.21,-17.3,-11.57,-4.59,-16.46,-14.47,Standing
01:07.4,450,509,763.5,995,310,2.3,434.78,1.52,135.4,311,150,148.7,148,22111,67801,451,1.01,0.09,0.02,-2.53,0.08,-4.96,4.75,-82.95,-17.54,-11.81,-5.11,-16.65,-14.65,Standing
01:07.5,780,512,768,995,311,2.29,436.8,1.52,135.4,311,151,148.7,148,22111,90602,602,0.99,0.11,0.01,-1.61,-0.62,-3.56,5.64,-82.18,-17.67,-12.14,-5.46,-16.74,-14.94,Standing
01:07.6,518,512,768,995,311,2.29,436.8,1.52,135.4,311,150,148.7,148,22111,113102,752,1,0.11,-0.01,-1.23,-0.7,1.02,5.87,-81.94,-17.76,-12.47,-5.23,-16.81,-15.25,Standing
01:07.8,232,509,763.5,995,312,2.28,438.82,1.52,135.4,311,152,148.7,148,22111,136206,904,1.02,0.09,0,-1.32,2.21,1.5,4.76,-83.08,-17.85,-12.45,-4.95,-16.95,-15.27,Standing
01:07.9,535,510,765,995,312,2.28,438.82,1.52,135.4,311,151,148.7,148,22111,159007,1055,1.03,0.09,0,-2.51,1.26,-2.72,4.24,-83.6,-18.09,-12.54,-5.18,-17.2,-15.38,Standing
01:08.0,860,513,769.5,995,313,2.27,440.85,1.53,135.4,311,151,148.7,148,22111,181808,1206,1,0.1,0.02,-2.65,0.63,-4.57,5.03,-82.72,-18.36,-12.71,-5.66,-17.42,-15.51,Standing
01:08.1,364,512,768,995,314,2.26,442.88,1.53,135.4,311,151,148.7,148,22111,204609,1357,1,0.11,0.02,-1.55,2.72,-1.58,5.84,-81.9,-18.48,-12.62,-5.76,-17.51,-15.39,Standing
01:08.3,356,510,765,995,314,2.26,442.88,1.53,136.07,311,151,150.8,150,22740,0,0,1.02,0.1,0,-1.99,-2.87,1.2,4.87,-82.97,-18.66,-13.22,-5.51,-17.72,-16.01,Standing
01:08.4,618,511,766.5,995,314,2.26,442.88,1.53,136.07,311,151,150.8,150,22740,22801,151,1.01,0.11,-0.01,-1.18,2.58,-2.81,5.63,-82.2,-18.74,-13.15,-5.76,-17.76,-15.91,Standing
01:14.2,202,202,303,202,307,2.33,428.77,1.5,0,0,148,0,0,0,44105,297,1,0.12,0.08,-6.8,3.69,-5.44,6.38,-79.97,-1.32,0.74,-2.27,-1.01,-2.49,Left Fall while Standing
01:14.3,261,231,346.5,261,307,2.33,428.77,1.5,0,0,149,0,0,0,66306,446,1.02,0.13,0.1,1.19,1.82,-8.44,6.57,-79.44,-1.11,0.72,-3.2,-0.8,-2.49,Left Fall while Standing
01:14.5,996,486,729,996,308,2.32,430.77,1.51,0,0,149,0,0,0,88507,595,1,0.16,0.07,6.95,8.46,-15.6,8.26,-78.69,-0.19,1.51,-5.01,0.15,-1.7,Left Fall while Standing
01:14.6,976,608,912,996,308,2.32,430.77,1.51,0,0,150,0,0,0,111007,745,0.98,0.17,0.05,6.43,11.6,-16.02,9.03,-78.44,0.66,2.68,-6.86,1,-0.57,Left Fall while Standing
01:14.7,921,671,1006.5,996,308,2.32,430.77,1.51,0,0,152,0,0,0,134111,897,0.98,0.2,0.09,1.46,3.03,-14.99,11.11,-75.72,0.91,2.81,-8.61,1.32,-0.33,Left Fall while Standing
01:14.8,555,651,976.5,996,307,2.33,428.77,1.5,0,0,152,0,0,0,157215,1049,0.96,0.25,0.11,4.77,2.38,-17.24,14.1,-72.49,1.56,2.85,-10.6,2.06,-0.16,Left Fall while Standing
01:14.9,357,609,913.5,996,306,2.34,426.78,1.5,0,0,152,0,0,0,180319,1201,0.96,0.28,0.08,5.03,10.64,-22.32,15.94,-71.17,2.24,3.91,-13.23,2.79,0.9,Left Fall while Standing
01:15.1,241,563,844.5,996,305,2.35,424.79,1.49,0,0,151,0,0,0,203120,1352,0.95,0.32,0.08,12.28,9.79,-30.61,17.92,-69.31,3.82,4.87,-16.9,4.38,1.9,Left Fall while Standing
01:15.2,462,552,828,996,303,2.38,420.83,1.48,168.73,306,151,150.31,150,22591,0,0,0.87,0.39,0.1,8.51,4.16,-27.63,23.3,-63.66,4.93,5.13,-20.2,5.67,2.38,Left Fall while Standing
01:15.3,725,569,853.5,996,302,2.39,418.86,1.48,168.73,306,151,150.31,150,22591,22801,151,0.86,0.44,0.08,-1.31,-2.4,-17.44,26.42,-60.87,4.84,4.59,-22.26,5.7,1.97,Left Fall while Standing
01:15.4,904,600,900,996,301,2.4,416.9,1.47,168.73,306,151,150.31,150,22591,45602,302,0.89,0.47,0.13,-4.44,-4.27,-13.66,27.36,-59.4,4.36,3.8,-23.87,5.28,1.27,Left Fall while Standing
01:15.6,665,605,907.5,996,301,2.4,416.9,1.47,168.73,306,151,150.31,150,22591,68403,453,0.85,0.5,0.12,4.81,0.98,-12.88,29.65,-57.26,5.02,3.68,-25.37,6.01,1.24,Left Fall while Standing
01:15.7,349,585,877.5,996,300,2.41,414.94,1.47,168.73,306,151,150.31,150,22591,91204,604,0.86,0.51,0.06,2.02,3.64,-6.69,29.94,-57.68,5.34,3.88,-26.1,6.33,1.42,Left Fall while Standing
01:15.8,183,556,834,996,300,2.41,414.94,1.47,168.73,306,152,150.31,150,22591,114308,756,0.82,0.52,0.15,1.92,3.34,-9.92,31.52,-54.93,5.65,4.04,-27.23,6.68,1.69,Left Fall while Standing
01:15.9,368,544,816,996,300,2.41,414.94,1.47,168.73,306,151,150.31,150,22591,137109,907,0.81,0.54,0.08,11.65,-0.32,-12.24,33,-54.38,7.16,3.76,-28.65,8.2,1.43,Left Fall while Standing
01:16.1,715,555,832.5,996,301,2.4,416.9,1.47,168.73,306,152,150.31,150,22591,160213,1059,0.83,0.56,0.05,9.82,2.9,-11.38,33.3,-54.36,8.45,3.87,-29.97,9.44,1.54,Left Fall while Standing
01:16.2,357,543,814.5,996,300,2.41,414.94,1.47,168.73,306,152,150.31,150,22591,183317,1211,0.84,0.57,0.09,6.79,26.2,-14.85,33.26,-54.13,9.36,6.87,-31.71,10.32,4.43,Left Fall while Standing
01:16.3,143,521,781.5,996,298,2.43,411.03,1.46,168.73,306,138,150.31,150,22591,202361,1349,0.61,0.62,0.21,2.13,9.4,-14.94,43.44,-41.33,9.7,7.79,-33.48,11.05,5.83,Left Fall while Standing
01:16.4,763,533,799.5,996,295,2.47,405.22,1.44,156.04,299,133,148.34,148,22004,0,0,0.75,0.63,0.07,-1,4.55,-8.37,39.24,-48.29,9.64,8.11,-34.41,10.83,5.85,Left Fall while Standing
01:16.6,770,545,817.5,996,293,2.49,401.37,1.43,156.04,299,130,148.34,148,22004,16900,130,0.75,0.64,0.05,-4.03,1.69,-8.09,40.04,-47.64,9.21,8.07,-35.31,10.45,5.84,Left Fall while Standing
01:16.7,787,557,835.5,996,293,2.49,401.37,1.43,156.04,299,130,148.34,148,22004,33800,260,0.74,0.65,0.07,-0.56,2.88,-4.55,40.76,-46.76,9.21,8.18,-35.78,10.48,5.98,Left Fall while Standing
01:16.8,250,543,814.5,996,293,2.49,401.37,1.43,156.04,299,129,148.34,148,22004,50441,389,0.73,0.66,0.08,-2.49,1.33,-2.18,41.27,-46.21,8.97,8.09,-35.95,10.27,5.92,Left Fall while Standing
01:16.9,303,532,798,996,293,2.49,401.37,1.43,156.04,299,129,148.34,148,22004,67082,518,0.76,0.66,0.07,-3.23,3.94,-6.5,40.26,-47.31,8.64,8.34,-36.66,9.91,6.11,Left Fall while Standing
01:17.1,473,530,795,996,292,2.5,399.45,1.43,156.04,299,130,148.34,148,22004,83982,648,0.72,0.66,0.1,0.18,-0.24,-7.35,41.77,-45.52,8.73,8.06,-37.48,10.06,5.91,Left Fall while Standing
01:17.2,685,536,804,996,293,2.49,401.37,1.43,156.04,299,130,148.34,148,22004,100882,778,0.69,0.69,0.04,1.95,0.35,-4.68,44.12,-43.61,9.05,7.85,-37.96,10.45,5.79,Left Fall while Standing
01:17.3,429,532,798,996,293,2.49,401.37,1.43,156.04,299,130,148.34,148,22004,117782,908,0.71,0.69,0.06,-5.33,5.91,1.89,43.29,-44.33,8.45,8.34,-37.63,9.85,6.23,Left Fall while Standing
01:17.4,217,520,780,996,293,2.49,401.37,1.43,156.04,299,130,148.34,148,22004,134682,1038,0.73,0.67,0.09,-2.73,1.85,1.27,41.51,-45.84,8.18,8.32,-37.37,9.52,6.15,Left Fall while Standing
01:17.5,332,513,769.5,996,292,2.5,399.45,1.43,156.04,299,130,148.34,148,22004,151582,1168,0.75,0.67,0.08,-1.77,-0.55,0.19,41.06,-46.41,8.03,8,-37.25,9.36,5.83,Left Fall while Standing
01:17.7,743,521,781.5,996,292,2.5,399.45,1.43,141.9,292,130,129.8,129,16847,0,0,0.73,0.67,0.07,-1.34,-3.61,-2.07,41.88,-45.67,7.94,7.31,-37.41,9.3,5.19,Left Fall while Standing
01:17.8,601,524,786,996,292,2.5,399.45,1.43,141.9,292,130,129.8,129,16847,16900,130,0.72,0.68,0.06,-2.69,1.25,-0.19,42.6,-45.01,7.67,7.22,-37.33,9.07,5.13,Left Fall while Standing
01:17.9,383,519,778.5,996,292,2.5,399.45,1.43,141.9,292,131,129.8,129,16847,34061,261,0.72,0.66,0.07,-0.73,-0.41,2.64,41.87,-45.66,7.65,6.92,-36.91,9.02,4.82,Left Fall while Standing
01:18.0,254,511,766.5,996,292,2.5,399.45,1.43,141.9,292,131,129.8,129,16847,51222,392,0.72,0.66,0.05,-2.18,-2.73,3.3,41.98,-45.69,7.45,6.33,-36.4,8.83,4.25,Left Fall while Standing
01:18.2,439,509,763.5,996,292,2.5,399.45,1.43,141.9,292,131,129.8,129,16847,68383,523,0.73,0.65,0.05,-3.76,-0.95,4.21,40.91,-46.79,7.06,5.97,-35.78,8.41,3.86,Left Fall while Standing
01:18.3,740,516,774,996,292,2.5,399.45,1.43,141.9,292,131,129.8,129,16847,85544,654,0.75,0.64,0.06,-2.07,-0.99,3.47,40.05,-47.59,6.87,5.6,-35.25,8.2,3.47,Left Fall while Standing
01:18.4,678,520,780,996,293,2.49,401.37,1.43,141.9,292,131,129.8,129,16847,102705,785,0.76,0.64,0.06,-0.69,-4.25,5.4,39.49,-48.12,6.85,4.82,-34.48,8.16,2.7,Left Fall while Standing
01:18.5,224,512,768,996,294,2.48,403.29,1.44,141.9,292,131,129.8,129,16847,119866,916,0.78,0.62,0.05,-0.32,-4.13,6.97,37.76,-49.93,6.88,4.06,-33.51,8.12,1.9,Left Fall while Standing
01:18.7,362,508,762,996,294,2.48,403.29,1.44,141.9,292,132,129.8,129,16847,137290,1048,0.78,0.61,0.02,-3.11,-7.52,15.28,37.55,-50.27,6.57,2.88,-31.54,7.81,0.76,Left Fall while Standing
01:18.8,603,510,765,996,294,2.48,403.29,1.44,141.9,292,132,129.8,129,16847,154714,1180,0.82,0.56,0.02,-2.79,-4.79,19.2,33.69,-54.12,6.29,2.04,-29.06,7.39,-0.2,Left Fall while Standing
01:18.9,754,517,775.5,996,295,2.47,405.22,1.44,142.53,293,131,131.1,131,17186,0,0,0.85,0.53,0.03,-2.55,-0.63,11.86,31.13,-56.63,6.05,1.72,-27.49,7.05,-0.62,Left Fall while Standing
01:19.0,455,515,772.5,996,295,2.47,405.22,1.44,142.53,293,131,131.1,131,17186,17161,131,0.86,0.51,0.02,-0.57,-3.02,10.77,30.29,-57.53,6.05,1.09,-26.05,7.02,-1.25,Left Fall while Standing
01:19.2,607,517,775.5,996,296,2.46,407.15,1.45,142.53,293,131,131.1,131,17186,34322,262,0.76,0.51,0.07,-0.73,7.47,13.83,33.21,-54.32,6.02,1.78,-24.23,7.11,-0.47,Left Fall while Standing
01:19.3,414,515,772.5,996,295,2.47,405.22,1.44,142.53,293,131,131.1,131,17186,51483,393,0.89,0.47,-0.02,-3.5,4.27,18.16,27.05,-60.77,5.66,2.06,-21.88,6.52,-0.45,Left Fall while Standing
01:19.4,809,522,783,996,295,2.47,405.22,1.44,142.53,293,131,131.1,131,17186,68644,524,0.9,0.41,0.02,-5.07,-0.68,24.69,24.09,-63.71,5.1,1.73,-18.72,5.86,-0.89,Left Fall while Standing
01:19.5,647,525,787.5,996,295,2.47,405.22,1.44,142.53,293,132,131.1,131,17186,86068,656,0.93,0.37,0,-5.66,-2.69,27.34,20.85,-66.99,4.46,1.14,-15.2,5.12,-1.59,Left Fall while Standing
01:19.7,300,520,780,996,294,2.48,403.29,1.44,142.53,293,132,131.1,131,17186,103492,788,0.94,0.32,0.02,-8.28,-0.41,28.17,18.37,-69.44,3.51,0.84,-11.61,4.1,-1.97,Left Fall while Standing
01:19.8,190,512,768,996,293,2.49,401.37,1.43,142.53,293,131,131.1,131,17186,120653,919,1,0.23,0,-9.25,-4.22,27.81,12.37,-75.47,2.42,0.06,-8.04,2.82,-2.96,Left Fall while Standing
01:19.9,626,515,772.5,996,293,2.49,401.37,1.43,142.53,293,131,131.1,131,17186,137814,1050,1,0.18,0.02,-10.4,-2.78,18.27,9.68,-78.12,1.2,-0.53,-5.67,1.54,-3.63,Left Fall while Standing
01:20.0,868,522,783,996,292,2.5,399.45,1.43,142.53,293,131,131.1,131,17186,154975,1181,1,0.15,-0.02,-6.47,2.66,14.91,7.99,-79.8,0.46,-0.45,-3.71,0.76,-3.62,Left Fall while Standing
01:20.2,381,519,778.5,996,292,2.5,399.45,1.43,144.57,294,130,131.1,131,17186,0,0,1,0.1,-0.02,-17.55,-4.73,19.82,4.94,-82.82,-1.61,-1.27,-1.2,-1.35,-4.53,Left Fall while Standing
01:20.3,311,515,772.5,996,291,2.52,397.54,1.42,144.57,294,130,131.1,131,17186,16900,130,1.03,0.06,0.01,-25.59,-1.89,21.44,2.53,-85.21,-4.74,-1.75,1.58,-4.45,-5.09,Left Fall while Standing
01:20.4,615,517,775.5,996,290,2.53,395.63,1.42,144.57,294,130,131.1,131,17186,33800,260,1.01,0,-0.01,-21.03,-9.63,20,-0.41,-88.06,-7.3,-3.21,4.18,-7.02,-6.6,Left Fall while Standing
01:20.5,741,521,781.5,996,291,2.52,397.54,1.42,144.57,294,131,131.1,131,17186,50961,391,1.01,-0.05,0.06,-12.31,-2.31,15.01,-3.19,-84.05,-8.76,-3.74,6.14,-8.53,-6.96,Left Fall while Standing
01:20.7,285,517,775.5,996,291,2.52,397.54,1.42,144.57,294,131,131.1,131,17186,68122,522,1.01,-0.06,-0.04,-3,4.28,14.91,-4.09,-84.16,-9.06,-3.46,8.1,-8.86,-6.69,Left Fall while Standing
01:20.8,202,511,766.5,996,291,2.52,397.54,1.42,144.57,294,132,131.1,131,17186,85546,654,1.01,-0.11,0.01,2.21,7.94,15.92,-6.53,-82.44,-8.71,-2.72,10.19,-8.63,-5.9,Left Fall while Standing
01:20.9,365,508,762,996,291,2.52,397.54,1.42,144.57,294,131,131.1,131,17186,102707,785,1.01,-0.14,-0.04,-6.98,0.22,15.18,-8.71,-80.03,-9.52,-2.94,12.19,-9.49,-6.02,Left Fall while Standing
01:21.0,679,511,766.5,996,292,2.5,399.45,1.43,144.57,294,132,131.1,131,17186,120131,917,1.01,-0.18,-0.01,-13.98,13.55,6.53,-10.42,-78.55,-11.2,-1.49,13.1,-11.16,-4.58,Left Fall while Standing
01:21.2,146,505,757.5,996,292,2.5,399.45,1.43,144.57,294,131,131.1,131,17186,137292,1048,0.98,-0.2,0.01,-6.97,27.47,-0.84,-12.17,-76.81,-12,1.72,13.1,-12.01,-1.43,Left Fall while Standing
01:21.3,262,501,751.5,996,292,2.5,399.45,1.43,144.57,294,131,131.1,131,17186,154453,1179,0.97,-0.18,0.06,-21.85,8.41,1.02,-11.05,-77.35,-14.66,2.52,13.32,-14.52,-0.68,Left Fall while Standing
01:21.4,729,505,757.5,996,292,2.5,399.45,1.43,139,291,132,131.1,131,17186,0,0,1.01,-0.19,0.11,-14.28,5.17,-3.75,-10.92,-76.43,-16.37,2.91,12.96,-16.15,-0.26,Left Fall while Standing
01:21.5,695,508,762,996,293,2.49,401.37,1.43,139,291,132,131.1,131,17186,17424,132,0.99,-0.24,0.11,-19.98,3.9,-0.33,-14.32,-73.25,-18.79,3.15,13.01,-18.61,0.09,Left Fall while Standing
01:21.7,331,505,757.5,996,292,2.5,399.45,1.43,139,291,132,131.1,131,17186,34848,264,1.01,-0.21,0.14,-10.35,-4.37,-6.1,-11.95,-74.5,-20.02,2.35,12.35,-19.69,-0.72,Left Fall while Standing
01:21.8,406,503,754.5,996,292,2.5,399.45,1.43,139,291,132,131.1,131,17186,52272,396,1.01,-0.2,0.11,-4.84,-8.27,-2.93,-11.85,-75.7,-20.55,1.07,12.08,-20.2,-2,Left Fall while Standing
01:21.9,782,508,762,996,291,2.52,397.54,1.42,139,291,132,131.1,131,17186,69696,528,0.99,-0.2,0.05,4.58,-4.93,-3.66,-12.08,-76.49,-19.91,0.2,11.73,-19.6,-2.87,Left Fall while Standing
01:22.0,531,508,762,996,292,2.5,399.45,1.43,139,291,132,131.1,131,17186,87120,660,0.98,-0.19,0.02,4.06,0.76,-0.99,-11.53,-77.41,-19.33,0.05,11.7,-19.02,-3.05,Left Fall while Standing
01:22.2,345,506,759,996,292,2.5,399.45,1.43,139,291,132,131.1,131,17186,104544,792,1,-0.19,0.01,8.03,7.96,-2.6,-11.23,-77.76,-18.26,0.79,11.47,-17.98,-2.35,Left Fall while Standing
01:22.3,716,509,763.5,996,292,2.5,399.45,1.43,139,291,132,131.1,131,17186,121968,924,1.01,-0.17,0.02,-1.56,-3.36,-0.21,-10.21,-78.73,-18.38,0.12,11.55,-18.06,-3.03,Left Fall while Standing
01:22.4,970,516,774,996,292,2.5,399.45,1.43,139,291,132,131.1,131,17186,139392,1056,1.01,-0.19,0.04,-2.27,2.31,-2.39,-11.35,-77.4,-18.6,0.16,11.34,-18.31,-2.94,Left Fall while Standing
01:22.5,567,516,774,996,293,2.49,401.37,1.43,139,291,133,131.1,131,17186,157081,1189,1,-0.18,0.05,-0.84,2.69,-0.55,-10.96,-77.7,-18.63,0.25,11.37,-18.33,-2.87,Left Fall while Standing
01:22.7,437,515,772.5,996,293,2.49,401.37,1.43,140.87,292,133,132.2,132,17476,0,0,1,-0.2,0.05,-2.97,-1.43,0.11,-11.73,-76.94,-18.93,-0.18,11.49,-18.64,-3.25,Left Fall while Standing
01:22.8,605,516,774,996,293,2.49,401.37,1.43,140.87,292,132,132.2,132,17476,17424,132,1,-0.17,0.03,0.81,0.1,0.35,-10.42,-78.41,-18.76,-0.42,11.63,-18.43,-3.54,Left Fall while Standing
01:26.1,980,980,1470,980,311,2.29,436.8,1.52,0,0,163,0,0,0,53138,326,1.04,-0.13,0.08,-0.27,0.56,-8.91,-7.88,-79.88,0.33,-0.63,-1.24,0,-3.8,Right Fall while Standing
01:26.2,973,976,1464,980,311,2.29,436.8,1.52,0,0,163,0,0,0,79707,489,0.99,-0.07,0.09,0.05,-1.43,-6.89,-4.55,-81.98,0.41,-1.05,-1.99,0.21,-4.29,Right Fall while Standing
01:26.3,645,866,1299,980,309,2.31,432.77,1.51,0,0,154,0,0,0,103423,643,0.99,-0.09,0.04,-4.42,-4.19,-1.6,-5.56,-82.81,-0.06,-1.81,-2.09,-0.28,-5.05,Right Fall while Standing
01:26.4,404,750,1125,980,309,2.31,432.77,1.51,0,0,162,0,0,0,129667,805,0.99,-0.09,0.09,-4.27,-10.22,2.49,-5.61,-81.32,-0.53,-3.32,-1.68,-0.73,-6.44,Right Fall while Standing
01:26.5,413,683,1024.5,980,309,2.31,432.77,1.51,0,0,163,0,0,0,156236,968,0.98,-0.08,0.09,5.93,1.18,-0.95,-5.5,-81.25,0.27,-3.42,-1.7,0.04,-6.54,Right Fall while Standing
01:26.7,414,638,957,980,310,2.3,434.78,1.52,0,0,162,0,0,0,182480,1130,1,-0.1,0.04,-0.34,-8,7.73,-6.06,-82.54,0.3,-4.64,-0.66,0.05,-7.76,Right Fall while Standing
01:26.8,550,625,937.5,980,308,2.32,430.77,1.51,0,0,160,0,0,0,208080,1290,1.02,-0.12,0.04,5.46,7.74,-3.65,-7.18,-81.39,1.03,-3.94,-1.01,0.71,-7.04,Right Fall while Standing
01:26.9,723,637,955.5,980,309,2.31,432.77,1.51,0,0,162,0,0,0,234324,1452,1.01,-0.1,0.04,-0.04,6.24,-3.78,-6.2,-82.33,1.1,-3.43,-1.38,0.81,-6.58,Right Fall while Standing
01:27.0,739,649,973.5,980,310,2.3,434.78,1.52,174.3,309,162,161.42,161,26055,0,0,1.02,-0.08,0.05,4.72,1.64,-1.53,-5.22,-83.03,1.75,-3.47,-1.47,1.47,-6.65,Right Fall while Standing
01:27.2,419,626,939,980,310,2.3,434.78,1.52,174.3,309,163,161.42,161,26055,26569,163,1.01,-0.08,0.04,5.06,2.13,10.12,-5.31,-83.25,2.45,-3.46,-0.12,2.14,-6.65,Right Fall while Standing
01:27.3,229,589,883.5,980,311,2.29,436.8,1.52,174.3,309,163,161.42,161,26055,53138,326,1,-0.12,0.05,1.5,-4.91,15.53,-7.66,-80.88,2.7,-4.31,1.91,2.29,-7.37,Right Fall while Standing
01:27.4,232,560,840,980,311,2.29,436.8,1.52,174.3,309,163,161.42,161,26055,79707,489,1,-0.16,0.04,3.63,-2.98,18.6,-9.5,-79.21,3.22,-4.93,4.31,2.72,-7.9,Right Fall while Standing
01:27.5,664,568,852,980,311,2.29,436.8,1.52,174.3,309,162,161.42,161,26055,105951,651,1.01,-0.21,0.03,-0.28,-0.98,16.34,-12.42,-76.43,3.26,-5.3,6.45,2.63,-8.15,Right Fall while Standing
01:27.7,678,575,862.5,980,313,2.27,440.85,1.53,174.3,309,164,161.42,161,26055,132847,815,0.98,-0.24,0.03,-5.28,-8.51,15.81,-14.35,-74.52,2.67,-6.62,8.53,1.99,-9.33,Right Fall while Standing
01:27.8,240,553,829.5,980,313,2.27,440.85,1.53,174.3,309,165,161.42,161,26055,160072,980,0.94,-0.28,0.02,-3.33,-7.05,20.37,-16.91,-72.03,2.33,-7.74,11.15,1.56,-10.31,Right Fall while Standing
01:27.9,575,554,831,980,313,2.27,440.85,1.53,174.3,309,165,161.42,161,26055,187297,1145,0.96,-0.32,0,6.24,6.31,26.15,-19.08,-69.92,3.18,-7.2,14.52,2.29,-9.71,Right Fall while Standing
01:28.0,976,579,868.5,980,313,2.27,440.85,1.53,174.3,309,165,161.42,161,26055,214522,1310,0.97,-0.39,0.01,0.64,-5.13,19.01,-22.61,-66.39,3.32,-8.08,16.97,2.29,-10.42,Right Fall while Standing
01:28.2,558,578,867,980,314,2.26,442.88,1.53,174.3,309,165,161.42,161,26055,241747,1475,0.94,-0.42,-0.02,-2.33,-4.55,21.48,-24.8,-64.17,3.1,-8.9,19.76,1.99,-11.11,Right Fall while Standing
01:28.3,292,563,844.5,980,313,2.27,440.85,1.53,159.31,312,164,163.9,163,26863,0,0,0.91,-0.47,0.03,4.41,-2.21,22.79,-27.66,-61.29,3.72,-9.42,22.68,2.46,-11.5,Right Fall while Standing
01:28.4,513,560,840,980,312,2.28,438.82,1.52,159.31,312,164,163.9,163,26863,26896,164,0.92,-0.5,-0.03,-1.35,2.09,17.38,-29.01,-59.95,3.62,-9.41,24.95,2.32,-11.43,Right Fall while Standing
01:28.5,860,575,862.5,980,312,2.28,438.82,1.52,159.31,312,165,163.9,163,26863,54121,329,0.87,-0.54,0.01,-0.37,-1.83,11.95,-32.24,-56.75,3.64,-9.89,26.54,2.21,-11.77,Right Fall while Standing
01:28.7,407,567,850.5,980,311,2.29,436.8,1.52,159.31,312,165,163.9,163,26863,81346,494,0.86,-0.55,-0.01,7.97,-2.35,16.06,-33.18,-55.82,4.71,-10.44,28.65,3.2,-12.25,Right Fall while Standing
01:28.8,249,553,829.5,980,310,2.3,434.78,1.52,159.31,312,165,163.9,163,26863,108571,659,0.81,-0.59,-0.03,4.27,-0.21,20.37,-36.55,-52.39,5.32,-10.71,31.3,3.64,-12.38,Right Fall while Standing
01:28.9,456,549,823.5,980,308,2.32,430.77,1.51,159.31,312,164,163.9,163,26863,135467,823,0.81,-0.65,0.01,-2.97,-0.56,13.21,-39.29,-49.71,5.01,-11.03,33.05,3.24,-12.58,Right Fall while Standing
01:29.0,729,556,834,980,307,2.33,428.77,1.5,159.31,312,163,163.9,163,26863,162036,986,0.78,-0.65,-0.02,3.13,1.49,10.39,-40.51,-48.47,5.48,-11.1,34.44,3.64,-12.59,Right Fall while Standing
01:29.2,191,542,813,980,305,2.35,424.79,1.49,159.31,312,163,163.9,163,26863,188605,1149,0.8,-0.67,0,-4.79,0.92,7.37,-40.48,-48.52,4.94,-11.23,35.47,3.13,-12.72,Right Fall while Standing
01:29.3,72,525,787.5,980,303,2.38,420.83,1.48,159.31,312,161,163.9,163,26863,214526,1310,0.76,-0.69,0.03,-0.8,-0.91,9.71,-42.88,-46.07,4.91,-11.59,36.78,3,-12.97,Right Fall while Standing
01:29.4,605,528,792,980,302,2.39,418.86,1.48,159.31,312,161,163.9,163,26863,240447,1471,0.75,-0.71,-0.02,-0.4,-5.24,6.35,-44.13,-44.84,4.93,-12.5,37.68,2.97,-13.8,Right Fall while Standing
01:29.5,567,529,793.5,980,302,2.39,418.86,1.48,169.85,307,161,163.21,163,26635,0,0,0.75,-0.73,0,1.73,4.9,3.23,-44.69,-44.31,5.22,-12.14,38.17,3.22,-13.43,Right Fall while Standing
01:29.7,197,518,777,980,301,2.4,416.9,1.47,169.85,307,161,163.21,163,26635,25921,161,0.73,-0.72,0,-3.52,-1.61,3.31,-44.87,-44.13,4.85,-12.59,38.68,2.86,-13.85,Right Fall while Standing
01:29.8,156,506,759,980,300,2.41,414.94,1.47,169.85,307,161,163.21,163,26635,51842,322,0.73,-0.73,0.02,-1.37,1.88,1.89,-45.69,-43.28,4.75,-12.61,39.01,2.73,-13.83,Right Fall while Standing
01:29.9,1000,522,783,1000,300,2.41,414.94,1.47,169.85,307,162,163.21,163,26635,78086,484,0.71,-0.72,-0.01,-1.43,3.37,1.49,-45.63,-43.37,4.64,-12.44,39.3,2.63,-13.67,Right Fall while Standing
01:30.0,994,536,804,1000,301,2.4,416.9,1.47,169.85,307,161,163.21,163,26635,104007,645,0.7,-0.74,0.02,1.36,-0.73,4.7,-46.96,-42.02,4.88,-12.78,39.99,2.81,-13.95,Right Fall while Standing
01:30.2,381,531,796.5,1000,300,2.41,414.94,1.47,169.85,307,161,163.21,163,26635,129928,806,0.73,-0.74,0,-1.41,-3.71,5.23,-46.27,-42.73,4.78,-13.49,40.74,2.73,-14.66,Right Fall while Standing
01:30.3,238,523,784.5,1000,301,2.4,416.9,1.47,169.85,307,162,163.21,163,26635,156172,968,0.71,-0.77,-0.03,-1.49,3.44,-2.44,-47.76,-41.19,4.66,-13.31,40.53,2.56,-14.43,Right Fall while Standing
01:30.4,563,524,786,1000,301,2.4,416.9,1.47,169.85,307,162,163.21,163,26635,182416,1130,0.71,-0.75,0.03,1.53,2.89,-4.47,-47.11,-41.86,4.92,-13.2,40.07,2.84,-14.35,Right Fall while Standing
01:30.5,425,521,781.5,1000,302,2.39,418.86,1.48,169.85,307,162,163.21,163,26635,208660,1292,0.73,-0.74,0.01,-0.02,4.56,-16.22,-46.22,-42.78,4.99,-12.88,38.14,2.94,-14.07,Right Fall while Standing
01:30.7,0,508,762,1000,302,2.39,418.86,1.48,169.85,307,162,163.21,163,26635,234904,1454,0.83,-0.71,0.08,0.67,4.56,-26.18,-40.92,-47.77,5.14,-12.56,34.94,3.3,-13.96,Right Fall while Standing
01:30.8,162,499,748.5,1000,302,2.39,418.86,1.48,158.32,301,163,161.7,161,26146,0,0,0.81,-0.65,0.03,-1.06,-1.08,-37.09,-39.45,-49.5,5.08,-12.94,30.44,3.3,-14.4,Right Fall while Standing
01:30.9,377,496,744,1000,303,2.38,420.83,1.48,158.32,301,164,161.7,161,26146,26896,164,0.82,-0.56,0.02,-10.59,1.02,-31.33,-35,-53.98,3.83,-13.06,26.62,2.27,-14.7,Right Fall while Standing
01:31.0,185,488,732,1000,304,2.37,422.81,1.49,158.32,301,165,161.7,161,26146,54121,329,0.9,-0.55,0.05,4.63,7.31,-20.18,-32.14,-56.68,4.48,-12.4,24.2,3.01,-14.17,Right Fall while Standing
01:31.2,133,480,720,1000,304,2.37,422.81,1.49,158.32,301,159,161.7,161,26146,79402,488,0.91,-0.5,0.02,-5.93,-4.09,-32.34,-29.68,-59.29,3.8,-13.16,20.25,2.47,-15,Right Fall while Standing
01:31.3,581,482,723,1000,304,2.37,422.81,1.49,158.32,301,164,161.7,161,26146,106298,652,0.94,-0.44,-0.01,-10.45,-1.66,-40.72,-25.35,-63.65,2.56,-13.62,15.22,1.44,-15.62,Right Fall while Standing
01:31.4,827,490,735,1000,305,2.35,424.79,1.49,158.32,301,165,161.7,161,26146,133523,817,0.92,-0.34,-0.02,-29.62,-4.46,-22.97,-20.93,-68.03,-1.1,-14.43,12.43,-1.9,-16.58,Right Fall while Standing
01:31.5,333,486,729,1000,305,2.35,424.79,1.49,158.32,301,165,161.7,161,26146,160748,982,1.04,-0.32,0.01,-13.07,8.29,-13.36,-17.8,-71.19,-2.68,-13.64,10.85,-3.28,-15.94,Right Fall while Standing
01:31.7,600,489,733.5,1000,306,2.34,426.78,1.5,158.32,301,165,161.7,161,26146,187973,1147,1.01,-0.32,0,-4.86,4.51,-28.99,-18.37,-70.63,-3.22,-13.33,7.32,-3.82,-15.62,Right Fall while Standing
01:31.8,839,496,744,1000,306,2.34,426.78,1.5,158.32,301,166,161.7,161,26146,215529,1313,0.99,-0.25,-0.03,-19.62,-5.15,-20.89,-14.72,-74.14,-5.62,-14.23,4.79,-5.98,-16.62,Right Fall while Standing
01:31.9,355,493,739.5,1000,306,2.34,426.78,1.5,158.32,301,166,161.7,161,26146,243085,1479,1.01,-0.2,0.02,-13.05,2.27,-18.7,-11.88,-77.08,-7.19,-14.19,2.53,-7.38,-16.71,Right Fall while Standing
01:32.0,413,492,738,1000,306,2.34,426.78,1.5,165.62,304,166,164.51,164,27063,0,0,0.93,-0.11,-0.05,-17.74,-5.38,-9.81,-7.04,-81.17,-9.32,-15.11,1.41,-9.23,-17.75,Right Fall while Standing
01:32.2,736,496,744,1000,305,2.35,424.79,1.49,165.62,304,163,164.51,164,27063,26569,163,0.98,-0.13,-0.02,-9.41,2.06,-4.01,-8.37,-80.55,-10.44,-15.1,1.01,-10.36,-17.72,Right Fall while Standing
01:32.3,540,497,745.5,1000,304,2.37,422.81,1.49,165.62,304,163,164.51,164,27063,53138,326,0.96,-0.14,-0.03,-2.03,17.32,-0.25,-9.1,-79.71,-10.62,-13.19,1.07,-10.56,-15.85,Right Fall while Standing
01:32.4,223,492,738,1000,304,2.37,422.81,1.49,165.62,304,163,164.51,164,27063,79707,489,1,-0.17,0.03,-7.5,9.16,4.51,-10.4,-78.49,-11.5,-12.28,1.74,-11.45,-14.93,Right Fall while Standing
01:32.5,513,492,738,1000,303,2.38,420.83,1.48,165.62,304,163,164.51,164,27063,106276,652,1.01,-0.17,0.02,-10.02,8.72,-2.7,-10.4,-78.52,-12.69,-11.44,1.5,-12.6,-14.12,Right Fall while Standing
01:32.7,918,500,750,1000,303,2.38,420.83,1.48,165.62,304,164,164.51,164,27063,133172,816,0.99,-0.17,0.06,-9.49,3.54,-2.54,-10.23,-78.18,-13.81,-11.24,1.28,-13.67,-13.92,Right Fall while Standing
01:32.8,308,497,745.5,1000,303,2.38,420.83,1.48,165.62,304,162,164.51,164,27063,159416,978,1.02,-0.16,0.02,-4.38,-8.55,-2.03,-9.77,-79.13,-14.29,-12.56,1.13,-14.11,-15.22,Right Fall while Standing
01:32.9,368,494,741,1000,302,2.39,418.86,1.48,165.62,304,163,164.51,164,27063,185985,1141,1.02,-0.15,-0.01,-1.45,-7.77,-2.03,-8.87,-80.1,-14.4,-13.79,0.97,-14.18,-16.45,Right Fall while Standing
01:33.0,852,501,751.5,1000,302,2.39,418.86,1.48,165.62,304,163,164.51,164,27063,212554,1304,0.99,-0.16,-0.03,-4.25,3.78,0.95,-9.7,-79.11,-14.87,-13.57,1.19,-14.66,-16.19,Right Fall while Standing
01:33.2,416,499,748.5,1000,303,2.38,420.83,1.48,165.62,304,162,164.51,164,27063,238798,1466,1,-0.19,-0.01,-7.48,6.59,6.29,-11.05,-77.94,-15.74,-12.99,2.08,-15.55,-15.59,Right Fall while Standing
01:33.3,328,496,744,1000,302,2.39,418.86,1.48,162.28,303,163,162.9,162,26535,0,0,1.03,-0.2,0.01,-7.15,1.49,1.79,-11.82,-77.17,-16.56,-13.05,2.4,-16.37,-15.62,Right Fall while Standing
01:33.4,554,497,745.5,1000,303,2.38,420.83,1.48,162.28,303,162,162.9,162,26535,26244,162,1.01,-0.2,0.03,-3.08,6.28,-4.53,-11.51,-77.32,-16.88,-12.51,1.93,-16.66,-15.11,Right Fall while Standing
01:33.5,659,500,750,1000,303,2.38,420.83,1.48,162.28,303,163,162.9,162,26535,52813,325,0.99,-0.18,0.04,-1.85,-1.82,-2.45,-10.93,-77.76,-17.04,-12.99,1.72,-16.79,-15.58,Right Fall while Standing
01:33.7,259,496,744,1000,303,2.38,420.83,1.48,162.28,303,162,162.9,162,26535,79057,487,1,-0.18,0.02,-1.42,-0.18,-1.9,-10.83,-78.12,-17.15,-13.27,1.58,-16.89,-15.86,Right Fall while Standing
01:33.8,412,495,742.5,1000,303,2.38,420.83,1.48,162.28,303,162,162.9,162,26535,105301,649,1,-0.19,0.02,-1.16,1.84,-0.12,-11.62,-77.33,-17.22,-13.29,1.67,-17,-15.85,Right Fall while Standing
01:33.9,757,499,748.5,1000,304,2.37,422.81,1.49,162.28,303,162,162.9,162,26535,131545,811,1,-0.2,0.03,-2.15,2.07,-1.68,-11.65,-77.18,-17.42,-13.28,1.55,-17.19,-15.83,Right Fall while Standing
01:34.0,213,494,741,1000,302,2.39,418.86,1.48,162.28,303,152,162.9,162,26535,154649,963,1,-0.18,0.01,-3.49,5.3,-1.66,-10.63,-78.36,-17.79,-12.86,1.44,-17.5,-15.48,Right Fall while Standing
01:34.2,211,490,735,1000,299,2.42,412.98,1.46,162.28,303,149,162.9,162,26535,176850,1112,1,-0.17,0.02,-4.51,2.13,-1.33,-10.36,-78.56,-18.29,-12.85,1.38,-17.97,-15.47,Right Fall while Standing
01:37.4,517,517,775.5,517,305,2.35,424.79,1.49,0,0,146,0,0,0,42925,293,1,-0.15,-0.03,1.9,15.23,-8.31,-9.22,-79.62,0.5,0.66,-2.23,0.11,-2.55,Forward Fall while Standing
01:37.5,720,618,927,720,305,2.35,424.79,1.49,0,0,146,0,0,0,64241,439,0.97,-0.15,0.06,0.1,13.19,-6.86,-9.46,-78.89,0.58,2.04,-2.97,0.18,-1.2,Forward Fall while Standing
01:37.7,826,687,1030.5,826,305,2.35,424.79,1.49,0,0,147,0,0,0,85850,586,0.98,-0.13,0.06,-9.8,-16.12,-2.18,-8.04,-80.28,-0.55,-0.18,-3.14,-0.85,-3.38,Forward Fall while Standing
01:37.8,542,651,976.5,826,305,2.35,424.79,1.49,0,0,146,0,0,0,107166,732,0.97,-0.13,0.01,-5.45,-30.92,1.57,-7.97,-81.01,-1.15,-4.23,-2.85,-1.42,-7.3,Forward Fall while Standing
01:37.9,174,555,832.5,826,305,2.35,424.79,1.49,0,0,146,0,0,0,128482,878,1.03,-0.16,-0.08,-9.24,-37.05,-2.15,-9.22,-78.79,-2.22,-9.03,-3.02,-2.5,-11.82,Forward Fall while Standing
01:38.0,3,463,694.5,826,304,2.37,422.81,1.49,0,0,145,0,0,0,149507,1023,1,-0.17,-0.12,-7.6,-25.35,-2.43,-10.38,-76.48,-3.09,-12.42,-3.22,-3.38,-14.98,Forward Fall while Standing
01:38.2,417,457,685.5,826,304,2.37,422.81,1.49,0,0,146,0,0,0,170823,1169,0.98,-0.14,-0.2,-3.64,-21.4,-1.02,-8.69,-74.26,-3.47,-15.3,-3.25,-3.68,-17.66,Forward Fall while Standing
01:38.3,571,471,706.5,826,304,2.37,422.81,1.49,0,0,146,0,0,0,192139,1315,0.97,-0.13,-0.24,-5.7,-34.92,5.89,-7.81,-72.93,-4.11,-19.88,-2.43,-4.26,-22,Forward Fall while Standing
01:38.4,920,521,781.5,920,303,2.38,420.83,1.48,164.88,304,143,145.8,145,21257,0,0,1.05,-0.2,-0.59,0.34,-42.19,13.23,-9.91,-57.86,-4,-25.36,-0.69,-4.23,-26.66,Forward Fall while Standing
01:38.5,715,540,810,920,301,2.4,416.9,1.47,164.88,304,143,145.8,145,21257,20449,143,0.97,-0.21,-0.47,-3.69,-26.92,4.84,-11.76,-60.42,-4.39,-28.97,0.02,-4.68,-30.23,Forward Fall while Standing
01:38.7,607,546,819,920,302,2.39,418.86,1.48,164.88,304,150,145.8,145,21257,42949,293,0.93,-0.21,-0.5,-1.95,-21.81,0.57,-11.63,-58.07,-4.56,-31.97,0.19,-4.85,-33.01,Forward Fall while Standing
01:38.8,850,571,856.5,920,303,2.38,420.83,1.48,164.88,304,154,145.8,145,21257,66665,447,0.93,-0.19,-0.53,-7.48,-16.6,0.94,-10.5,-57,-5.43,-34.3,0.4,-5.63,-35.2,Forward Fall while Standing
01:38.9,812,590,885,920,303,2.38,420.83,1.48,164.88,304,154,145.8,145,21257,90381,601,0.91,-0.18,-0.59,-5.66,-22.01,-0.14,-10.2,-54.3,-6.07,-37.3,0.49,-6.23,-37.98,Forward Fall while Standing
01:39.0,576,589,883.5,920,304,2.37,422.81,1.49,164.88,304,158,145.8,145,21257,115345,759,0.83,-0.21,-0.62,-6.84,-30.83,0.56,-11.84,-50.03,-6.86,-41.43,0.66,-7.06,-41.78,Forward Fall while Standing
01:39.2,348,573,859.5,920,303,2.38,420.83,1.48,164.88,304,160,145.8,145,21257,140945,919,0.8,-0.19,-0.65,-2.66,-32.38,-0.5,-10.96,-47.9,-7.12,-45.77,0.69,-7.28,-45.85,Forward Fall while Standing
01:39.3,577,573,859.5,920,303,2.38,420.83,1.48,164.88,304,159,145.8,145,21257,166226,1078,0.75,-0.2,-0.72,-2.74,-28,6.21,-11.32,-43.59,-7.4,-49.52,1.57,-7.55,-49.28,Forward Fall while Standing
01:39.4,129,547,820.5,920,303,2.38,420.83,1.48,164.88,304,159,145.8,145,21257,191507,1237,0.72,-0.22,-0.78,-4.66,-23.93,7.08,-12.34,-40.15,-7.91,-52.78,2.56,-8.09,-52.28,Forward Fall while Standing
01:39.5,231,529,793.5,920,302,2.39,418.86,1.48,164.88,304,159,145.8,145,21257,216788,1396,0.71,-0.23,-0.82,-1.54,-18.85,6.17,-12.37,-38.02,-8.04,-55.41,3.43,-8.21,-54.72,Forward Fall while Standing
01:39.7,583,532,798,920,301,2.4,416.9,1.47,161.16,302,159,155.58,155,24205,0,0,0.67,-0.23,-0.85,-5.15,-21.12,2.11,-12.74,-35.52,-8.6,-58.28,3.79,-8.77,-57.37,Forward Fall while Standing
01:39.8,407,526,789,920,300,2.41,414.94,1.47,161.16,302,159,155.58,155,24205,25281,159,0.62,-0.23,-0.83,-8.48,-7.42,1.4,-12.88,-34.28,-9.59,-59.46,4.07,-9.73,-58.45,Forward Fall while Standing
01:39.9,138,507,760.5,920,297,2.44,409.09,1.45,161.16,302,155,155.58,155,24205,49306,314,0.6,-0.23,-0.85,-1.14,-11.95,6.63,-13.28,-32.76,-9.67,-61.21,5,-9.81,-60.08,Forward Fall while Standing
01:40.0,271,497,745.5,920,296,2.46,407.15,1.45,161.16,302,156,155.58,155,24205,73642,470,0.59,-0.26,-0.88,2.05,-15.13,1.92,-14.58,-31.02,-9.34,-63.34,5.34,-9.55,-62.05,Forward Fall while Standing
01:40.2,695,505,757.5,920,294,2.48,403.29,1.44,161.16,302,158,155.58,155,24205,98606,628,0.56,-0.25,-0.89,-1.97,-13.22,-1.79,-14.1,-29.64,-9.52,-65.24,5.21,-9.7,-63.82,Forward Fall while Standing
01:40.3,372,500,750,920,293,2.49,401.37,1.43,161.16,302,161,155.58,155,24205,124527,789,0.52,-0.25,-0.92,-3.35,-12.55,-3.6,-13.74,-27.24,-9.87,-67.07,4.86,-10.03,-65.48,Forward Fall while Standing
01:40.4,334,493,739.5,920,293,2.49,401.37,1.43,161.16,302,162,155.58,155,24205,150771,951,0.5,-0.24,-0.92,-6.07,-9.6,-2,-13.4,-26.09,-10.57,-68.53,4.71,-10.68,-66.84,Forward Fall while Standing
01:40.5,761,503,754.5,920,292,2.5,399.45,1.43,161.16,302,163,155.58,155,24205,177340,1114,0.5,-0.23,-0.93,-3.53,-3.48,0.27,-13.13,-25.81,-10.94,-69.23,4.84,-11.03,-67.49,Forward Fall while Standing
01:40.7,506,503,754.5,920,292,2.5,399.45,1.43,161.16,302,165,155.58,155,24205,204565,1279,0.48,-0.25,-0.92,0.62,-3.26,-0.11,-13.99,-25.44,-10.79,-69.89,4.93,-10.92,-68.11,Forward Fall while Standing
01:40.8,294,496,744,920,292,2.5,399.45,1.43,161.16,302,165,155.58,155,24205,231790,1444,0.48,-0.25,-0.96,-0.72,-5.66,-1.56,-13.54,-24.53,-10.81,-70.85,4.83,-10.92,-69,Forward Fall while Standing
01:40.9,707,503,754.5,920,292,2.5,399.45,1.43,144.79,294,166,161.04,161,25933,0,0,0.45,-0.25,-0.94,-3.33,-7.73,-1.27,-14.06,-23.3,-11.15,-72.06,4.77,-11.27,-70.11,Forward Fall while Standing
01:41.0,766,512,768,920,292,2.5,399.45,1.43,144.79,294,166,161.04,161,25933,27556,166,0.43,-0.24,-0.96,-2.85,-15.05,-0.84,-13.45,-22.1,-11.44,-74.21,4.76,-11.52,-72.13,Forward Fall while Standing
01:41.2,199,502,753,920,291,2.52,397.54,1.42,144.79,294,147,161.04,161,25933,49165,313,0.4,-0.26,-1,3.38,-1.88,0,-13.91,-19.86,-10.95,-74.7,4.86,-11.06,-72.5,Forward Fall while Standing
01:41.3,225,493,739.5,920,286,2.58,388.06,1.4,144.79,294,140,161.04,161,25933,68765,453,0.46,-0.27,-0.96,7.88,15.64,-1.4,-14.83,-23.12,-9.89,-72.99,4.78,-10.09,-71,Forward Fall while Standing
01:41.4,658,498,747,920,285,2.59,386.18,1.39,144.79,294,140,161.04,161,25933,88365,593,0.43,-0.27,-1,-0.74,7.52,-3.95,-14.63,-20.88,-9.91,-72.3,4.39,-10.1,-70.24,Forward Fall while Standing
01:41.5,467,497,745.5,920,286,2.58,388.06,1.4,144.79,294,141,161.04,161,25933,108246,734,0.46,-0.26,-0.98,-0.22,4.69,-4.17,-13.86,-22.74,-9.87,-71.96,3.96,-10.03,-69.99,Forward Fall while Standing
01:41.7,333,492,738,920,287,2.56,389.95,1.4,144.79,294,144,161.04,161,25933,128982,878,0.48,-0.27,-0.96,-2.04,4.04,-4.93,-14.51,-24.05,-10.06,-71.7,3.44,-10.24,-69.8,Forward Fall while Standing
01:41.8,789,501,751.5,920,288,2.55,391.84,1.41,144.79,294,144,161.04,161,25933,149718,1022,0.47,-0.26,-0.95,-2.69,7.05,-3.82,-14.41,-23.82,-10.32,-71.07,3.06,-10.49,-69.18,Forward Fall while Standing
01:41.9,756,508,762,920,289,2.54,393.73,1.41,144.79,294,146,161.04,161,25933,171034,1168,0.48,-0.26,-0.93,-2.09,5.35,-4.3,-14.53,-24.85,-10.52,-70.65,2.62,-10.68,-68.82,Forward Fall while Standing
01:42.0,343,503,754.5,920,291,2.52,397.54,1.42,144.79,294,149,161.04,161,25933,193235,1317,0.49,-0.26,-0.95,-2.65,9.44,-2.3,-14.23,-24.92,-10.78,-69.71,2.43,-10.92,-67.92,Forward Fall while Standing
01:42.2,666,507,760.5,920,292,2.5,399.45,1.43,133.48,288,146,146.48,146,21454,0,0,0.53,-0.26,-0.92,-2.21,12.58,-3.18,-14.61,-27.48,-10.98,-68.4,2.14,-11.13,-66.77,Forward Fall while Standing
01:42.3,810,515,772.5,920,291,2.52,397.54,1.42,133.48,288,143,146.48,146,21454,20449,143,0.53,-0.25,-0.92,0.21,11.8,-5.04,-13.87,-27.74,-10.89,-67.18,1.6,-11.01,-65.6,Forward Fall while Standing
01:42.4,534,515,772.5,920,292,2.5,399.45,1.43,133.48,288,145,146.48,146,21454,41474,288,0.58,-0.24,-0.92,-0.29,23.94,-3.78,-13.14,-29.84,-10.86,-64.41,1.23,-10.95,-63.03,Forward Fall while Standing
01:42.5,504,515,772.5,920,293,2.49,401.37,1.43,133.48,288,147,146.48,146,21454,63083,435,0.63,-0.24,-0.87,-1.76,38.56,-5.35,-13.19,-33.41,-11.01,-59.81,0.65,-11.09,-58.75,Forward Fall while Standing
01:42.7,796,522,783,920,294,2.48,403.29,1.44,133.48,288,144,146.48,146,21454,83819,579,0.73,-0.24,-0.79,1.98,51.84,-10.24,-13.14,-40,-10.69,-53.58,-0.53,-10.79,-53.03,Forward Fall while Standing
01:42.8,462,520,780,920,295,2.47,405.22,1.44,133.48,288,145,146.48,146,21454,104844,724,0.76,-0.22,-0.71,1.8,51.34,-9.27,-12.37,-44.24,-10.39,-47.36,-1.6,-10.47,-47.24,Forward Fall while Standing
01:42.9,187,513,769.5,920,295,2.47,405.22,1.44,133.48,288,147,146.48,146,21454,126453,871,0.83,-0.22,-0.61,-6.59,53.98,-3.79,-12.5,-50.26,-11.15,-40.81,-1.97,-11.2,-41.19,Forward Fall while Standing
01:43.1,396,510,765,920,296,2.46,407.15,1.45,133.48,288,144,146.48,146,21454,147189,1015,0.89,-0.21,-0.53,-9.23,56.97,-5.69,-11.91,-55.57,-12.24,-33.88,-2.59,-12.23,-34.75,Forward Fall while Standing
01:43.2,531,511,766.5,920,296,2.46,407.15,1.45,133.48,288,143,146.48,146,21454,167638,1158,0.93,-0.18,-0.42,-8.08,48.97,-10.95,-10.78,-62.27,-13.2,-27.92,-3.88,-13.1,-29.29,Forward Fall while Standing
01:43.3,383,508,762,920,296,2.46,407.15,1.45,133.48,288,149,146.48,146,21454,189839,1307,0.97,-0.18,-0.27,-14.38,49.65,-8.82,-10.72,-70.02,-14.94,-21.92,-4.89,-14.77,-23.84,Forward Fall while Standing
01:43.4,494,508,762,920,297,2.44,409.09,1.45,145.59,294,154,146.13,146,21354,0,0,0.94,-0.12,-0.1,-2.37,47.31,-13.24,-8.13,-78.69,-15.17,-16.25,-6.45,-14.88,-18.75,Forward Fall while Standing
01:43.6,988,517,775.5,988,299,2.42,412.98,1.46,145.59,294,159,146.13,146,21354,25281,159,1,-0.1,-0.19,-11.6,3.11,-1.23,-6.35,-76.33,-16.56,-16.11,-6.51,-16.15,-18.52,Forward Fall while Standing
01:43.7,466,516,774,988,299,2.42,412.98,1.46,145.59,294,161,146.13,146,21354,51202,320,0.99,-0.13,-0.14,-6.4,45.63,4.44,-7.86,-77.47,-17.29,-10.61,-5.85,-16.92,-13.29,Forward Fall while Standing
01:43.8,372,514,771,988,298,2.43,411.03,1.46,145.59,294,163,146.13,146,21354,77771,483,0.87,-0.18,-0.07,-21.27,43.71,8.96,-12.13,-76.06,-19.88,-5.4,-4.63,-19.57,-8.23,Forward Fall while Standing
01:43.9,695,517,775.5,988,298,2.43,411.03,1.46,145.59,294,165,146.13,146,21354,104996,648,0.95,-0.17,0,-43.13,-2.47,13.56,-10.67,-78.33,-25.24,-5.96,-2.82,-24.66,-8.86,Forward Fall while Standing
01:44.1,389,515,772.5,988,297,2.44,409.09,1.45,145.59,294,166,146.13,146,21354,132552,814,1.02,-0.21,0.05,-27.02,-13.59,12.05,-12.32,-76.35,-28.58,-7.93,-1.2,-27.93,-10.66,Forward Fall while Standing
01:44.2,127,507,760.5,988,297,2.44,409.09,1.45,145.59,294,167,146.13,146,21354,160441,981,0.98,-0.29,-0.04,-4.35,18.95,2.11,-16.92,-71.9,-29.06,-5.79,-0.84,-28.57,-8.44,Forward Fall while Standing
01:44.3,536,508,762,988,297,2.44,409.09,1.45,145.59,294,168,146.13,146,21354,188665,1149,0.97,-0.23,-0.05,-5.32,20.85,3.36,-13.78,-74.83,-29.65,-3.43,-0.32,-29.02,-6.29,Forward Fall while Standing
01:44.4,574,509,763.5,988,297,2.44,409.09,1.45,145.59,294,169,146.13,146,21354,217226,1318,1.01,-0.24,0.03,-11.09,-0.44,5.52,-13.92,-74.95,-30.97,-3.74,0.47,-30.29,-6.59,Forward Fall while Standing
01:44.6,363,507,760.5,988,297,2.44,409.09,1.45,145.59,294,170,146.13,146,21354,246126,1488,0.98,-0.28,0.02,-5.05,1.51,-0.78,-16.34,-72.62,-31.53,-3.8,0.47,-30.93,-6.55,Forward Fall while Standing
01:44.7,313,503,754.5,988,296,2.46,407.15,1.45,151.56,297,170,165.84,165,27501,0,0,1.01,-0.28,0.02,0.24,-6,1.76,-15.92,-73.06,-31.43,-4.79,0.79,-30.81,-7.52,Forward Fall while Standing
01:44.8,650,506,759,988,297,2.44,409.09,1.45,151.56,297,171,165.84,165,27501,29241,171,1.02,-0.28,-0.01,2.97,3.25,-1.21,-15.8,-73.19,-31,-4.64,0.74,-30.39,-7.38,Forward Fall while Standing
01:44.9,501,506,759,988,297,2.44,409.09,1.45,151.56,297,171,165.84,165,27501,58482,342,0.98,-0.26,-0.02,1.76,3.53,-5.48,-15.65,-73.32,-30.71,-4.45,0.15,-30.1,-7.2,Forward Fall while Standing
01:45.1,227,501,751.5,988,297,2.44,409.09,1.45,151.56,297,171,165.84,165,27501,87723,513,1,-0.27,0.02,-0.98,-1.79,-0.87,-15.77,-73.19,-30.76,-4.92,0.14,-30.16,-7.65,Forward Fall while Standing
01:45.2,442,500,750,988,296,2.46,407.15,1.45,151.56,297,171,165.84,165,27501,116964,684,0.99,-0.28,-0.01,1.92,2.82,-2.56,-16.14,-72.85,-30.45,-4.82,-0.08,-29.88,-7.54,Forward Fall while Standing
01:45.3,743,504,756,988,297,2.44,409.09,1.45,151.56,297,173,165.84,165,27501,146893,857,0.98,-0.26,0,0.5,7,-2.08,-15.37,-73.63,-30.32,-4.2,-0.24,-29.72,-6.97,Forward Fall while Standing
01:53.8,256,256,384,256,308,2.32,430.77,1.51,0,0,193,0,0,0,4294911498,388,1.1,-0.16,0,4.28,8.64,6.18,-8.83,-80.17,1.43,-0.4,1.61,1.02,-3.59,Sitting
01:53.9,247,251,376.5,256,308,2.32,430.77,1.51,0,0,194,0,0,0,4294883598,582,1,-0.13,0.01,1.82,9.88,-20.86,-7.99,-80.96,1.73,0.57,-0.85,1.34,-2.69,Sitting
01:54.0,454,319,478.5,454,308,2.32,430.77,1.51,0,0,194,0,0,0,4294855698,776,1.02,-0.14,0.01,-18.93,-12.24,0.33,-8.22,-80.76,-0.53,-1.18,-0.72,-0.84,-4.37,Sitting
01:54.2,651,402,603,651,308,2.32,430.77,1.51,0,0,194,0,0,0,4294827798,970,1.02,-0.1,0.08,-0.96,7.33,-11.92,-6.14,-81.44,-0.58,-0.52,-2.1,-0.81,-3.76,Sitting
01:54.3,713,464,696,713,308,2.32,430.77,1.51,0,0,195,0,0,0,4294800287,1165,0.97,-0.1,0.02,1.24,6.53,-6.46,-6.29,-82.62,-0.36,0.04,-2.8,-0.6,-3.27,Sitting
01:54.4,608,488,732,713,308,2.32,430.77,1.51,0,0,194,0,0,0,4294772387,1359,1.02,-0.09,0.05,-4.01,-3.15,-2.03,-5.52,-82.6,-0.79,-0.59,-2.95,-0.98,-3.87,Sitting
01:54.5,234,451,676.5,713,306,2.34,426.78,1.5,0,0,194,0,0,0,4294744487,1553,0.99,-0.07,0.04,1.54,4.82,-6.52,-4.52,-83.81,-0.53,-0.24,-3.66,-0.68,-3.59,Sitting
01:54.7,290,431,646.5,713,305,2.35,424.79,1.49,0,0,193,0,0,0,4294716200,1746,1.01,-0.08,0.05,-3.11,4.73,-0.66,-5.34,-82.88,-0.84,0.09,-3.65,-1.02,-3.23,Sitting
01:54.8,576,447,670.5,713,304,2.37,422.81,1.49,169.46,307,194,20723.63,194,429468832,0,0,1.01,-0.07,0.03,-2.74,2.73,-2.21,-4.63,-83.99,-1.11,0.18,-3.82,-1.25,-3.19,Sitting
01:54.9,732,476,714,732,304,2.37,422.81,1.49,169.46,307,193,20723.63,194,429468832,4294939009,193,1.01,-0.09,0.07,-7.66,-4.48,-0.13,-5.45,-82.08,-2,-0.64,-3.74,-2.14,-3.89,Sitting
01:55.0,184,449,673.5,732,303,2.38,420.83,1.48,169.46,307,193,20723.63,194,429468832,4294910722,386,1.01,-0.1,0.05,-2.47,1.49,-2.34,-6.01,-82.36,-2.25,-0.7,-3.94,-2.4,-3.97,Sitting
01:55.2,402,445,667.5,732,302,2.39,418.86,1.48,169.46,307,194,20723.63,194,429468832,4294882822,580,1.01,-0.08,0.02,-5.53,0.51,-2.4,-5.07,-83.75,-2.88,-0.89,-4.14,-2.97,-4.2,Sitting
01:55.3,657,461,691.5,732,303,2.38,420.83,1.48,169.46,307,194,20723.63,194,429468832,4294854922,774,1.01,-0.08,0.06,-1.92,0.18,-1.61,-4.97,-82.94,-3.05,-1.12,-4.25,-3.13,-4.39,Sitting
01:55.4,226,445,667.5,732,303,2.38,420.83,1.48,169.46,307,195,20723.63,194,429468832,4294827411,969,1,-0.08,0.04,-2.16,-4.79,2.98,-4.92,-83.62,-3.25,-1.98,-3.77,-3.32,-5.25,Sitting
01:55.5,557,452,678,732,303,2.38,420.83,1.48,169.46,307,194,20723.63,194,429468832,4294799511,1163,1.04,-0.1,0.01,-0.71,-5.21,2.53,-6.17,-82.82,-3.27,-2.89,-3.35,-3.39,-6.09,Sitting
01:55.7,694,467,700.5,732,303,2.38,420.83,1.48,169.46,307,194,20723.63,194,429468832,4294771611,1357,0.99,-0.09,-0.03,4.18,-2.04,-2.76,-5.81,-82.95,-2.67,-3.4,-3.6,-2.8,-6.59,Sitting
01:55.8,260,455,682.5,732,304,2.37,422.81,1.49,169.46,307,195,20723.63,194,429468832,4294744100,1552,1,-0.09,0,-4.17,2.36,-1.38,-5.88,-83.12,-3.13,-3.36,-3.67,-3.24,-6.55,Sitting
01:55.9,602,463,694.5,732,304,2.37,422.81,1.49,169.46,307,195,20723.63,194,429468832,4294716589,1747,0.99,-0.11,0.02,-1.73,8.96,2.62,-7.09,-81.81,-3.28,-2.47,-3.24,-3.43,-5.65,Sitting
01:56.1,594,470,705,732,305,2.35,424.79,1.49,162.84,303,196,20723.63,194,429468960,0,0,1.02,-0.1,0.05,-7.42,-6.96,3.98,-6.38,-81.9,-4.13,-3.59,-2.65,-4.22,-6.72,Sitting
01:56.2,298,461,691.5,732,305,2.35,424.79,1.49,162.84,303,197,20723.63,194,429468960,4294940569,197,1.01,-0.1,0.02,5.71,10.13,1.8,-6.49,-82.39,-3.33,-2.55,-2.32,-3.46,-5.75,Sitting
01:56.3,948,484,726,948,305,2.35,424.79,1.49,162.84,303,197,20723.63,194,429468960,4294913842,394,1,-0.14,0.04,-1.61,8.92,3.14,-8.59,-80.05,-3.46,-1.68,-1.83,-3.67,-4.82,Sitting
01:56.4,771,497,745.5,948,307,2.33,428.77,1.5,162.84,303,197,20723.63,194,429468960,4294887115,591,1.02,-0.11,0.04,1.65,6.25,2.89,-6.68,-81.97,-3.19,-1.15,-1.36,-3.33,-4.38,Sitting
01:56.6,336,490,735,948,307,2.33,428.77,1.5,162.84,303,196,20723.63,194,429468960,4294859995,787,1,-0.16,0.07,1.67,7.68,2.48,-9.37,-78.68,-2.9,-0.42,-0.95,-3.16,-3.55,Sitting
01:56.7,455,489,733.5,948,307,2.33,428.77,1.5,162.84,303,197,20723.63,194,429468960,4294833268,984,1.08,-0.16,0.16,8.82,24.79,-1.53,-8.85,-76.56,-1.72,2.45,-1.04,-2.01,-0.71,Sitting
01:56.8,725,498,747,948,308,2.32,430.77,1.51,162.84,303,198,20723.63,194,429468960,4294806936,1182,0.95,-0.11,0.02,-13.5,-14.37,0.52,-7.29,-81.64,-3.35,0.39,-0.88,-3.51,-2.9,Sitting
01:56.9,239,488,732,948,309,2.31,432.77,1.51,162.84,303,198,20723.63,194,429468960,4294780604,1380,1.01,-0.13,0.04,-5.47,4.18,1.48,-7.86,-80.88,-3.97,0.66,-0.59,-4.13,-2.6,Sitting
01:57.1,447,487,730.5,948,308,2.32,430.77,1.51,162.84,303,198,20723.63,194,429468960,4294754272,1578,1.05,-0.16,0.07,-16.61,-6.02,-2.86,-9.43,-78.75,-6,-0.35,-0.85,-6.13,-3.48,Sitting
01:57.2,804,498,747,948,309,2.31,432.77,1.51,162.84,303,199,20723.63,194,429468960,4294728337,1777,1,-0.14,0.06,-16.5,-4.73,-1.11,-8.5,-79.85,-8.02,-1.2,-0.89,-8.04,-4.35,Sitting
01:57.3,242,489,733.5,948,310,2.3,434.78,1.52,170.36,307,199,20723.66,197,429470240,0,0,1.05,-0.14,0.1,-7.33,4.36,-5.82,-8.01,-79.32,-8.87,-0.91,-1.52,-8.84,-4.04,Sitting
01:57.4,442,488,732,948,309,2.31,432.77,1.51,170.36,307,199,20723.66,197,429470240,4294941361,199,0.98,-0.13,0.01,-3.94,2.97,-7.95,-8.4,-80.55,-9.3,-0.78,-2.43,-9.26,-3.97,Sitting
01:57.6,831,499,748.5,948,311,2.29,436.8,1.52,170.36,307,199,20723.66,197,429470240,4294915426,398,0.93,-0.1,0.01,-10.21,-26.14,2.82,-6.88,-82.1,-10.52,-4.33,-1.97,-10.37,-7.44,Sitting
01:57.7,263,491,736.5,948,311,2.29,436.8,1.52,170.36,307,199,20723.66,197,429470240,4294889491,597,1.03,-0.14,0.02,6.29,-4.37,10.36,-8.2,-80.7,-9.65,-5.14,-0.56,-9.59,-8.16,Sitting
01:57.8,460,490,735,948,311,2.29,436.8,1.52,170.36,307,199,20723.66,197,429470240,4294863556,796,1,-0.19,-0.06,0.48,7.34,8.57,-11.58,-76.94,-9.51,-4.47,0.62,-9.6,-7.36,Sitting
01:57.9,842,501,751.5,948,311,2.29,436.8,1.52,170.36,307,200,20723.66,197,429470240,4294838020,996,1.02,-0.21,0.05,4.89,8.89,-1.72,-12.05,-76.59,-8.82,-3.59,0.51,-8.95,-6.51,Sitting
01:58.1,148,491,736.5,948,312,2.28,438.82,1.52,170.36,307,199,20723.66,197,429470240,4294812085,1195,1.01,-0.19,0.02,-7.34,-6.98,2.22,-11.23,-77.74,-9.68,-4.72,0.89,-9.74,-7.64,Sitting
01:58.2,410,488,732,948,311,2.29,436.8,1.52,170.36,307,199,20723.66,197,429470240,4294786150,1394,1.02,-0.2,0.01,-2.74,4.96,-2.17,-11.93,-77.04,-9.95,-4.35,0.71,-10.03,-7.25,Sitting
01:58.3,711,494,741,948,312,2.28,438.82,1.52,170.36,307,199,20723.66,197,429470240,4294760215,1593,1.02,-0.2,0,-2.78,-0.07,-7.49,-11.57,-77.43,-10.24,-4.61,-0.14,-10.29,-7.52,Sitting
01:58.5,369,491,736.5,948,312,2.28,438.82,1.52,170.36,307,199,20723.66,197,429470240,4294734280,1792,1,-0.15,0.02,-3.69,4.75,-7.82,-9.31,-79.59,-10.63,-4.26,-1.03,-10.58,-7.27,Sitting
01:58.6,743,497,745.5,948,313,2.27,440.85,1.53,177.12,311,199,20723.68,199,429470848,0,0,0.99,-0.15,0.01,-7.18,-0.92,-0.77,-9.05,-79.93,-11.46,-4.62,-1.03,-11.36,-7.64,Sitting
01:58.7,676,502,753,948,313,2.27,440.85,1.53,177.12,311,199,20723.68,199,429470848,4294941361,199,1.02,-0.15,0.03,-1.85,6.21,-0.56,-9.16,-79.65,-11.62,-4.09,-1,-11.53,-7.11,Sitting
01:58.8,328,498,747,948,313,2.27,440.85,1.53,177.12,311,199,20723.68,199,429470848,4294915426,398,1.02,-0.16,0.04,-3.87,-3,-1.45,-9.64,-79.09,-12.05,-4.72,-1.09,-11.95,-7.7,Sitting
01:59.0,657,501,751.5,948,314,2.26,442.88,1.53,177.12,311,200,20723.68,199,429470848,4294889890,598,0.99,-0.16,0.02,2.1,-2.02,-3.95,-9.69,-79.22,-11.71,-5.23,-1.49,-11.63,-8.19,Sitting
01:59.1,410,499,748.5,948,314,2.26,442.88,1.53,177.12,311,199,20723.68,199,429470848,4294863955,797,1,-0.14,0.03,-2.23,-0.96,-0.21,-8.6,-80.27,-11.92,-5.61,-1.41,-11.79,-8.6,Sitting
01:59.2,284,494,741,948,314,2.26,442.88,1.53,177.12,311,200,20723.68,199,429470848,4294838419,997,1.01,-0.16,0,-3.12,1.61,2.18,-9.8,-79.2,-12.24,-5.66,-1.04,-12.15,-8.6,Sitting
01:59.3,744,500,750,948,314,2.26,442.88,1.53,177.12,311,200,20723.68,199,429470848,4294812883,1197,1.02,-0.16,0.01,-3.04,-0.45,-2.98,-9.49,-79.5,-12.56,-5.97,-1.31,-12.44,-8.91,Sitting
01:59.5,320,496,744,948,314,2.26,442.88,1.53,177.12,311,200,20723.68,199,429470848,4294787347,1397,1,-0.15,0,-2.24,0.65,-2.99,-9.36,-79.63,-12.77,-6.14,-1.59,-12.64,-9.08,Sitting
01:59.6,420,494,741,948,314,2.26,442.88,1.53,177.12,311,200,20723.68,199,429470848,4294761811,1597,1.01,-0.15,0.01,-2.23,1.89,-0.49,-8.8,-80.16,-12.98,-6.16,-1.56,-12.82,-9.12,Sitting
01:59.7,895,503,754.5,948,315,2.25,444.92,1.54,177.12,311,201,20723.68,199,429470848,4294736676,1798,1.01,-0.16,0.02,-3.66,2.47,-0.47,-9.56,-79.38,-13.38,-6.1,-1.52,-13.23,-9.03,Sitting
01:59.8,358,500,750,948,315,2.25,444.92,1.54,20723.84,314,200,20723.69,199,429471104,0,0,1.01,-0.16,0.03,-1.06,0.27,-3.15,-9.62,-79.2,-13.44,-6.31,-1.81,-13.29,-9.23,Sitting
02:00.0,525,500,750,948,314,2.26,442.88,1.53,20723.84,314,201,20723.69,199,429471104,4294942161,201,1,-0.14,0.02,-1.85,-0.81,-1.53,-8.76,-80.12,-13.61,-6.67,-1.91,-13.41,-9.61,Sitting
02:00.1,797,506,759,948,315,2.25,444.92,1.54,20723.84,314,201,20723.69,199,429471104,4294917026,402,1.01,-0.16,0.01,-1.7,-0.98,1.23,-9.62,-79.38,-13.75,-7.05,-1.65,-13.59,-9.95,Sitting
02:00.2,259,501,751.5,948,315,2.25,444.92,1.54,20723.84,314,200,20723.69,199,429471104,4294891490,602,1.01,-0.17,0,-2.44,0.73,-1.64,-10.06,-78.93,-13.99,-7.21,-1.76,-13.83,-10.08,Sitting
02:00.4,596,503,754.5,948,315,2.25,444.92,1.54,20723.84,314,200,20723.69,199,429471104,4294865954,802,1.01,-0.15,0.02,-2.31,4.48,-3.15,-9.17,-79.73,-14.21,-6.9,-2.06,-14.01,-9.81,Sitting
02:00.5,488,503,754.5,948,315,2.25,444.92,1.54,20723.84,314,200,20723.69,199,429471104,4294840418,1002,1,-0.15,0.01,-4.2,-2.98,-0.39,-9.08,-79.89,-14.67,-7.53,-2.01,-14.45,-10.42,Sitting
02:00.6,225,498,747,948,315,2.25,444.92,1.54,20723.84,314,200,20723.69,199,429471104,4294814882,1202,1.01,-0.16,-0.02,-1.66,0.77,-0.41,-9.81,-79.15,-14.82,-7.69,-1.96,-14.61,-10.55,Sitting
02:00.7,773,503,754.5,948,315,2.25,444.92,1.54,20723.84,314,201,20723.69,199,429471104,4294789747,1403,1.01,-0.16,0.02,-0.24,2.94,-0.45,-9.69,-79.27,-14.77,-7.57,-1.92,-14.57,-10.44,Sitting
02:00.9,242,498,747,948,315,2.25,444.92,1.54,20723.84,314,202,20723.69,199,429471104,4294765015,1605,1.01,-0.17,0.01,-4.31,1.18,-0.65,-9.85,-79.14,-15.25,-7.67,-1.9,-15.04,-10.53,Sitting
02:01.0,492,498,747,948,315,2.25,444.92,1.54,20723.84,314,200,20723.69,199,429471104,4294739479,1805,1.02,-0.15,0.01,-2.44,1.56,-4.05,-9.07,-79.92,-15.49,-7.73,-2.31,-15.24,-10.62,Sitting
02:01.1,577,499,748.5,948,315,2.25,444.92,1.54,20723.53,314,201,20723.69,200,429471424,0,0,0.99,-0.14,0.01,-2.73,1.83,-2.34,-8.87,-80.12,-15.77,-7.75,-2.51,-15.49,-10.65,Sitting
02:01.2,203,494,741,948,315,2.25,444.92,1.54,20723.53,314,200,20723.69,200,429471424,4294941760,200,1.02,-0.14,0.03,-2.02,2.68,-0.16,-8.64,-80.16,-15.95,-7.66,-2.43,-15.66,-10.56,Sitting
02:01.4,637,497,745.5,948,314,2.26,442.88,1.53,20723.53,314,202,20723.69,200,429471424,4294917028,402,1.01,-0.15,0.02,-1.87,-0.31,-1.59,-9.15,-79.76,-16.12,-7.96,-2.53,-15.84,-10.83,Sitting
02:01.5,336,494,741,948,313,2.27,440.85,1.53,20723.53,314,202,20723.69,200,429471424,4294892296,604,1.01,-0.14,0.02,-2.92,0.5,-2.25,-8.74,-80.21,-16.42,-8.15,-2.72,-16.11,-11.03,Sitting
02:01.6,172,489,733.5,948,310,2.3,434.78,1.52,20723.53,314,200,20723.69,200,429471424,4294866760,804,1.01,-0.14,0.01,-0.69,2.45,-0.54,-8.6,-80.4,-16.43,-8.09,-2.68,-16.12,-10.98,Sitting
02:01.8,687,492,738,948,308,2.32,430.77,1.51,20723.53,314,201,20723.69,200,429471424,4294841625,1005,1.03,-0.16,0.04,-2.37,2.08,-1.68,-9.43,-79.35,-16.67,-8.08,-2.8,-16.38,-10.93,Sitting
02:01.9,128,486,729,948,304,2.37,422.81,1.49,20723.53,314,200,20723.69,200,429471424,4294816089,1205,1.01,-0.14,0.01,-0.82,-0.73,-3.93,-8.36,-80.61,-16.7,-8.43,-3.2,-16.37,-11.32,Sitting
02:02.0,425,485,727.5,948,301,2.4,416.9,1.47,20723.53,314,201,20723.69,200,429471424,4294790954,1406,1,-0.14,0.01,-3.42,-0.17,-1.15,-8.46,-80.53,-17.06,-8.71,-3.25,-16.72,-11.58,Sitting
02:02.1,463,485,727.5,948,298,2.43,411.03,1.46,20723.53,314,200,20723.69,200,429471424,4294765418,1606,1.01,-0.15,0.04,-1.49,2.97,1.03,-9.06,-79.68,-17.18,-8.58,-3.01,-16.86,-11.43,Sitting
02:02.3,585,487,730.5,948,296,2.46,407.15,1.45,20723.53,314,199,20723.69,200,429471424,4294739483,1805,1.02,-0.16,0.02,-1.49,0.54,-1.6,-9.4,-79.53,-17.3,-8.77,-3.12,-16.98,-11.6,Sitting
02:02.4,743,490,735,948,295,2.47,405.22,1.44,121.15,305,199,20723.69,200,429471360,0,0,1.01,-0.15,0.01,-4.8,-3.85,-3.1,-8.76,-80.2,-17.83,-9.51,-3.41,-17.47,-12.33,Sitting
02:02.5,471,490,735,948,293,2.49,401.37,1.43,121.15,305,199,20723.69,200,429471360,4294941361,199,1,-0.14,0.02,-0.27,8.28,-1.92,-8.69,-80.26,-17.8,-8.71,-3.55,-17.43,-11.57,Sitting
02:02.6,269,487,730.5,948,293,2.49,401.37,1.43,121.15,305,199,20723.69,200,429471360,4294915426,398,1,-0.15,0.05,-2.77,4.41,0.34,-9.22,-79.32,-18.08,-8.4,-3.41,-17.72,-11.24,Sitting
02:02.8,782,491,736.5,948,292,2.5,399.45,1.43,121.15,305,199,20723.69,200,429471360,4294889491,597,1.02,-0.15,0.06,-2.66,-2.01,-0.6,-9.04,-79.36,-18.34,-8.91,-3.38,-17.97,-11.73,Sitting
02:02.9,308,488,732,948,292,2.5,399.45,1.43,121.15,305,199,20723.69,200,429471360,4294863556,796,1,-0.15,0.01,-0.4,-2.12,-0.89,-8.86,-80.11,-18.32,-9.43,-3.39,-17.95,-12.26,Sitting
02:03.0,412,487,730.5,948,292,2.5,399.45,1.43,121.15,305,199,20723.69,200,429471360,4294837621,995,1.01,-0.15,0,-0.81,1.96,-0.83,-9.1,-79.9,-18.36,-9.43,-3.4,-17.99,-12.25,Sitting
02:03.2,758,491,736.5,948,292,2.5,399.45,1.43,121.15,305,199,20723.69,200,429471360,4294811686,1194,1.01,-0.16,0.02,-2.19,3.43,-2.85,-9.51,-79.43,-18.56,-9.25,-3.66,-18.2,-12.06,Sitting
02:03.3,286,488,732,948,293,2.49,401.37,1.43,121.15,305,199,20723.69,200,429471360,4294785751,1393,1,-0.15,0.02,-0.93,-0.96,-2.82,-9.03,-79.87,-18.61,-9.63,-3.92,-18.23,-12.44,Sitting
02:03.4,673,491,736.5,948,294,2.48,403.29,1.44,121.15,305,199,20723.69,200,429471360,4294759816,1592,1,-0.13,0,-3.1,-2.11,-0.16,-7.98,-81.02,-18.93,-10.15,-3.84,-18.5,-12.99,Sitting
02:03.5,455,490,735,948,294,2.48,403.29,1.44,121.15,305,199,20723.69,200,429471360,4294733881,1791,1.01,-0.15,-0.01,-2.76,1.72,0.6,-8.83,-80.13,-19.21,-10.19,-3.67,-18.8,-12.99,Sitting
02:03.7,337,488,732,948,295,2.47,405.22,1.44,142.53,293,199,20723.68,199,429470784,0,0,1.02,-0.16,0.03,-2.82,6.27,-2.4,-9.22,-79.64,-19.5,-9.66,-3.87,-19.09,-12.46,Sitting
02:03.8,724,491,736.5,948,295,2.47,405.22,1.44,142.53,293,200,20723.68,199,429470784,4294941760,200,1.01,-0.15,0.04,-2.08,0.73,-2.43,-8.77,-79.94,-19.69,-9.82,-4.07,-19.25,-12.62,Sitting
02:03.9,468,491,736.5,948,296,2.46,407.15,1.45,142.53,293,200,20723.68,199,429470784,4294916224,400,1,-0.14,0.02,-0.67,-2.4,-2.16,-8.58,-80.37,-19.7,-10.38,-4.25,-19.26,-13.18,Sitting
02:04.0,424,490,735,948,297,2.44,409.09,1.45,142.53,293,199,20723.68,199,429470784,4294890289,599,1.01,-0.15,0.01,-0.52,0.6,-0.24,-8.93,-80.05,-19.7,-10.56,-4.18,-19.27,-13.34,Sitting
02:04.2,787,494,741,948,297,2.44,409.09,1.45,142.53,293,200,20723.68,199,429470784,4294864753,799,1.02,-0.15,0.01,-4.12,-1.92,-1.07,-9.19,-79.8,-20.16,-11.06,-4.21,-19.72,-13.81,Sitting
02:04.3,286,491,736.5,948,298,2.43,411.03,1.46,142.53,293,200,20723.68,199,429470784,4294839217,999,1,-0.14,0.01,-2.34,1.5,-2.84,-8.59,-80.4,-20.38,-11.12,-4.47,-19.91,-13.89,Sitting
02:04.4,496,491,736.5,948,299,2.42,412.98,1.46,142.53,293,200,20723.68,199,429470784,4294813681,1199,1,-0.14,0.01,-2.05,3.11,-1.82,-8.43,-80.52,-20.57,-10.98,-4.6,-20.09,-13.76,Sitting
02:04.6,658,493,739.5,948,300,2.41,414.94,1.47,142.53,293,200,20723.68,199,429470784,4294788145,1399,1.01,-0.15,0.03,-1.94,0.46,-0.15,-9.11,-79.67,-20.75,-11.18,-4.52,-20.28,-13.92,Sitting
02:04.7,235,490,735,948,301,2.4,416.9,1.47,142.53,293,200,20723.68,199,429470784,4294762609,1599,1.01,-0.14,0.01,-2.6,-1.73,-2.95,-8.51,-80.48,-21.01,-11.65,-4.8,-20.51,-14.41,Sitting
02:04.8,709,493,739.5,948,301,2.4,416.9,1.47,142.53,293,201,20723.68,199,429470784,4294737474,1800,1.01,-0.13,0.02,-2.34,3.38,-2.89,-7.99,-80.95,-21.23,-11.48,-5.06,-20.7,-14.26,Sitting
02:04.9,320,491,736.5,948,302,2.39,418.86,1.48,153.72,298,201,20723.69,200,429471232,0,0,1.01,-0.13,0.03,-3.4,3.33,-2.08,-7.9,-80.95,-21.59,-11.31,-5.23,-21.04,-14.1,Sitting
02:05.1,355,489,733.5,948,303,2.38,420.83,1.48,153.72,298,201,20723.69,200,429471232,4294942161,201,1.01,-0.13,0.03,-1.27,-0.66,-1.21,-7.71,-81.03,-21.68,-11.65,-5.28,-21.12,-14.42,Sitting
02:05.2,811,493,739.5,948,303,2.38,420.83,1.48,153.72,298,201,20723.69,200,429471232,4294917026,402,1.01,-0.13,0,-1.5,-4.27,-1.02,-7.99,-81.01,-21.8,-12.45,-5.31,-21.25,-15.19,Sitting
02:05.3,265,490,735,948,305,2.35,424.79,1.49,153.72,298,201,20723.69,200,429471232,4294891891,603,1.01,-0.13,-0.02,-1.09,1.34,-2.12,-8.12,-80.79,-21.87,-12.53,-5.48,-21.32,-15.26,Sitting
02:12.7,236,236,354,236,314,2.26,442.88,1.53,0,0,199,0,0,0,4294915825,399,1.05,-0.11,0.01,6.54,5.11,-6.37,-6.78,-82.2,1.56,0.32,-0.59,1.23,-2.98,Left Fall while Sitting
02:12.8,345,290,435,345,314,2.26,442.88,1.53,0,0,199,0,0,0,4294889890,598,0.99,-0.09,-0.03,4.37,1.48,-10.84,-5.71,-82.98,2.17,0.26,-1.82,1.85,-3.07,Left Fall while Sitting
02:12.9,526,369,553.5,526,313,2.27,440.85,1.53,0,0,200,0,0,0,4294864354,798,1.01,-0.05,-0.01,2.19,12.19,-10.77,-3.48,-85.47,2.5,1.51,-3.05,2.26,-1.97,Left Fall while Sitting
02:13.1,717,456,684,717,313,2.27,440.85,1.53,0,0,200,0,0,0,4294838818,998,1.01,-0.02,0,18.79,11.99,-24.97,-1.57,-87.43,4.88,2.74,-6.03,4.62,-0.87,Left Fall while Sitting
02:13.2,541,473,709.5,717,313,2.27,440.85,1.53,0,0,200,0,0,0,4294813282,1198,1.04,0.03,0.09,6.82,12.99,-4.94,1.01,-83,5.8,4.1,-6.54,5.61,0.62,Left Fall while Sitting
02:13.3,275,440,660,717,312,2.28,438.82,1.52,0,0,200,0,0,0,4294787746,1398,1.01,0.02,0.07,1.5,-7.59,-4.63,0.33,-84.45,6.05,2.92,-7.01,5.82,-0.57,Left Fall while Sitting
02:13.4,221,408,612,717,310,2.3,434.78,1.52,0,0,200,0,0,0,4294762210,1598,0.97,0.06,0.03,5.69,3.98,-9.74,2.79,-84.66,6.81,3.16,-8.09,6.65,-0.35,Left Fall while Sitting
02:13.5,377,404,606,717,309,2.31,432.77,1.51,0,0,199,0,0,0,4294736275,1797,1.02,0.08,0.04,9.51,7.47,-7.57,4.01,-83.39,8.05,3.83,-8.93,7.88,0.34,Left Fall while Sitting
02:13.7,490,414,621,717,308,2.32,430.77,1.51,110.52,312,199,20723.68,199,429471040,0,0,1.03,0.08,0.02,12.59,-0.5,-15.01,3.79,-83.94,9.68,3.52,-10.69,9.44,0.02,Left Fall while Sitting
02:13.8,797,452,678,797,307,2.33,428.77,1.5,110.52,312,200,20723.68,199,429471040,4294941760,200,1.01,0.13,0.03,3.16,-6.27,-14.76,6.84,-80.85,10.15,2.48,-12.45,10.01,-0.85,Left Fall while Sitting
02:13.9,377,445,667.5,797,306,2.34,426.78,1.5,110.52,312,200,20723.68,199,429471040,4294916224,400,0.99,0.17,0.03,3.79,4.95,-12.78,8.95,-78.76,10.69,2.85,-13.96,10.62,-0.41,Left Fall while Sitting
02:14.0,385,440,660,797,305,2.35,424.79,1.49,110.52,312,200,20723.68,199,429471040,4294890688,600,1,0.15,-0.02,6.05,7.01,-13.36,7.93,-79.82,11.53,3.48,-15.55,11.38,0.15,Left Fall while Sitting
02:14.2,641,456,684,797,304,2.37,422.81,1.49,110.52,312,200,20723.68,199,429471040,4294865152,800,1,0.18,0,7.92,20.84,-29.19,9.85,-77.99,12.59,5.86,-19.12,12.48,2.5,Left Fall while Sitting
02:14.3,244,440,660,797,304,2.37,422.81,1.49,110.52,312,200,20723.68,199,429471040,4294839616,1000,0.98,0.28,0.11,1.21,14.53,-30.14,15.59,-71.08,12.82,7.45,-22.85,12.93,4.31,Left Fall while Sitting
02:14.4,403,438,657,797,304,2.37,422.81,1.49,110.52,312,200,20723.68,199,429471040,4294814080,1200,0.95,0.34,0.12,0.68,14.69,-30.19,19.15,-67.52,12.97,9.05,-26.56,13.22,5.99,Left Fall while Sitting
02:14.5,696,454,681,797,304,2.37,422.81,1.49,110.52,312,200,20723.68,199,429471040,4294788544,1400,0.89,0.39,0.11,-2.47,7.65,-26.43,23.11,-63.71,12.73,9.77,-29.81,13.15,6.83,Left Fall while Sitting
02:14.7,482,456,684,797,304,2.37,422.81,1.49,110.52,312,200,20723.68,199,429471040,4294763008,1600,0.89,0.46,0.15,-5.72,2.73,-21.87,26.54,-59.75,12.08,9.86,-32.47,12.66,7.07,Left Fall while Sitting
02:14.8,434,454,681,797,303,2.38,420.83,1.48,110.52,312,200,20723.68,199,429471040,4294737472,1800,0.85,0.47,0.15,-1.37,2.61,-21.89,27.87,-58.46,11.98,9.93,-35.15,12.61,7.2,Left Fall while Sitting
02:14.9,1000,483,724.5,1000,304,2.37,422.81,1.49,164.88,304,200,20723.69,200,429471200,0,0,0.83,0.52,0.19,7.4,3.68,-21.15,30.86,-54.79,12.97,10.14,-37.69,13.69,7.55,Left Fall while Sitting
02:15.1,618,490,735,1000,304,2.37,422.81,1.49,164.88,304,200,20723.69,200,429471200,4294941760,200,0.82,0.55,0.09,11.66,-6.89,-16.34,32.92,-54.43,14.51,9.03,-39.65,15.25,6.49,Left Fall while Sitting
02:15.2,597,495,742.5,1000,304,2.37,422.81,1.49,164.88,304,201,20723.69,200,429471200,4294916625,401,0.77,0.59,0.09,-7.89,-2.99,-15.24,36.47,-50.81,13.58,8.39,-41.49,14.5,6.02,Left Fall while Sitting
02:15.3,816,509,763.5,1000,305,2.35,424.79,1.49,164.88,304,201,20723.69,200,429471200,4294891490,602,0.76,0.6,0.11,-8.47,3.69,-9.17,37.22,-49.88,12.58,8.61,-42.55,13.56,6.27,Left Fall while Sitting
02:15.4,581,513,769.5,1000,305,2.35,424.79,1.49,164.88,304,200,20723.69,200,429471200,4294865954,802,0.74,0.6,0.17,-2.66,7.47,-14.2,37.44,-48.64,12.31,9.29,-44.24,13.32,6.98,Left Fall while Sitting
02:15.6,560,514,771,1000,305,2.35,424.79,1.49,164.88,304,200,20723.69,200,429471200,4294840418,1002,0.73,0.65,0.14,3.31,-4.05,-15.99,40.86,-45.85,12.81,8.53,-46.17,13.93,6.35,Left Fall while Sitting
02:15.7,998,534,801,1000,306,2.34,426.78,1.5,164.88,304,201,20723.69,200,429471200,4294815283,1203,0.71,0.67,0.11,6.59,0.05,-10.48,42.54,-44.64,13.71,8.28,-47.39,14.86,6.16,Left Fall while Sitting
02:15.8,431,530,795,1000,306,2.34,426.78,1.5,164.88,304,201,20723.69,200,429471200,4294790148,1404,0.73,0.69,0.09,2.18,0.15,-8.08,42.33,-45.09,14.05,8.05,-48.32,15.18,5.92,Left Fall while Sitting
02:15.9,468,528,792,1000,305,2.35,424.79,1.49,164.88,304,201,20723.69,200,429471200,4294765013,1605,0.7,0.68,0.1,-0.88,-4.08,-8.05,43.48,-43.82,14.01,7.28,-49.23,15.19,5.23,Left Fall while Sitting
02:16.1,779,536,804,1000,305,2.35,424.79,1.49,164.88,304,201,20723.69,200,429471200,4294739878,1806,0.69,0.69,0.07,2.83,0.75,-4.19,44.48,-43.06,14.44,7.12,-49.66,15.64,5.11,Left Fall while Sitting
02:16.2,343,530,795,1000,304,2.37,422.81,1.49,165.61,304,201,20723.69,200,429471488,0,0,0.69,0.7,0.08,-2.27,3.55,-5.14,44.53,-42.92,14.23,7.31,-50.2,15.44,5.3,Left Fall while Sitting
02:16.3,268,521,781.5,1000,303,2.38,420.83,1.48,165.61,304,201,20723.69,200,429471488,4294942161,201,0.67,0.71,0.1,-3.43,0.73,-3.34,45.95,-41.31,13.86,7.15,-50.52,15.15,5.21,Left Fall while Sitting
02:16.4,638,525,787.5,1000,302,2.39,418.86,1.48,165.61,304,201,20723.69,200,429471488,4294917026,402,0.65,0.71,0.1,-0.52,1.66,2.78,46.63,-40.57,13.87,7.11,-50.07,15.18,5.2,Left Fall while Sitting
02:16.6,384,520,780,1000,301,2.4,416.9,1.47,165.61,304,201,20723.69,200,429471488,4294891891,603,0.71,0.69,0.08,-0.37,4.69,-0.08,43.38,-44.08,13.89,7.45,-49.98,15.07,5.39,Left Fall while Sitting
02:16.7,148,509,763.5,1000,300,2.41,414.94,1.47,165.61,304,201,20723.69,200,429471488,4294866756,804,0.7,0.7,0.09,-2.63,-1.09,-5.85,44.25,-43.09,13.63,7.05,-50.63,14.86,5.05,Left Fall while Sitting
02:16.8,387,505,757.5,1000,299,2.42,412.98,1.46,165.61,304,201,20723.69,200,429471488,4294841621,1005,0.66,0.71,0.1,-3.33,0.69,-4.8,46.35,-40.86,13.28,6.89,-51.13,14.6,4.98,Left Fall while Sitting
02:16.9,365,501,751.5,1000,299,2.42,412.98,1.46,165.61,304,202,20723.69,200,429471488,4294816889,1207,0.66,0.72,0.07,-1.64,2.17,4.03,46.79,-40.76,13.14,6.91,-50.52,14.49,5,Left Fall while Sitting
02:17.1,232,494,741,1000,299,2.42,412.98,1.46,165.61,304,201,20723.69,200,429471488,4294791754,1408,0.65,0.68,0.09,-11.11,0.55,17.53,45.5,-41.85,11.82,6.73,-48.21,13.16,4.79,Left Fall while Sitting
02:17.2,632,498,747,1000,299,2.42,412.98,1.46,165.61,304,201,20723.69,200,429471488,4294766619,1609,0.71,0.65,0.17,-7.08,3.78,18.51,40.77,-45.31,10.99,6.95,-45.76,12.18,4.86,Left Fall while Sitting
02:17.3,550,499,748.5,1000,299,2.42,412.98,1.46,165.61,304,202,20723.69,200,429471488,4294741887,1811,0.79,0.63,0.1,0.46,2.3,13.73,37.76,-49.55,11.12,6.99,-43.93,12.18,4.73,Left Fall while Sitting
02:17.5,303,494,741,1000,299,2.42,412.98,1.46,156.42,300,201,20723.7,201,429471680,0,0,0.79,0.61,0.1,-2.09,-3.76,20.86,36.67,-50.54,10.92,6.27,-41.22,11.95,4,Left Fall while Sitting
02:17.6,653,498,747,1000,299,2.42,412.98,1.46,156.42,300,202,20723.7,201,429471680,4294942564,202,0.82,0.57,0.12,-3.43,4.27,23.28,34.08,-52.95,10.56,6.56,-38.19,11.5,4.18,Left Fall while Sitting
02:17.7,628,501,751.5,1000,300,2.41,414.94,1.47,156.42,300,201,20723.7,201,429471680,4294917429,403,0.83,0.51,0.09,-8.05,-1.24,33.81,30.79,-56.47,9.61,6.15,-33.8,10.46,3.64,Left Fall while Sitting
02:17.8,335,497,745.5,1000,300,2.41,414.94,1.47,156.42,300,202,20723.7,201,429471680,4294892697,605,0.86,0.44,0.11,-6.18,4.88,30.46,26.31,-60.7,8.91,6.51,-29.86,9.6,3.82,Left Fall while Sitting
02:18.0,719,502,753,1000,300,2.41,414.94,1.47,156.42,300,204,20723.7,201,429471680,4294868777,809,0.94,0.36,0.09,-22.39,2.4,30.6,20.57,-66.63,6.15,6.56,-25.91,6.73,3.63,Left Fall while Sitting
02:18.1,862,510,765,1000,301,2.4,416.9,1.47,156.42,300,203,20723.7,201,429471680,4294844450,1012,0.98,0.27,0.16,-35.21,-19.26,45.79,14.53,-70.64,1.79,3.88,-20.04,2.3,0.9,Left Fall while Sitting
02:18.2,601,512,768,1000,302,2.39,418.86,1.48,156.42,300,204,20723.7,201,429471680,4294820530,1216,1,0.2,0.11,-28.72,-7.7,26.54,10.66,-75.44,-1.79,2.65,-16.56,-1.29,-0.48,Left Fall while Sitting
02:18.3,767,518,777,1000,302,2.39,418.86,1.48,156.42,300,203,20723.7,201,429471680,4294796203,1419,1.01,0.09,0.12,-31.15,-26.92,32.28,4.27,-80.04,-5.67,-1.03,-12.36,-5.27,-4.19,Left Fall while Sitting
02:18.5,619,520,780,1000,303,2.38,420.83,1.48,156.42,300,203,20723.7,201,429471680,4294771876,1622,1.01,0,0.06,-19.21,-14.38,32.88,-0.55,-84.77,-8.04,-3.11,-8.09,-7.74,-6.37,Left Fall while Sitting
02:18.6,300,516,774,1000,304,2.37,422.81,1.49,156.42,300,202,20723.7,201,429471680,4294747144,1824,1.04,-0.05,0.17,-27.94,44.58,21.08,-3.17,-78.62,-11.52,2.3,-5.31,-11.18,-0.93,Left Fall while Sitting
02:18.7,681,519,778.5,1000,303,2.38,420.83,1.48,159.08,301,185,20723.7,200,429471584,0,0,0.73,-0.13,0.16,-8.08,64.98,6.35,-10.49,-72.82,-12.46,10.24,-4.41,-12.39,6.92,Left Fall while Sitting
02:18.8,231,513,769.5,1000,304,2.37,422.81,1.49,159.08,301,190,20723.7,200,429471584,4294937860,190,1.02,-0.16,0.18,-36.85,-33.76,17.4,-9.64,-74.78,-17.07,5.7,-2.1,-16.78,2.48,Left Fall while Sitting
02:19.0,70,504,756,1000,305,2.35,424.79,1.49,159.08,301,197,20723.7,200,429471584,4294911133,387,0.99,-0.19,0.16,-5.92,-5.43,2.59,-11.07,-74.64,-17.76,4.75,-1.67,-17.49,1.58,Left Fall while Sitting
02:19.1,746,509,763.5,1000,306,2.34,426.78,1.5,159.08,301,200,20723.7,200,429471584,4294885597,587,1.07,-0.24,0.18,-19.35,-19.03,1.29,-13.07,-72.72,-20.14,2.08,-1.41,-19.86,-0.91,Left Fall while Sitting
02:19.2,334,506,759,1000,307,2.33,428.77,1.5,159.08,301,202,20723.7,200,429471584,4294860865,789,1,-0.19,0.16,-3.61,6.5,-16.71,-11.43,-74.27,-20.53,2.65,-3.43,-20.17,-0.42,Left Fall while Sitting
02:19.4,494,506,759,1000,308,2.32,430.77,1.51,159.08,301,203,20723.7,200,429471584,4294836538,992,0.88,-0.14,0.07,1.1,11.93,-5.56,-9.61,-78.31,-20.32,3.92,-4.04,-19.89,0.63,Left Fall while Sitting
02:19.5,926,513,769.5,1000,309,2.31,432.77,1.51,159.08,301,203,20723.7,200,429471584,4294812211,1195,0.96,-0.17,0.12,1.44,8.11,3.53,-10.61,-76.09,-20.07,4.69,-3.49,-19.69,1.45,Left Fall while Sitting
02:19.6,254,509,763.5,1000,309,2.31,432.77,1.51,159.08,301,203,20723.7,200,429471584,4294787884,1398,1.03,-0.16,0.14,-4.73,0,4.31,-9.43,-76.63,-20.6,4.43,-2.85,-20.15,1.19,Left Fall while Sitting
02:19.7,475,508,762,1000,308,2.32,430.77,1.51,159.08,301,203,20723.7,200,429471584,4294763557,1601,1.01,-0.2,0.18,-2.31,3.37,-1.16,-11.57,-73.42,-20.82,4.61,-2.89,-20.45,1.49,Left Fall while Sitting
02:19.9,407,506,759,1000,309,2.31,432.77,1.51,159.08,301,204,20723.7,200,429471584,4294739637,1805,1,-0.17,0.16,-0.98,-5.07,-4.11,-9.88,-75.46,-20.87,3.71,-3.31,-20.43,0.54,Left Fall while Sitting
02:20.0,95,499,748.5,1000,309,2.31,432.77,1.51,170.18,307,204,20723.7,200,429471584,0,0,0.99,-0.14,0.14,2.43,-7.12,-5.66,-8.66,-77.06,-20.5,2.58,-3.92,-20.03,-0.61,Left Fall while Sitting
02:20.1,113,493,739.5,1000,308,2.32,430.77,1.51,170.18,307,204,20723.7,200,429471584,4294943376,204,0.99,-0.16,0.11,3.21,-6.53,-4.5,-9.47,-77.44,-20.02,1.49,-4.39,-19.6,-1.66,Left Fall while Sitting
02:20.2,619,495,742.5,1000,307,2.33,428.77,1.5,170.18,307,204,20723.7,200,429471584,4294919456,408,1,-0.12,0.09,4.4,-3.78,-4.88,-7.64,-79.85,-19.39,0.76,-4.91,-18.92,-2.46,Left Fall while Sitting
02:20.4,187,490,735,1000,306,2.34,426.78,1.5,170.18,307,204,20723.7,200,429471584,4294895536,612,0.98,-0.12,0.07,1.41,-1.36,-1.6,-7.66,-80.2,-19.14,0.33,-5.01,-18.68,-2.89,Left Fall while Sitting
02:20.5,504,490,735,1000,305,2.35,424.79,1.49,170.18,307,204,20723.7,200,429471584,4294871616,816,0.99,-0.13,0.06,1.76,2.28,3.27,-8.15,-80,-18.85,0.37,-4.5,-18.42,-2.84,Left Fall while Sitting
02:20.6,582,491,736.5,1000,304,2.37,422.81,1.49,170.18,307,204,20723.7,200,429471584,4294847696,1020,1.01,-0.14,0.08,-2.73,-2.46,0.81,-8.37,-79.27,-19.12,-0.2,-4.29,-18.69,-3.36,Left Fall while Sitting
02:20.7,204,487,730.5,1000,303,2.38,420.83,1.48,170.18,307,204,20723.7,200,429471584,4294823776,1224,1.02,-0.14,0.08,2.63,5.6,-5.21,-8.12,-79.58,-18.72,0.26,-4.85,-18.29,-2.93,Left Fall while Sitting
02:23.8,890,890,1335,890,304,2.37,422.81,1.49,0,0,204,0,0,0,4294919049,407,1,-0.11,0.1,-3.54,2.73,2.16,-6.86,-80.13,-0.33,-0.38,0.51,-0.59,-3.57,Right Fall while Sitting
02:23.9,629,759,1138.5,890,305,2.35,424.79,1.49,0,0,204,0,0,0,4294895129,611,1.03,-0.11,0.09,-2.31,5.09,1.24,-6.89,-80.28,-0.55,0,0.76,-0.8,-3.21,Right Fall while Sitting
02:24.0,335,618,927,890,305,2.35,424.79,1.49,0,0,203,0,0,0,4294870802,814,1.01,-0.12,0.11,-6.06,4.02,-3.27,-7.3,-79.13,-1.22,0.25,0.45,-1.47,-2.93,Right Fall while Sitting
02:24.2,237,522,783,890,305,2.35,424.79,1.49,0,0,204,0,0,0,4294846882,1018,1.01,-0.07,0.1,-5.55,3.03,-1.73,-4.72,-81.52,-1.84,0.38,0.34,-1.95,-2.9,Right Fall while Sitting
02:24.3,335,485,727.5,890,305,2.35,424.79,1.49,0,0,204,0,0,0,4294822962,1222,0.9,-0.09,0.12,-6.8,9.17,12.57,-5.98,-79.23,-2.61,1.27,2,-2.75,-1.95,Right Fall while Sitting
02:24.4,627,508,762,890,306,2.34,426.78,1.5,0,0,204,0,0,0,4294799042,1426,1.01,-0.14,0.08,-10.18,6.36,22.37,-8.44,-79.48,-3.79,1.8,4.84,-3.98,-1.45,Right Fall while Sitting
02:24.5,692,535,802.5,890,306,2.34,426.78,1.5,0,0,204,0,0,0,4294775122,1630,1.03,-0.21,0.15,-1.18,8.5,6.43,-12.13,-74.25,-3.87,2.61,5.74,-4.2,-0.47,Right Fall while Sitting
02:24.6,600,543,814.5,890,306,2.34,426.78,1.5,0,0,205,0,0,0,4294751611,1835,0.98,-0.21,0.17,-7.07,3.99,-1.94,-12.6,-73.06,-4.66,2.85,5.6,-4.98,-0.19,Right Fall while Sitting
02:24.8,102,494,741,890,306,2.34,426.78,1.5,166.17,305,205,20723.73,204,429472800,0,0,0.91,-0.23,0.12,-13.85,-9.79,23.35,-14.46,-72.53,-6.33,1.38,8.62,-6.65,-1.58,Right Fall while Sitting
02:24.9,357,480,720,890,306,2.34,426.78,1.5,166.17,305,205,20723.73,204,429472800,4294943785,205,0.92,-0.3,0.13,-15.85,-7.75,41.14,-18.27,-69.14,-8.25,0.15,13.9,-8.65,-2.62,Right Fall while Sitting
02:25.0,725,502,753,890,306,2.34,426.78,1.5,166.17,305,205,20723.73,204,429472800,4294920274,410,0.96,-0.39,0.11,2.39,-5.31,32.57,-22.65,-65.37,-7.88,-0.78,18.14,-8.47,-3.36,Right Fall while Sitting
02:25.2,368,491,736.5,890,306,2.34,426.78,1.5,166.17,305,204,20723.73,204,429472800,4294896354,614,0.96,-0.43,0.1,13.68,2.8,12.27,-24.4,-63.9,-6.07,-0.68,19.79,-6.8,-3.21,Right Fall while Sitting
02:25.3,591,499,748.5,890,306,2.34,426.78,1.5,166.17,305,204,20723.73,204,429472800,4294872434,818,0.87,-0.47,0.1,8.17,-4.18,26.49,-28.73,-59.55,-4.97,-1.46,23.23,-5.92,-3.78,Right Fall while Sitting
02:25.4,962,532,798,962,307,2.33,428.77,1.5,166.17,305,204,20723.73,204,429472800,4294848514,1022,0.86,-0.5,0.06,11.22,-4.67,30.32,-30.95,-57.85,-3.47,-2.3,27.18,-4.57,-4.53,Right Fall while Sitting
02:25.5,377,521,781.5,962,307,2.33,428.77,1.5,166.17,305,204,20723.73,204,429472800,4294824594,1226,0.82,-0.59,0.09,-1.82,-7.68,27.72,-36.31,-52.26,-3.64,-3.53,30.8,-4.94,-5.48,Right Fall while Sitting
02:25.7,670,531,796.5,962,307,2.33,428.77,1.5,166.17,305,201,20723.73,204,429472800,4294799459,1427,0.81,-0.64,0.07,-14.55,-15.92,26.53,-38.8,-49.9,-5.41,-5.81,34.27,-6.75,-7.57,Right Fall while Sitting
02:25.8,667,539,808.5,962,308,2.32,430.77,1.51,166.17,305,192,20723.73,204,429472800,4294770787,1619,0.8,-0.66,0.03,-5.69,-4.4,8.96,-40.33,-48.61,-6.07,-6.63,35.52,-7.44,-8.31,Right Fall while Sitting
02:25.9,226,521,781.5,962,307,2.33,428.77,1.5,166.17,305,188,20723.73,204,429472800,4294740595,1807,0.79,-0.7,0.06,-6.3,5.25,4.37,-42,-46.84,-6.8,-6.22,36.18,-8.21,-7.84,Right Fall while Sitting
02:26.0,613,526,789,962,307,2.33,428.77,1.5,168.91,306,193,20723.69,200,429471232,0,0,0.72,-0.68,0.06,0.53,6.78,6.8,-43.86,-44.96,-6.66,-5.62,37.12,-8.15,-7.2,Right Fall while Sitting
02:26.2,568,528,792,962,308,2.32,430.77,1.51,168.91,306,197,20723.69,200,429471232,4294940569,197,0.72,-0.71,0.03,-13.03,-11.76,16.39,-45.04,-43.93,-8.25,-7.37,39.3,-9.72,-8.83,Right Fall while Sitting
02:26.3,112,508,762,962,307,2.33,428.77,1.5,168.91,306,196,20723.69,200,429471232,4294913449,393,0.76,-0.73,-0.02,-11.85,-4.2,17.91,-44.25,-44.73,-9.68,-8.16,41.67,-11.06,-9.62,Right Fall while Sitting
02:26.4,534,509,763.5,962,305,2.35,424.79,1.49,168.91,306,193,20723.69,200,429471232,4294885162,586,0.7,-0.73,-0.02,1.59,15.3,-0.71,-47.08,-41.91,-9.41,-6.47,41.68,-10.91,-7.89,Right Fall while Sitting
02:26.5,304,500,750,962,304,2.37,422.81,1.49,168.91,306,195,20723.69,200,429471232,4294857651,781,0.71,-0.76,0,-3.15,10.53,1.9,-47.59,-41.41,-9.74,-5.39,42.03,-11.25,-6.83,Right Fall while Sitting
02:26.7,169,487,730.5,962,302,2.39,418.86,1.48,168.91,306,193,20723.69,200,429471232,4294829364,974,0.75,-0.76,0.01,-2.52,24.06,-17.37,-45.93,-43.06,-9.99,-2.58,39.92,-11.42,-4.2,Right Fall while Sitting
02:26.8,702,495,742.5,962,300,2.41,414.94,1.47,168.91,306,195,20723.69,200,429471232,4294801853,1169,0.74,-0.75,0.03,1.23,10.8,-16.69,-45.98,-42.98,-9.76,-1.46,37.88,-11.21,-3.12,Right Fall while Sitting
02:26.9,99,480,720,962,299,2.42,412.98,1.46,168.91,306,197,20723.69,200,429471232,4294775126,1366,0.75,-0.69,0.06,-4.21,10.34,-14.34,-43.22,-45.58,-10.22,-0.4,36.16,-11.54,-2.21,Right Fall while Sitting
02:27.1,327,474,711,962,297,2.44,409.09,1.45,168.91,306,198,20723.69,200,429471232,4294748794,1564,0.72,-0.66,0.07,-1.21,5.66,-8.48,-43.09,-45.64,-10.3,0.07,35.19,-11.61,-1.76,Right Fall while Sitting
02:27.2,662,481,721.5,962,297,2.44,409.09,1.45,168.91,306,199,20723.69,200,429471232,4294722859,1763,0.78,-0.68,0.08,-7.66,0.04,-0.71,-41.77,-46.92,-11.21,-0.18,35.2,-12.43,-2.05,Right Fall while Sitting
02:27.3,183,471,706.5,962,296,2.46,407.15,1.45,159.32,301,200,20723.65,196,429469728,0,0,0.86,-0.68,0.18,11.17,19.13,-36.77,-38.04,-49.49,-9.74,1.96,30.7,-10.87,-0.1,Right Fall while Sitting
02:27.4,516,472,708,962,295,2.47,405.22,1.44,159.32,301,201,20723.65,196,429469728,4294942161,201,0.76,-0.58,0.06,6.89,22.88,-23.81,-37.71,-51.02,-8.79,4.61,27.78,-9.95,2.38,Right Fall while Sitting
02:27.6,758,481,721.5,962,295,2.47,405.22,1.44,159.32,301,201,20723.65,196,429469728,4294917026,402,0.83,-0.57,0.13,-14.35,-3.08,-6.79,-34.94,-53.09,-10.54,3.96,27.01,-11.52,1.68,Right Fall while Sitting
02:27.7,288,475,712.5,962,295,2.47,405.22,1.44,159.32,301,202,20723.65,196,429469728,4294892294,604,0.84,-0.57,0.18,-3.6,1.5,-7.38,-33.95,-53.13,-10.93,3.9,26.18,-11.85,1.62,Right Fall while Sitting
02:27.8,694,482,723,962,295,2.47,405.22,1.44,159.32,301,203,20723.65,196,429469728,4294867967,807,0.82,-0.57,0.17,0.76,3.76,-7.37,-34.68,-52.7,-10.76,4.12,25.34,-11.72,1.85,Right Fall while Sitting
02:27.9,704,488,732,962,295,2.47,405.22,1.44,159.32,301,203,20723.65,196,429469728,4294843640,1010,0.81,-0.53,0.15,-0.99,1.62,-8.63,-33.46,-54.12,-10.82,4.07,24.35,-11.72,1.75,Right Fall while Sitting
02:28.1,311,483,724.5,962,296,2.46,407.15,1.45,159.32,301,203,20723.65,196,429469728,4294819313,1213,0.85,-0.52,0.15,-4.34,-8.58,-3.34,-31.53,-56.05,-11.3,2.73,24.03,-12.11,0.38,Right Fall while Sitting
02:28.2,749,491,736.5,962,296,2.46,407.15,1.45,159.32,301,202,20723.65,196,429469728,4294794581,1415,0.92,-0.54,0.18,4.56,-10.76,-7.79,-30.77,-56.36,-10.65,1.11,23.14,-11.45,-1.19,Right Fall while Sitting
02:28.3,484,491,736.5,962,297,2.44,409.09,1.45,159.32,301,202,20723.65,196,429469728,4294769849,1617,0.89,-0.52,0.11,18.06,10.66,-14.53,-30.61,-57.59,-8.28,2.21,21.39,-9.17,-0.18,Right Fall while Sitting
02:28.5,277,485,727.5,962,298,2.43,411.03,1.46,159.32,301,202,20723.65,196,429469728,4294745117,1819,0.87,-0.47,0.11,5.95,0.07,-11.51,-28.79,-59.39,-7.46,1.97,20.04,-8.31,-0.49,Right Fall while Sitting
02:28.6,875,495,742.5,962,299,2.42,412.98,1.46,148.8,296,202,20723.71,202,429472032,0,0,0.89,-0.46,0.16,-12.87,-11.13,-7.81,-27.67,-59.68,-9,0.33,19.16,-9.75,-2.07,Right Fall while Sitting
02:28.7,548,496,744,962,300,2.41,414.94,1.47,148.8,296,202,20723.71,202,429472032,4294942564,202,0.9,-0.44,0.14,-13.18,-16.2,-12.2,-26.57,-61.08,-10.6,-1.98,17.72,-11.24,-4.35,Right Fall while Sitting
02:28.8,263,490,735,962,300,2.41,414.94,1.47,148.8,296,203,20723.71,202,429472032,4294918237,405,0.92,-0.42,0.12,-10.28,-19.77,-18.25,-25,-63,-11.85,-4.77,15.48,-12.37,-7.1,Right Fall while Sitting
02:29.0,856,499,748.5,962,301,2.4,416.9,1.47,148.8,296,203,20723.71,202,429472032,4294893910,608,0.88,-0.39,0.08,12.5,8.23,-21.45,-24.31,-64.22,-10.19,-3.98,12.86,-10.75,-6.39,Right Fall while Sitting
02:29.1,218,493,739.5,962,301,2.4,416.9,1.47,148.8,296,203,20723.71,202,429472032,4294869583,811,0.97,-0.36,0.06,4.01,-6.9,-7.24,-21.1,-67.62,-9.6,-5.12,12.03,-10.06,-7.62,Right Fall while Sitting
02:29.2,997,504,756,997,302,2.39,418.86,1.48,148.8,296,203,20723.71,202,429472032,4294845256,1014,1.01,-0.37,0.09,4.49,0.42,-22.54,-20.52,-67.87,-8.96,-5.32,9.27,-9.42,-7.82,Right Fall while Sitting
02:29.3,772,510,765,997,303,2.38,420.83,1.48,148.8,296,204,20723.71,202,429472032,4294821336,1218,1.03,-0.29,0.05,2.03,-0.95,-44.81,-15.98,-72.74,-8.64,-5.69,3.72,-8.93,-8.37,Right Fall while Sitting
02:29.5,266,505,757.5,997,304,2.37,422.81,1.49,148.8,296,203,20723.71,202,429472032,4294797009,1421,0.99,-0.15,0.02,-4.11,-10.21,-41.85,-9.21,-79.67,-9.09,-7.24,-1.49,-9.09,-10.14,Right Fall while Sitting
02:29.6,615,507,760.5,997,304,2.37,422.81,1.49,148.8,296,204,20723.71,202,429472032,4294773089,1625,0.97,-0.07,0.03,-10.63,-7.48,-21.12,-4.74,-83.96,-10.38,-8.46,-4.09,-10.15,-11.48,Right Fall while Sitting
02:29.7,416,505,757.5,997,305,2.35,424.79,1.49,148.8,296,204,20723.71,202,429472032,4294749169,1829,0.98,-0.05,0.04,-7.92,-4.22,-11.47,-3.61,-84.71,-11.31,-9.25,-5.45,-11,-12.27,Right Fall while Sitting
02:29.8,234,500,750,997,306,2.34,426.78,1.5,161.35,302,203,20723.72,203,429472480,0,0,1.02,-0.02,-0.01,-8.73,-1.35,-8.6,-1.93,-86.93,-12.34,-9.67,-6.44,-11.92,-12.76,Right Fall while Sitting
02:30.0,634,502,753,997,306,2.34,426.78,1.5,161.35,302,203,20723.72,203,429472480,4294942969,203,0.99,0.01,0,-9.1,-1.99,-6.82,-0.24,-87.99,-13.42,-10.18,-7.2,-12.9,-13.29,Right Fall while Sitting
02:30.1,223,497,745.5,997,307,2.33,428.77,1.5,161.35,302,203,20723.72,203,429472480,4294918642,406,1.03,-0.01,-0.02,-8.43,-0.92,-9.82,-1.07,-87.25,-14.42,-10.55,-8.35,-13.89,-13.62,Right Fall while Sitting
02:30.2,332,494,741,997,307,2.33,428.77,1.5,161.35,302,203,20723.72,203,429472480,4294894315,609,1.03,0.02,0.02,-5.8,2.18,-14.49,0.37,-86.93,-15.09,-10.52,-10.1,-14.47,-13.58,Right Fall while Sitting
02:30.4,695,497,745.5,997,307,2.33,428.77,1.5,161.35,302,204,20723.72,203,429472480,4294870395,813,0.98,0.06,0,-5.81,-0.2,-8.94,3.14,-84.7,-15.76,-10.8,-11.14,-15,-13.76,Right Fall while Sitting
02:30.5,226,492,738,997,307,2.33,428.77,1.5,161.35,302,204,20723.72,203,429472480,4294846475,1017,0.98,0.07,-0.01,-4.32,2.48,-0.59,3.33,-84.49,-16.24,-10.74,-11.11,-15.46,-13.69,Right Fall while Sitting
02:30.6,652,495,742.5,997,307,2.33,428.77,1.5,161.35,302,204,20723.72,203,429472480,4294822555,1221,0.99,0.04,0.01,-2.34,-4.27,8.49,1.51,-86.26,-16.47,-11.54,-9.93,-15.75,-14.53,Right Fall while Sitting
02:30.7,710,499,748.5,997,306,2.34,426.78,1.5,161.35,302,205,20723.72,203,429472480,4294799044,1426,1.05,0.02,-0.03,0.72,-3.53,3.88,0.29,-86.75,-16.3,-12.24,-9.34,-15.64,-15.22,Right Fall while Sitting
02:34.0,389,389,583.5,389,306,2.34,426.78,1.5,0,0,205,0,0,0,4294920274,410,1.01,-0.05,-0.04,1.97,-6.96,-5.53,-3.14,-84.99,0.03,-1.07,-0.97,-0.09,-4.43,Forward Fall while Sitting
02:34.1,723,556,834,723,306,2.34,426.78,1.5,0,0,204,0,0,0,4294896354,614,1,-0.03,-0.11,-8.79,-47.13,2.54,-2.28,-82.11,-0.98,-7.11,-0.56,-1.03,-10.11,Forward Fall while Sitting
02:34.3,681,597,895.5,723,307,2.33,428.77,1.5,0,0,193,0,0,0,4294868067,807,1.01,-0.09,-0.14,-3.46,-17.37,9.3,-5.47,-79.29,-1.34,-9.51,0.69,-1.5,-12.31,Forward Fall while Sitting
02:34.4,387,545,817.5,723,307,2.33,428.77,1.5,0,0,194,0,0,0,4294840167,1001,0.99,-0.11,-0.17,-3.32,-30.57,4.76,-6.69,-76.85,-1.68,-13.55,1.38,-1.88,-16.08,Forward Fall while Sitting
02:34.5,229,481,721.5,723,308,2.32,430.77,1.51,0,0,197,0,0,0,4294813440,1198,0.99,-0.1,-0.25,2.41,-57.04,7.6,-6.17,-73.22,-1.31,-20.87,2.42,-1.51,-22.97,Forward Fall while Sitting
02:34.6,243,442,663,723,306,2.34,426.78,1.5,0,0,179,0,0,0,4294845481,1377,0.91,-0.13,-0.34,13.69,-57.31,7.92,-8.35,-66.76,0.46,-28.23,3.5,0.1,-29.77,Forward Fall while Sitting
02:34.7,494,449,673.5,723,303,2.38,420.83,1.48,0,0,174,0,0,0,4294875757,1551,0.95,-0.15,-0.51,5.86,-39.65,1.51,-8.71,-59,1.25,-33.39,3.79,0.85,-34.42,Forward Fall while Sitting
02:34.9,476,452,678,723,301,2.4,416.9,1.47,0,0,173,0,0,0,4294905686,1724,0.89,-0.15,-0.59,0.23,-19.69,0.47,-8.34,-54.11,1.35,-36.06,3.94,0.96,-36.78,Forward Fall while Sitting
02:35.0,80,411,616.5,723,301,2.4,416.9,1.47,166.18,305,172,20724.23,189,429493536,0,0,0.87,-0.16,-0.61,-3.44,-23.53,-0.08,-9.24,-52.39,0.99,-39.23,4.03,0.58,-39.75,Forward Fall while Sitting
02:35.1,288,399,598.5,723,301,2.4,416.9,1.47,166.18,305,173,20724.23,189,429493536,29929,173,0.82,-0.16,-0.66,1.48,-26.22,-2.32,-9.15,-48.73,1.25,-42.81,3.83,0.84,-43.05,Forward Fall while Sitting
02:35.2,728,428,642,728,301,2.4,416.9,1.47,166.18,305,174,20724.23,189,429493536,60205,347,0.79,-0.16,-0.69,3.01,-22.53,-0.33,-9.32,-46.61,1.7,-45.88,3.89,1.26,-45.91,Forward Fall while Sitting
02:35.4,475,432,648,728,301,2.4,416.9,1.47,166.18,305,175,20724.23,189,429493536,90830,522,0.81,-0.18,-0.73,-1.49,-23.05,-3.74,-10.07,-45.38,1.58,-49.03,3.52,1.12,-48.89,Forward Fall while Sitting
02:35.5,126,409,613.5,728,301,2.4,416.9,1.47,166.18,305,176,20724.23,189,429493536,121806,698,0.73,-0.15,-0.81,-0.6,-29.61,-4.6,-8.64,-40,1.58,-53.05,3.04,1.17,-52.53,Forward Fall while Sitting
02:35.6,503,415,622.5,728,300,2.41,414.94,1.47,166.18,305,174,20724.23,189,429493536,152082,872,0.7,-0.18,-0.82,-6.13,-21.29,-3.38,-9.86,-38.25,0.87,-55.98,2.71,0.45,-55.27,Forward Fall while Sitting
02:35.7,754,438,657,754,299,2.42,412.98,1.46,166.18,305,174,20724.23,189,429493536,182358,1046,0.7,-0.17,-0.82,-5.16,-12.45,-3.23,-9.32,-38.3,0.29,-57.8,2.4,-0.09,-57.02,Forward Fall while Sitting
02:35.9,290,429,643.5,754,298,2.43,411.03,1.46,166.18,305,174,20724.23,189,429493536,212634,1220,0.65,-0.16,-0.85,-3.55,-13.63,-1.92,-9.13,-35.48,-0.09,-59.79,2.26,-0.45,-58.82,Forward Fall while Sitting
02:36.0,704,445,667.5,754,296,2.46,407.15,1.45,166.18,305,175,20724.23,189,429493536,243259,1395,0.59,-0.15,-0.92,-7.85,-12.72,-3.07,-8.16,-30.65,-1,-61.64,1.97,-1.29,-60.4,Forward Fall while Sitting
02:36.1,697,459,688.5,754,296,2.46,407.15,1.45,166.18,305,176,20724.23,189,429493536,274235,1571,0.59,-0.13,-0.88,-9.02,-15.56,1.24,-7.47,-32.06,-2.08,-63.87,2.23,-2.29,-62.6,Forward Fall while Sitting
02:36.3,351,453,679.5,754,294,2.48,403.29,1.44,153.92,298,176,174.7,174,30520,0,0,0.57,-0.14,-0.9,-5.53,-16.25,1.33,-7.99,-30.5,-2.69,-66.14,2.49,-2.91,-64.71,Forward Fall while Sitting
02:36.4,440,452,678,754,293,2.49,401.37,1.43,153.92,298,175,174.7,174,30520,30625,175,0.52,-0.12,-0.9,-4,-12.53,-0.75,-7.02,-28.31,-3.12,-67.95,2.5,-3.28,-66.37,Forward Fall while Sitting
02:36.5,753,467,700.5,754,292,2.5,399.45,1.43,153.92,298,175,174.7,174,30520,61250,350,0.51,-0.12,-0.94,1.67,-3.7,-0.79,-6.77,-26.77,-2.84,-68.67,2.5,-3,-67,Forward Fall while Sitting
02:36.6,447,466,699,754,291,2.52,397.54,1.42,153.92,298,176,174.7,174,30520,92226,526,0.49,-0.12,-0.93,-0.01,-7.79,0.14,-6.94,-25.93,-2.77,-69.9,2.61,-2.94,-68.14,Forward Fall while Sitting
02:36.8,308,459,688.5,754,291,2.52,397.54,1.42,153.92,298,176,174.7,174,30520,123202,702,0.5,-0.14,-0.97,-0.65,-8.05,2.31,-7.79,-25.17,-2.79,-71.15,3,-2.99,-69.31,Forward Fall while Sitting
02:36.9,562,463,694.5,754,290,2.53,395.63,1.42,153.92,298,176,174.7,174,30520,154178,878,0.48,-0.15,-0.96,-0.02,-4.09,-0.54,-8.34,-24.96,-2.72,-71.91,3.03,-2.94,-70.04,Forward Fall while Sitting
02:37.0,760,475,712.5,760,290,2.53,395.63,1.42,153.92,298,176,174.7,174,30520,185154,1054,0.48,-0.14,-0.98,-0.93,-4.57,1.31,-8,-24.21,-2.76,-72.74,3.3,-2.97,-70.8,Forward Fall while Sitting
02:37.1,288,468,702,760,290,2.53,395.63,1.42,153.92,298,176,174.7,174,30520,216130,1230,0.47,-0.15,-0.98,-2.19,-4.74,-0.49,-8.23,-23.65,-2.97,-73.58,3.33,-3.18,-71.58,Forward Fall while Sitting
02:37.3,358,464,696,760,289,2.54,393.73,1.41,153.92,298,176,174.7,174,30520,247106,1406,0.45,-0.15,-0.97,-0.21,-2.84,-0.65,-8.32,-22.86,-2.92,-74.19,3.35,-3.14,-72.13,Forward Fall while Sitting
02:37.4,737,473,709.5,760,289,2.54,393.73,1.41,153.92,298,175,174.7,174,30520,277731,1581,0.44,-0.15,-0.97,-1.46,-4.08,0.21,-8.75,-22.65,-3.03,-74.95,3.48,-3.26,-72.86,Forward Fall while Sitting
02:37.5,524,475,712.5,760,289,2.54,393.73,1.41,137.1,290,175,175.6,175,30834,0,0,0.44,-0.15,-1,-1.51,-2.49,-0.25,-8.61,-21.92,-3.15,-75.5,3.54,-3.37,-73.36,Forward Fall while Sitting
02:37.6,298,469,703.5,760,289,2.54,393.73,1.41,137.1,290,175,175.6,175,30834,30625,175,0.42,-0.16,-1,-1.92,-0.34,-1.27,-8.92,-21.11,-3.32,-75.8,3.48,-3.55,-73.61,Forward Fall while Sitting
02:37.8,376,466,699,760,289,2.54,393.73,1.41,137.1,290,175,175.6,175,30834,61250,350,0.43,-0.15,-0.99,-0.41,5.43,-1.82,-8.61,-21.6,-3.3,-75.37,3.35,-3.52,-73.21,Forward Fall while Sitting
02:37.9,741,475,712.5,760,290,2.53,395.63,1.42,137.1,290,175,175.6,175,30834,91875,525,0.45,-0.16,-1.01,1.82,23.59,-1.29,-8.77,-22.05,-3.01,-72.67,3.29,-3.24,-70.64,Forward Fall while Sitting
02:38.0,531,477,715.5,760,290,2.53,395.63,1.42,137.1,290,175,175.6,175,30834,122500,700,0.51,-0.16,-0.94,2.22,35.39,0.55,-9.33,-26.28,-2.66,-68.49,3.46,-2.92,-66.8,Forward Fall while Sitting
02:38.1,277,471,706.5,760,292,2.5,399.45,1.43,137.1,290,175,175.6,175,30834,153125,875,0.58,-0.17,-0.91,1.21,33.05,-3.2,-9.48,-30.64,-2.44,-64.61,3.16,-2.72,-63.25,Forward Fall while Sitting
02:38.3,358,467,700.5,760,292,2.5,399.45,1.43,137.1,290,176,175.6,175,30834,184101,1051,0.63,-0.17,-0.9,-1.28,43,-0.76,-9.33,-32.98,-2.53,-59.49,3.16,-2.8,-58.43,Forward Fall while Sitting
02:38.4,507,468,702,760,292,2.5,399.45,1.43,137.1,290,175,175.6,175,30834,214726,1226,0.7,-0.19,-0.77,-3.51,62.35,1.32,-11.04,-40.09,-2.9,-51.88,3.43,-3.22,-51.41,Forward Fall while Sitting
02:38.5,108,459,688.5,760,293,2.49,401.37,1.43,137.1,290,175,175.6,175,30834,245351,1401,0.81,-0.18,-0.66,-8.66,52.03,-2.76,-10.21,-48.27,-3.91,-45.63,3.18,-4.16,-45.73,Forward Fall while Sitting
02:38.6,250,453,679.5,760,293,2.49,401.37,1.43,137.1,290,174,175.6,175,30834,275627,1575,0.88,-0.14,-0.59,-21.12,60.44,-4.37,-8.28,-53.72,-6.5,-38.27,2.73,-6.57,-38.88,Forward Fall while Sitting
02:38.8,903,465,697.5,903,293,2.49,401.37,1.43,139,291,174,174.9,174,30589,0,0,0.92,-0.12,-0.47,-15.39,78.43,-3.44,-7.08,-60.88,-8.34,-28.79,2.4,-8.29,-30.07,Forward Fall while Sitting
02:38.9,711,471,706.5,903,294,2.48,403.29,1.44,139,291,175,174.9,174,30589,30625,175,0.77,-0.11,-0.12,-11.43,56.21,1.21,-8.51,-76.69,-9.71,-21.96,2.65,-9.66,-24.15,Forward Fall while Sitting
02:39.0,422,470,705,903,295,2.47,405.22,1.44,139,291,176,174.9,174,30589,61601,351,0.99,-0.11,-0.26,-14.24,16.47,0.37,-6.63,-72.41,-11.41,-20.16,2.8,-11.22,-22.25,Forward Fall while Sitting
02:39.1,518,471,706.5,903,297,2.44,409.09,1.45,139,291,185,174.9,174,30589,30290,536,1.02,-0.12,-0.22,-4.07,61.21,0.86,-7.41,-74.37,-11.85,-12.76,3,-11.67,-15.23,Forward Fall while Sitting
02:39.3,788,478,717,903,300,2.41,414.94,1.47,139,291,181,174.9,174,30589,63051,717,0.98,-0.12,-0.14,-15.4,67.82,-1.37,-7.52,-77.64,-13.71,-4.47,2.93,-13.47,-7.4,Forward Fall while Sitting
02:39.4,284,474,711,903,298,2.43,411.03,1.46,139,291,176,174.9,174,30589,94027,893,0.9,-0.11,0.07,-29.23,2.34,0.92,-7.72,-80.02,-17.3,-4.43,3.14,-16.92,-7.45,Forward Fall while Sitting
02:39.5,296,470,705,903,298,2.43,411.03,1.46,139,291,175,174.9,174,30589,124652,1068,1.05,-0.14,0.11,-24.78,-26.71,7.52,-8.22,-78.9,-20.33,-8.02,4.18,-19.84,-10.85,Forward Fall while Sitting
02:39.6,500,470,705,903,297,2.44,409.09,1.45,139,291,175,174.9,174,30589,155277,1243,1.03,-0.15,0.02,-1.73,3.92,-5.18,-8.8,-80.13,-20.47,-7.78,3.63,-20.01,-10.67,Forward Fall while Sitting
02:39.8,632,474,711,903,297,2.44,409.09,1.45,139,291,175,174.9,174,30589,185902,1418,0.95,-0.14,-0.02,1.56,9.4,-1.74,-9.2,-79.69,-20.21,-6.85,3.51,-19.77,-9.76,Forward Fall while Sitting
02:39.9,126,467,700.5,903,296,2.46,407.15,1.45,139,291,175,174.9,174,30589,216527,1593,0.97,-0.16,-0.03,-3.03,6.98,4.08,-9.98,-78.88,-20.52,-6.22,4.12,-20.1,-9.13,Forward Fall while Sitting
02:40.0,57,458,687,903,296,2.46,407.15,1.45,150.19,296,175,157.21,176,24714,0,0,1.03,-0.18,0.01,-3.65,-2.33,3.77,-10.58,-78.42,-20.9,-6.75,4.68,-20.49,-9.62,Forward Fall while Sitting
02:40.1,326,456,684,903,295,2.47,405.22,1.44,150.19,296,176,157.21,176,24714,30976,176,1.03,-0.17,0.01,-1.24,2.85,-3.31,-9.75,-79.24,-20.98,-6.65,4.37,-20.53,-9.55,Forward Fall while Sitting
02:40.3,501,456,684,903,294,2.48,403.29,1.44,150.19,296,174,157.21,176,24714,61252,350,1.01,-0.17,-0.02,-1.8,-2.62,-5.95,-10.18,-78.78,-21.14,-7.23,3.72,-20.7,-10.09,Forward Fall while Sitting
02:40.4,94,449,673.5,903,293,2.49,401.37,1.43,150.19,296,173,157.21,176,24714,91181,523,0.99,-0.16,-0.02,-3.47,-0.41,-0.56,-9.55,-79.39,-21.51,-7.53,3.75,-21.03,-10.4,Forward Fall while Sitting
02:40.5,32,442,663,903,291,2.52,397.54,1.42,150.19,296,173,157.21,176,24714,121110,696,1.02,-0.14,-0.02,-1.31,-3.55,-0.01,-8.57,-80.31,-21.6,-8.22,3.85,-21.08,-11.11,Forward Fall while Sitting
02:40.6,413,441,661.5,903,290,2.53,395.63,1.42,150.19,296,173,157.21,176,24714,151039,869,1.04,-0.16,-0.03,-0.05,6.56,-3.02,-9.38,-79.49,-21.54,-7.65,3.57,-21.05,-10.53,Forward Fall while Sitting
02:40.8,350,439,658.5,903,290,2.53,395.63,1.42,150.19,296,174,157.21,176,24714,181315,1043,1,-0.14,-0.03,-2.86,4.04,-4.27,-8.24,-80.58,-21.83,-7.4,3.13,-21.28,-10.32,Forward Fall while Sitting
02:40.9,5,432,648,903,289,2.54,393.73,1.41,150.19,296,172,157.21,176,24714,210899,1215,1.01,-0.15,-0.03,-8.51,-8.08,-0.76,-9.06,-79.82,-22.81,-8.65,3.14,-22.26,-11.49,Forward Fall while Sitting
02:41.0,280,429,643.5,903,289,2.54,393.73,1.41,150.19,296,173,157.21,176,24714,240828,1388,1,-0.16,0,-2.84,-1.9,-0.57,-9.5,-79.5,-23.1,-9.14,3.17,-22.56,-11.95,Forward Fall while Sitting
02:41.1,751,435,652.5,903,289,2.54,393.73,1.41,150.19,296,173,157.21,176,24714,270757,1561,1.01,-0.15,-0.04,1.69,2.61,1.53,-8.88,-79.81,-22.82,-9.06,3.46,-22.26,-11.89,Forward Fall while Sitting
02:41.3,492,435,652.5,903,290,2.53,395.63,1.42,138.38,291,173,173.4,173,30067,0,0,1.03,-0.16,-0.02,-1.31,0.69,1.73,-9.23,-79.67,-22.91,-9.22,3.77,-22.36,-12.04,Forward Fall while Sitting
02:41.4,293,433,649.5,903,290,2.53,395.63,1.42,138.38,291,173,173.4,173,30067,29929,173,1.01,-0.17,-0.04,-2.57,-0.47,-1.18,-10.27,-78.44,-23.16,-9.53,3.72,-22.64,-12.29,Forward Fall while Sitting
02:41.5,577,435,652.5,903,290,2.53,395.63,1.42,138.38,291,172,173.4,173,30067,59513,345,1.01,-0.15,-0.03,-1.79,1.21,-2.31,-9.05,-79.82,-23.31,-9.63,3.53,-22.74,-12.44,Forward Fall while Sitting
02:41.6,902,443,664.5,903,291,2.52,397.54,1.42,138.38,291,172,173.4,173,30067,89097,517,1.01,-0.16,-0.02,-2.85,-0.76,-1.78,-9.61,-79.32,-23.6,-9.97,3.41,-23.04,-12.75,Forward Fall while Sitting
02:41.8,583,445,667.5,903,291,2.52,397.54,1.42,138.38,291,172,173.4,173,30067,118681,689,1.01,-0.14,-0.04,-2.1,1.79,-3.24,-8.55,-80.12,-23.79,-10,3.1,-23.18,-12.8,Forward Fall while Sitting
02:41.9,863,452,678,903,292,2.5,399.45,1.43,138.38,291,171,173.4,173,30067,147922,860,1,-0.15,-0.03,-0.87,1.74,1.18,-9.14,-79.71,-23.83,-10.03,3.34,-23.25,-12.82,Forward Fall while Sitting
02:42.0,995,460,690,995,292,2.5,399.45,1.43,138.38,291,172,173.4,173,30067,177506,1032,1.02,-0.16,-0.03,-1.01,1.04,-0.73,-9.69,-79.11,-23.89,-10.15,3.35,-23.32,-12.91,Forward Fall while Sitting
02:42.1,983,468,702,995,293,2.49,401.37,1.43,138.38,291,171,173.4,173,30067,206747,1203,1.01,-0.16,-0.03,0.18,3.76,-0.53,-9.4,-79.42,-23.8,-9.93,3.38,-23.22,-12.71,Forward Fall while Sitting
02:42.3,843,474,711,995,296,2.46,407.15,1.45,138.38,291,193,173.4,173,30067,178460,1396,1.02,-0.15,-0.02,-4.27,-3.8,-3.2,-9.22,-79.69,-24.26,-10.66,3.08,-23.66,-13.42,Forward Fall while Sitting
02:46.2,0,0,0,0,288,2.55,391.84,1.41,0,0,176,0,0,0,61952,352,1.01,-0.05,0.09,-1.04,-7.79,-1.95,-3.65,-82.66,-0.6,-0.49,-0.78,-0.72,-3.77,Walking
02:46.4,378,189,283.5,378,288,2.55,391.84,1.41,0,0,176,0,0,0,92928,528,1.01,-0.03,-0.03,9.42,12.02,0.98,-2.56,-85.74,0.62,0.74,-0.56,0.49,-2.72,Walking
02:46.5,787,388,582,787,287,2.56,389.95,1.4,0,0,176,0,0,0,123904,704,1.06,-0.06,-0.09,7.2,13.62,-5.93,-4.03,-82.57,1.58,2.16,-1.2,1.35,-1.22,Walking
02:46.6,988,538,807,988,287,2.56,389.95,1.4,0,0,176,0,0,0,154880,880,1.02,-0.02,-0.01,-1.94,-6.37,-6.4,-1.87,-87.08,1.41,1.14,-1.88,1.28,-2.39,Walking
02:46.7,0,430,645,988,285,2.59,386.18,1.39,0,0,175,0,0,0,185505,1055,0.98,-0.05,0.02,-4.11,-6.79,-2.17,-3.79,-84.97,0.97,0.06,-2.05,0.78,-3.34,Walking
02:46.9,0,358,537,988,286,2.58,388.06,1.4,0,0,177,0,0,0,216834,1232,0.99,-0.06,-0.04,-0.68,5.15,-6.07,-3.93,-84.41,0.96,0.44,-2.69,0.76,-2.95,Walking
02:47.0,668,403,604.5,988,285,2.59,386.18,1.39,0,0,175,0,0,0,247459,1407,1,-0.05,0,0.07,13.87,0.6,-3.29,-85.71,1.03,1.9,-2.52,0.86,-1.6,Walking
02:47.1,0,352,528,988,284,2.6,384.3,1.39,0,0,176,0,0,0,278435,1583,1.01,-0.02,-0.01,-2.96,-14.12,9.82,-1.84,-86.94,0.74,-0.07,-1.22,0.64,-3.54,Walking
02:47.2,1000,424,636,1000,285,2.59,386.18,1.39,128.64,286,175,175.8,175,30905,0,0,1.04,-0.09,0.02,2.37,-16.54,6.1,-5.56,-83.3,1.1,-2.36,-0.37,0.84,-5.6,Walking
02:47.3,720,454,681,1000,283,2.61,382.43,1.38,128.64,286,176,175.8,175,30905,30976,176,1.18,-0.09,-0.19,20.24,1.44,2.86,-4.77,-78.33,3.7,-2.43,0.09,3.36,-5.47,Walking
02:47.5,0,412,618,1000,282,2.63,380.57,1.38,128.64,286,175,175.8,175,30905,61601,351,1.05,-0.1,-0.13,20.09,11.28,1.26,-5.75,-79.86,6.26,-1.28,0.34,5.78,-4.43,Walking
02:47.6,998,461,691.5,1000,283,2.61,382.43,1.38,128.64,286,178,175.8,175,30905,93285,529,1.03,-0.12,-0.13,-1.87,-11.19,-1.31,-7.21,-78.63,6.1,-2.92,0.28,5.57,-5.95,Walking
02:47.7,0,426,639,1000,283,2.61,382.43,1.38,128.64,286,178,175.8,175,30905,124969,707,1.08,-0.11,-0.11,-5.84,-0.92,-1.89,-6.6,-80.15,5.44,-3.28,0.14,4.96,-6.36,Walking
02:47.8,0,395,592.5,1000,283,2.61,382.43,1.38,128.64,286,178,175.8,175,30905,156653,885,1.12,-0.11,-0.15,-10.03,2.85,-4.99,-6.12,-79.01,4.27,-3.18,-0.38,3.85,-6.21,Walking
02:48.0,1000,435,652.5,1000,283,2.61,382.43,1.38,128.64,286,178,175.8,175,30905,188337,1063,1.01,-0.09,-0.06,-16.81,0.79,-13.47,-5.74,-82.34,2.22,-3.33,-1.98,1.9,-6.49,Walking
02:48.1,998,471,706.5,1000,285,2.59,386.18,1.39,128.64,286,179,175.8,175,30905,220378,1242,0.83,0,0.03,0.37,24.2,-9.13,-0.68,-86.61,2.34,-0.56,-3.02,2.22,-4,Walking
02:48.2,0,443,664.5,1000,284,2.6,384.3,1.39,128.64,286,176,175.8,175,30905,251354,1418,0.93,-0.01,0.03,-2.17,10.63,10.05,-1.26,-86.72,2.14,0.51,-1.67,2,-2.97,Walking
02:48.3,993,473,709.5,1000,285,2.59,386.18,1.39,128.64,286,176,175.8,175,30905,282330,1594,0.99,-0.04,0.03,-0.37,-11.97,17.12,-2.69,-85.79,2.16,-1.22,0.55,1.97,-4.6,Walking
02:48.5,505,475,712.5,1000,285,2.59,386.18,1.39,122.04,283,175,176.9,176,31294,0,0,1.08,-0.11,-0.02,-6.52,-2.76,5.08,-6.17,-82.69,1.42,-1.81,1.28,1.12,-5.04,Walking
02:48.6,836,493,739.5,1000,285,2.59,386.18,1.39,122.04,283,173,176.9,176,31294,29929,173,1,-0.12,0.09,-6.09,8.49,-3.64,-7.24,-79.99,0.73,-1,0.92,0.41,-4.16,Walking
02:48.7,825,509,763.5,1000,286,2.58,388.06,1.4,122.04,283,174,176.9,176,31294,60205,347,1,-0.12,0.02,-6.51,4.48,-6.16,-7.44,-81.48,-0.01,-0.69,0.25,-0.31,-3.92,Walking
02:48.8,577,512,768,1000,286,2.58,388.06,1.4,122.04,283,173,176.9,176,31294,90134,520,0.99,-0.1,-0.02,-6.02,-3.73,2.64,-6.22,-82.62,-0.69,-1.41,0.68,-0.91,-4.65,Walking
02:49.0,1000,533,799.5,1000,286,2.58,388.06,1.4,122.04,283,172,176.9,176,31294,119718,692,1.06,-0.11,-0.07,-11.59,-7.18,-6.6,-6.26,-81.46,-2.07,-2.55,-0.04,-2.24,-5.71,Walking
02:49.1,0,511,766.5,1000,286,2.58,388.06,1.4,122.04,283,173,176.9,176,31294,149647,865,1,-0.04,-0.03,-13.29,-3.33,-3.23,-3.13,-85.48,-3.66,-3.22,-0.35,-3.64,-6.51,Walking
02:49.2,863,525,787.5,1000,286,2.58,388.06,1.4,122.04,283,173,176.9,176,31294,179576,1038,0.99,-0.05,0.03,-8.37,-1.05,-5.73,-3.54,-84.94,-4.65,-3.6,-0.97,-4.6,-6.86,Walking
02:49.3,742,533,799.5,1000,285,2.59,386.18,1.39,122.04,283,173,176.9,176,31294,209505,1211,1.01,-0.05,0.06,13.53,12.87,3.5,-3.66,-83.99,-2.88,-2.24,-0.44,-2.91,-5.51,Walking
02:49.5,0,514,771,1000,285,2.59,386.18,1.39,122.04,283,174,176.9,176,31294,239781,1385,1.02,-0.08,0.04,17.27,1.47,-0.97,-5.15,-83.24,-0.65,-2.31,-0.46,-0.83,-5.55,Walking
02:49.6,1000,531,796.5,1000,286,2.58,388.06,1.4,122.04,283,175,176.9,176,31294,270406,1560,1.02,-0.06,-0.11,16.98,-7.99,-3.81,-3.96,-81.42,1.54,-3.56,-0.84,1.32,-6.67,Walking
02:49.7,593,533,799.5,1000,286,2.58,388.06,1.4,126.84,285,174,173.4,173,30067,0,0,0.98,-0.07,-0.07,6.81,-7.9,-1.63,-4.61,-82.75,2.45,-4.79,-0.94,2.17,-7.91,Walking
02:49.8,730,540,810,1000,285,2.59,386.18,1.39,126.84,285,172,173.4,173,30067,29584,172,1.02,-0.09,0.01,12.8,10.47,-1.11,-5.57,-83.37,4.11,-3.74,-0.98,3.72,-6.92,Walking
02:50.0,996,554,831,1000,285,2.59,386.18,1.39,126.84,285,173,173.4,173,30067,59513,345,1.05,-0.04,-0.09,7.25,1.04,-3.21,-2.95,-83.2,5.08,-3.86,-1.28,4.76,-7.03,Walking
02:50.1,1000,568,852,1000,286,2.58,388.06,1.4,126.84,285,171,173.4,173,30067,88754,516,1.01,-0.06,-0.09,-2.46,-8.43,-3.23,-3.93,-82.43,4.85,-5.15,-1.58,4.5,-8.24,Walking
02:50.2,336,561,841.5,1000,286,2.58,388.06,1.4,126.84,285,172,173.4,173,30067,118338,688,1.01,-0.06,-0.1,-5.6,1.21,-0.66,-3.73,-81.69,4.22,-5.25,-1.57,3.9,-8.31,Walking
02:50.3,0,545,817.5,1000,286,2.58,388.06,1.4,126.84,285,173,173.4,173,30067,148267,861,1.03,-0.06,-0.02,-6.13,6.75,-0.82,-4.02,-84.74,3.52,-4.66,-1.57,3.22,-7.86,Walking
02:50.5,425,541,811.5,1000,287,2.56,389.95,1.4,126.84,285,174,173.4,173,30067,178543,1035,1.03,-0.06,-0.02,-5.72,2.31,1.99,-3.67,-85.17,2.88,-4.62,-1.22,2.62,-7.84,Walking
02:50.6,1000,554,831,1000,288,2.55,391.84,1.41,126.84,285,175,173.4,173,30067,209168,1210,1.03,-0.07,-0.01,-4.14,-1.92,-0.93,-4.72,-84.21,2.43,-5.11,-1.24,2.15,-8.27,Walking
02:50.7,694,558,837,1000,288,2.55,391.84,1.41,126.84,285,175,173.4,173,30067,239793,1385,1.04,-0.07,-0.05,-9.92,-13.73,-3.8,-4.5,-83.47,1.26,-7.07,-1.62,1.03,-10.13,Walking
02:50.8,607,559,838.5,1000,289,2.54,393.73,1.41,126.84,285,174,173.4,173,30067,270069,1559,0.99,-0.07,-0.22,-12.79,-12.48,3.4,-4.31,-75.43,-0.28,-8.9,-1.09,-0.44,-11.56,Walking
02:51.0,998,570,855,1000,290,2.53,395.63,1.42,129.75,287,175,173.4,173,30068,0,0,1.03,-0.08,-0.13,-10.95,1.19,0.72,-4.92,-79.81,-1.57,-9,-0.9,-1.7,-11.83,Walking
02:51.1,111,559,838.5,1000,290,2.53,395.63,1.42,129.75,287,174,173.4,173,30068,30276,174,0.98,-0.05,-0.12,-5.56,6.02,-0.1,-3.69,-80.84,-2.19,-8.5,-0.82,-2.25,-11.39,Walking
02:51.2,249,551,826.5,1000,291,2.52,397.54,1.42,129.75,287,174,173.4,173,30068,60552,348,1.03,-0.06,-0.13,-23.26,-7.13,3.14,-3.61,-80.44,-5.05,-9.65,-0.32,-4.99,-12.48,Walking
02:51.3,0,538,807,1000,291,2.52,397.54,1.42,129.75,287,174,173.4,173,30068,90828,522,1.03,-0.1,-0.08,-12.09,9.18,-0.59,-6.22,-81.12,-6.49,-8.75,-0.3,-6.48,-11.64,Walking
02:51.5,997,549,823.5,1000,291,2.52,397.54,1.42,129.75,287,174,173.4,173,30068,121104,696,1.04,-0.09,-0.07,-15.26,3.86,-5.63,-5.38,-82.44,-8.33,-8.52,-0.9,-8.21,-11.47,Walking
02:51.6,747,553,829.5,1000,291,2.52,397.54,1.42,129.75,287,174,173.4,173,30068,151380,870,1.03,-0.07,-0.06,-15.3,-5.87,-5.63,-4.5,-83.35,-10.17,-9.5,-1.51,-9.95,-12.45,Walking
02:51.7,313,548,822,1000,291,2.52,397.54,1.42,129.75,287,173,173.4,173,30068,181309,1043,1.02,-0.05,-0.12,-7.39,1.64,-8.61,-3.53,-81.27,-11.03,-9.54,-2.49,-10.73,-12.41,Walking
02:51.8,421,545,817.5,1000,291,2.52,397.54,1.42,129.75,287,173,173.4,173,30068,211238,1216,1.05,-0.02,-0.04,-1.05,4.75,-7.69,-1.45,-86.01,-11.1,-9.2,-3.36,-10.71,-12.27,Walking
02:52.0,674,548,822,1000,290,2.53,395.63,1.42,129.75,287,171,173.4,173,30068,240479,1387,1.03,-0.01,-0.02,8.59,5.85,-8.73,-0.9,-87.24,-9.95,-8.72,-4.35,-9.59,-11.86,Walking
02:52.1,0,536,804,1000,291,2.52,397.54,1.42,129.75,287,171,173.4,173,30068,269720,1558,0.94,0.02,-0.01,30.56,24.41,-9.69,0.7,-86.85,-6.03,-5.89,-5.48,-5.76,-9.13,Walking
02:52.2,0,525,787.5,1000,291,2.52,397.54,1.42,137.94,290,173,173.1,173,29963,0,0,1.01,0.02,-0.06,20.5,6.3,0.99,0.7,-84.87,-3.44,-5.37,-5.26,-3.28,-8.55,Walking
02:52.3,275,520,780,1000,291,2.52,397.54,1.42,137.94,290,173,173.1,173,29963,29929,173,1.03,0.02,-0.04,15.12,7.24,-1.93,0.37,-86.01,-1.48,-4.71,-5.4,-1.41,-7.96,Walking
02:52.5,617,522,783,1000,292,2.5,399.45,1.43,137.94,290,173,173.1,173,29963,59858,346,1,0.01,-0.07,14.37,5.58,-3.08,-0.14,-84.5,0.37,-4.27,-5.68,0.35,-7.47,Walking
02:52.6,1000,531,796.5,1000,293,2.49,401.37,1.43,137.94,290,174,173.1,173,29963,90134,520,1,0.01,-0.01,2.73,-0.14,1.18,-0.19,-87.82,0.78,-4.53,-5.44,0.74,-7.86,Walking
02:52.7,408,529,793.5,1000,293,2.49,401.37,1.43,137.94,290,175,173.1,173,29963,120759,695,1.04,0,-0.04,1.93,1.38,4.92,-0.73,-85.96,1.09,-4.61,-4.72,1.02,-7.86,Walking
02:52.8,301,525,787.5,1000,293,2.49,401.37,1.43,137.94,290,175,173.1,173,29963,151384,870,1.01,0,-0.02,0.09,4.36,-0.55,-0.76,-87.14,1.17,-4.32,-4.69,1.09,-7.63,Walking
02:53.0,994,533,799.5,1000,295,2.47,405.22,1.44,137.94,290,174,173.1,173,29963,181660,1044,1.03,-0.03,-0.04,-9.07,-11.31,4.85,-2.11,-85.79,0.11,-5.98,-3.99,0.02,-9.17,Walking
02:53.1,484,533,799.5,1000,295,2.47,405.22,1.44,137.94,290,172,173.1,173,29963,211244,1216,1.04,-0.03,-0.05,-0.21,2.69,-3.05,-2.01,-85.32,0.15,-5.89,-4.27,0.07,-9.07,Walking
03:09.2,852,852,1278,852,287,2.56,389.95,1.4,0,0,181,0,0,0,65522,362,1.02,-0.04,-0.03,-1.78,2.37,-1.58,-2.62,-85.9,-0.28,-0.17,-0.13,-0.38,-3.6,Relax
03:09.4,924,888,1332,924,288,2.55,391.84,1.41,0,0,181,0,0,0,98283,543,1.02,-0.04,-0.03,-2.24,0.79,-2.52,-2.69,-85.85,-0.49,-0.32,-0.35,-0.58,-3.74,Relax
03:09.5,873,883,1324.5,924,289,2.54,393.73,1.41,0,0,181,0,0,0,131044,724,1.02,-0.03,-0.02,-1.13,0.62,-1.9,-2.23,-86.55,-0.56,-0.49,-0.48,-0.63,-3.94,Relax
03:09.6,512,790,1185,924,290,2.53,395.63,1.42,0,0,184,0,0,0,99364,908,1.01,-0.04,-0.03,-1.57,-0.4,0.06,-2.72,-85.6,-0.68,-0.79,-0.38,-0.77,-4.18,Relax
03:09.7,110,654,981,924,290,2.53,395.63,1.42,0,0,183,0,0,0,67317,1091,1.04,-0.04,-0.03,-3.85,1.11,-0.47,-2.68,-85.64,-1.09,-0.9,-0.34,-1.15,-4.29,Relax
03:09.8,0,545,817.5,924,290,2.53,395.63,1.42,0,0,183,0,0,0,35270,1274,1.03,-0.05,-0.02,-3.22,3.82,-3.31,-3.21,-85.63,-1.41,-0.68,-0.65,-1.49,-4.08,Relax
03:10.0,73,477,715.5,924,290,2.53,395.63,1.42,0,0,181,0,0,0,68031,1455,1.01,-0.03,-0.02,-3.83,2.2,-2.81,-2.09,-86.55,-1.81,-0.65,-0.89,-1.82,-4.09,Relax
03:10.1,207,443,664.5,924,289,2.54,393.73,1.41,0,0,181,0,0,0,100792,1636,1.01,-0.03,0,-2.94,0.63,-0.88,-2.33,-86.66,-2.11,-0.82,-0.91,-2.11,-4.26,Relax
03:10.2,581,459,688.5,924,289,2.54,393.73,1.41,133.9,288,181,115.56,181,13354,0,0,1.02,-0.04,-0.01,-1.5,0.99,-0.24,-2.65,-86.31,-2.22,-0.95,-0.84,-2.24,-4.36,Relax
03:10.3,584,471,706.5,924,289,2.54,393.73,1.41,133.9,288,182,115.56,181,13354,4294934884,182,1.01,-0.04,-0.01,-2.66,0.89,-2.33,-2.63,-86.26,-2.49,-1.09,-1.03,-2.49,-4.49,Relax
03:10.5,257,452,678,924,288,2.55,391.84,1.41,133.9,288,182,115.56,181,13354,4294902472,364,1,-0.03,-0.02,-2.53,0.52,-0.97,-2.04,-86.57,-2.73,-1.27,-1.05,-2.71,-4.69,Relax
03:10.6,532,458,687,924,287,2.56,389.95,1.4,133.9,288,183,115.56,181,13354,4294870425,547,1.01,-0.03,-0.03,-2.95,-0.02,0.4,-2.19,-86.21,-3.03,-1.53,-0.9,-3,-4.91,Relax
03:10.7,993,499,748.5,993,287,2.56,389.95,1.4,133.9,288,183,115.56,181,13354,4294838378,730,1.02,-0.04,-0.01,-1.55,3.46,-0.07,-3.03,-85.84,-3.16,-1.34,-0.81,-3.15,-4.72,Relax
03:10.8,614,508,762,993,287,2.56,389.95,1.4,133.9,288,183,115.56,181,13354,4294806331,913,1.02,-0.03,-0.03,-1.55,1.7,-1.09,-2.42,-85.96,-3.28,-1.38,-0.85,-3.25,-4.76,Relax
03:11.0,585,513,769.5,993,287,2.56,389.95,1.4,133.9,288,183,115.56,181,13354,4294774284,1096,1,-0.05,-0.02,4.08,1.07,-0.68,-3.26,-85.52,-2.7,-1.5,-0.84,-2.72,-4.86,Relax
03:11.1,999,543,814.5,999,286,2.58,388.06,1.4,133.9,288,183,115.56,181,13354,4294742237,1279,1.02,-0.04,0.01,5.37,1.39,-0.41,-3.08,-85.9,-1.96,-1.57,-0.79,-2,-4.95,Relax
03:11.2,880,563,844.5,999,287,2.56,389.95,1.4,133.9,288,183,115.56,181,13354,4294710190,1462,1.01,-0.05,0,7.63,2.34,-9.79,-3.35,-85.65,-0.92,-1.53,-1.92,-1.02,-4.9,Relax
03:11.3,735,572,858,999,287,2.56,389.95,1.4,133.9,288,184,115.56,181,13354,4294678510,1646,0.95,-0.01,0,9.24,1.05,3.03,-1.14,-87.86,0.3,-1.65,-1.45,0.24,-5.1,Relax
03:11.5,824,586,879,999,287,2.56,389.95,1.4,130.18,287,183,20723.53,182,429464640,0,0,1.03,-0.07,0.04,12.64,-0.08,6.92,-4.4,-83.87,1.95,-1.91,-0.48,1.7,-5.19,Relax
03:11.6,997,606,909,999,288,2.55,391.84,1.41,130.18,287,183,20723.53,182,429464640,4294935249,183,1.09,-0.06,0.01,9.05,7.27,-1.82,-3.63,-85.34,3.16,-1.25,-0.61,2.89,-4.61,Relax
