Datetime, ECGRaw , AvgECG , ampECG , MAX , GSRRaw , Resistance , GSR(kohm) , SCL , GSRRMS , GSRMAV , EMGRaw , EMGRMS , EMGMAV , EMGVAR , EMGSSI , IEMG , AccX , AccY, AccZ , GyroX , GyroY , GyroZ , Aroll , Apitch , Groll , Gpitch, Gyaw , Combroll , Combpitch,Features
51:03.2,425,597,895.5,981,362,1.83,547.66,1.77,36.76,363,121,121,121,14640,0,0,1.02,-0.13,-0.04,-1.92,0.56,-1.39,-7.89,-80.7,-2.79,-1.97,-0.64,-3,-5.11,Standing
51:03.3,423,588,882,981,363,1.82,550,1.77,36.76,363,121,121,121,14640,14641,121,1.02,-0.13,-0.04,-1.79,0.4,-1.15,-7.76,-80.87,-2.92,-2.12,-0.67,-3.11,-5.27,Standing
51:03.4,400,579,868.5,981,362,1.83,547.66,1.77,36.76,363,121,121,121,14640,29282,242,1.02,-0.12,-0.04,-1.99,1.18,-1.07,-7.52,-81.05,-3.06,-2.21,-0.7,-3.24,-5.36,Standing
51:03.5,401,571,856.5,981,363,1.82,550,1.77,36.76,363,121,121,121,14640,43923,363,1.02,-0.12,-0.05,-2.04,-0.01,-1.21,-7.19,-81.21,-3.21,-2.41,-0.74,-3.36,-5.56,Standing
51:03.6,440,565,847.5,981,362,1.83,547.66,1.77,36.76,363,121,121,121,14640,58564,484,1.01,-0.12,-0.05,-2.01,0.92,-0.97,-7.08,-81.41,-3.35,-2.51,-0.76,-3.5,-5.67,Standing
51:03.7,427,560,840,981,362,1.83,547.66,1.77,36.76,363,121,121,121,14640,73205,605,1.02,-0.12,-0.05,-2.03,0.76,-1.2,-7.5,-81.04,-3.5,-2.64,-0.8,-3.66,-5.77,Standing
51:03.8,461,556,834,981,362,1.83,547.66,1.77,36.76,363,121,121,121,14640,87846,726,1.02,-0.12,-0.05,-1.83,1.5,-1.41,-7.44,-81.01,-3.62,-2.69,-0.86,-3.78,-5.82,Standing
51:03.9,512,554,831,981,362,1.83,547.66,1.77,36.76,363,121,121,121,14640,102487,847,1.01,-0.13,-0.05,-1.88,0.49,-1.44,-7.68,-80.86,-3.75,-2.84,-0.93,-3.91,-5.96,Standing
51:04.0,458,550,825,981,362,1.83,547.66,1.77,36.76,363,121,121,121,14640,117128,968,1.02,-0.12,-0.05,-1.79,0.72,-1.17,-7.3,-81.17,-3.88,-2.97,-0.97,-4.01,-6.09,Standing
51:04.1,448,547,820.5,981,362,1.83,547.66,1.77,36.76,363,121,121,121,14640,131769,1089,1.01,-0.12,-0.06,-1.95,2.06,-1.08,-7.36,-80.95,-4.02,-2.96,-1,-4.15,-6.08,Standing
51:04.2,465,544,816,981,362,1.83,547.66,1.77,10.82,362,121,121,121,14640,0,0,1.01,-0.12,-0.04,-1.76,1.2,-0.97,-7.43,-81.15,-4.13,-3.04,-1.01,-4.27,-6.16,Standing
51:04.3,604,546,819,981,363,1.82,550,1.77,10.82,362,121,121,121,14640,14641,121,1.01,-0.13,-0.06,-2.12,0.56,-0.93,-7.67,-80.6,-4.29,-3.18,-1.03,-4.42,-6.28,Standing
51:04.4,364,540,810,981,364,1.81,552.35,1.78,10.82,362,121,121,121,14640,29282,242,1.01,-0.13,-0.04,-1.88,1.72,-1.31,-7.89,-80.72,-4.42,-3.21,-1.08,-4.56,-6.31,Standing
51:04.5,461,538,807,981,363,1.82,550,1.77,10.82,362,121,121,121,14640,43923,363,1.01,-0.12,-0.04,-2.01,1.2,-1.32,-7.27,-81.29,-4.57,-3.29,-1.13,-4.67,-6.41,Standing
51:04.6,532,537,805.5,981,363,1.82,550,1.77,10.82,362,121,121,121,14640,58564,484,1.01,-0.13,-0.05,-1.91,0.63,-1.18,-7.83,-80.73,-4.7,-3.43,-1.17,-4.83,-6.52,Standing
51:04.7,524,537,805.5,981,364,1.81,552.35,1.78,10.82,362,121,121,121,14640,73205,605,1.01,-0.12,-0.05,-2.17,0.82,-1.1,-7.5,-80.87,-4.86,-3.54,-1.2,-4.96,-6.64,Standing
51:04.8,550,537,805.5,981,364,1.81,552.35,1.78,10.82,362,120,121,121,14640,87605,725,1.01,-0.12,-0.04,-1.9,1.49,-1.15,-7.56,-81.1,-4.99,-3.59,-1.24,-5.1,-6.69,Standing
51:04.9,539,537,805.5,981,364,1.81,552.35,1.78,10.82,362,121,121,121,14640,102246,846,1.02,-0.12,-0.05,-1.63,1.53,-1.09,-7.42,-81.1,-5.1,-3.64,-1.27,-5.19,-6.74,Standing
51:05.0,628,540,810,981,365,1.8,554.71,1.78,10.82,362,121,121,121,14640,116887,967,1.01,-0.12,-0.04,-1.92,0.93,-1.26,-7.36,-81.26,-5.23,-3.75,-1.32,-5.32,-6.85,Standing
51:05.1,664,543,814.5,981,365,1.8,554.71,1.78,10.82,362,122,121,121,14640,131771,1089,1.02,-0.12,-0.04,-2.06,0.76,-1.27,-7.52,-81.1,-5.39,-3.87,-1.36,-5.47,-6.96,Standing
51:05.2,712,547,820.5,981,365,1.8,554.71,1.78,37.74,364,122,121.1,121,14664,0,0,1.02,-0.13,-0.04,-1.85,1.12,-1.01,-7.62,-80.96,-5.51,-3.96,-1.38,-5.6,-7.04,Standing
51:05.3,691,551,826.5,981,366,1.8,557.08,1.79,37.74,364,122,121.1,121,14664,14884,122,1.01,-0.12,-0.04,-2.02,0.85,-1.08,-7.51,-81.1,-5.66,-4.07,-1.41,-5.73,-7.15,Standing
51:05.4,664,554,831,981,365,1.8,554.71,1.78,37.74,364,122,121.1,121,14664,29768,244,1.01,-0.12,-0.05,-1.92,0.27,-1.03,-7.56,-80.9,-5.79,-4.25,-1.44,-5.86,-7.31,Standing
51:05.5,635,556,834,981,365,1.8,554.71,1.78,37.74,364,121,121.1,121,14664,44409,365,1.02,-0.13,-0.05,-1.83,1.2,-1.59,-7.85,-80.67,-5.92,-4.32,-1.52,-6,-7.38,Standing
51:05.6,521,555,832.5,981,366,1.8,557.08,1.79,37.74,364,121,121.1,121,14664,59050,486,1.02,-0.13,-0.04,-1.79,0.34,-1.39,-8.05,-80.61,-6.04,-4.49,-1.58,-6.12,-7.53,Standing
51:05.7,474,553,829.5,981,365,1.8,554.71,1.78,37.74,364,121,121.1,121,14664,73691,607,1.01,-0.12,-0.05,-1.73,1.76,-1.26,-7.36,-81.08,-6.16,-4.51,-1.62,-6.21,-7.58,Standing
51:05.8,464,551,826.5,981,366,1.8,557.08,1.79,37.74,364,122,121.1,121,14664,88575,729,1.01,-0.12,-0.04,-1.79,1.69,-1.35,-7.42,-81.26,-6.28,-4.55,-1.68,-6.33,-7.61,Standing
51:05.9,412,548,822,981,366,1.8,557.08,1.79,37.74,364,122,121.1,121,14664,103459,851,1.01,-0.12,-0.04,-1.92,1.5,-1.14,-7.28,-81.27,-6.42,-4.59,-1.71,-6.45,-7.66,Standing
51:06.0,392,545,817.5,981,366,1.8,557.08,1.79,37.74,364,121,121.1,121,14664,118100,972,1.02,-0.12,-0.05,-1.96,1.26,-1.14,-7.44,-81.09,-6.56,-4.67,-1.75,-6.59,-7.73,Standing
51:06.1,426,542,813,981,366,1.8,557.08,1.79,37.74,364,122,121.1,121,14664,132984,1094,1.01,-0.12,-0.04,-2.03,0.6,-1.31,-7.48,-81.16,-6.7,-4.81,-1.8,-6.73,-7.86,Standing
51:06.2,401,539,808.5,981,367,1.79,559.45,1.79,52.33,365,121,121.5,121,14761,0,0,1.01,-0.13,-0.05,-1.73,0.87,-1.15,-7.62,-80.88,-6.82,-4.92,-1.84,-6.85,-7.96,Standing
51:06.3,498,538,807,981,367,1.79,559.45,1.79,52.33,365,122,121.5,121,14761,14884,122,1.01,-0.12,-0.05,-2.01,1,-1.07,-7.5,-80.98,-6.96,-5.02,-1.86,-6.98,-8.06,Standing
51:06.4,542,538,807,981,367,1.79,559.45,1.79,52.33,365,122,121.5,121,14761,29768,244,1.01,-0.12,-0.04,-2.11,1.23,-1.01,-7.63,-80.93,-7.12,-5.1,-1.89,-7.14,-8.13,Standing
51:06.5,568,539,808.5,981,367,1.79,559.45,1.79,52.33,365,122,121.5,121,14761,44652,366,1.02,-0.12,-0.05,-2.06,0.92,-1.33,-7.15,-81.38,-7.27,-5.2,-1.94,-7.26,-8.25,Standing
51:06.6,666,541,811.5,981,368,1.78,561.83,1.8,52.33,365,122,121.5,121,14761,59536,488,1.02,-0.13,-0.04,-1.8,1.15,-1.26,-8.09,-80.61,-7.39,-5.29,-1.99,-7.42,-8.3,Standing
51:06.7,912,548,822,981,368,1.78,561.83,1.8,52.33,365,122,121.5,121,14761,74420,610,1.02,-0.12,-0.04,-1.87,1.11,-1.56,-7.42,-81.28,-7.52,-5.38,-2.06,-7.52,-8.41,Standing
51:06.8,576,549,823.5,981,367,1.79,559.45,1.79,52.33,365,122,121.5,121,14761,89304,732,1.01,-0.13,-0.04,-1.87,1.02,-1.16,-7.69,-81,-7.65,-5.47,-2.1,-7.65,-8.49,Standing
51:06.9,561,549,823.5,981,367,1.79,559.45,1.79,52.33,365,122,121.5,121,14761,104188,854,1.01,-0.13,-0.04,-2.05,1.4,-1.18,-7.62,-80.95,-7.8,-5.53,-2.14,-7.79,-8.55,Standing
51:07.0,584,550,825,981,368,1.78,561.83,1.8,52.33,365,122,121.5,121,14761,119072,976,1.02,-0.12,-0.04,-2.02,0.81,-1.31,-7.41,-81.17,-7.95,-5.65,-2.19,-7.92,-8.67,Standing
51:07.1,587,550,825,981,368,1.78,561.83,1.8,52.33,365,122,121.5,121,14761,133956,1098,1.02,-0.12,-0.04,-1.8,1.55,-1.05,-7.39,-81.2,-8.07,-5.7,-2.22,-8.04,-8.72,Standing
51:07.2,578,551,826.5,981,368,1.78,561.83,1.8,63.12,367,122,122,122,14883,0,0,1.01,-0.13,-0.05,-1.85,0.49,-1.08,-7.68,-80.87,-8.2,-5.85,-2.24,-8.18,-8.85,Standing
51:07.3,829,555,832.5,981,368,1.78,561.83,1.8,63.12,367,122,122,122,14883,14884,122,1.02,-0.12,-0.05,-1.95,0.92,-1.23,-7.26,-81.27,-8.34,-5.95,-2.29,-8.29,-8.97,Standing
51:07.4,547,555,832.5,981,368,1.78,561.83,1.8,63.12,367,122,122,122,14883,29768,244,1.02,-0.12,-0.04,-1.85,1.49,-1.39,-7.57,-81.08,-8.46,-6.01,-2.35,-8.43,-9.01,Standing
51:07.5,544,555,832.5,981,369,1.77,564.22,1.8,63.12,367,122,122,122,14883,44652,366,1.02,-0.12,-0.04,-1.79,0.92,-1.12,-7.42,-81.26,-8.59,-6.11,-2.38,-8.54,-9.12,Standing
51:07.6,552,555,832.5,981,368,1.78,561.83,1.8,63.12,367,122,122,122,14883,59536,488,1.02,-0.12,-0.05,-2.01,1.2,-1.32,-7.44,-81.01,-8.73,-6.19,-2.43,-8.68,-9.19,Standing
51:07.7,540,555,832.5,981,368,1.78,561.83,1.8,63.12,367,122,122,122,14883,74420,610,1.01,-0.12,-0.04,-1.92,0.95,-1.15,-7.46,-81.24,-8.87,-6.3,-2.47,-8.81,-9.29,Standing
51:07.8,546,555,832.5,981,369,1.77,564.22,1.8,63.12,367,122,122,122,14883,89304,732,1.01,-0.12,-0.04,-1.98,0.91,-1.17,-7.36,-81.27,-9.01,-6.41,-2.51,-8.94,-9.4,Standing
51:07.9,770,558,837,981,369,1.77,564.22,1.8,63.12,367,122,122,122,14883,104188,854,1.02,-0.12,-0.05,-1.85,1.23,-1.32,-7.28,-81.25,-9.14,-6.48,-2.56,-9.06,-9.47,Standing
51:08.0,452,556,834,981,369,1.77,564.22,1.8,63.12,367,122,122,122,14883,119072,976,1.02,-0.12,-0.04,-2,1.07,-1.18,-7.4,-81.21,-9.28,-6.58,-2.6,-9.2,-9.56,Standing
51:08.1,462,555,832.5,981,370,1.76,566.62,1.81,63.12,367,122,122,122,14883,133956,1098,1.02,-0.13,-0.04,-2.15,1.21,-0.89,-7.86,-80.77,-9.44,-6.65,-2.61,-9.38,-9.62,Standing
51:08.2,498,554,831,981,369,1.77,564.22,1.8,69.77,368,122,122,122,14883,0,0,1.02,-0.13,-0.05,-1.94,0.67,-1.03,-7.58,-80.92,-9.58,-6.79,-2.63,-9.5,-9.75,Standing
51:08.3,527,554,831,981,369,1.77,564.22,1.8,69.77,368,125,122,122,14883,15625,125,1.01,-0.12,-0.04,-1.92,1.76,-1.21,-7.26,-81.35,-9.71,-6.81,-2.67,-9.61,-9.79,Standing
51:08.4,522,553,829.5,981,370,1.76,566.62,1.81,69.77,368,122,122,122,14883,30509,247,1.02,-0.12,-0.04,-1.95,0.84,-1.05,-7.38,-81.26,-9.85,-6.93,-2.7,-9.75,-9.9,Standing
51:08.5,511,553,829.5,981,369,1.77,564.22,1.8,69.77,368,122,122,122,14883,45393,369,1.02,-0.12,-0.04,-1.91,0.71,-0.96,-7.28,-81.26,-9.98,-7.05,-2.72,-9.88,-10.02,Standing
51:08.6,477,551,826.5,981,369,1.77,564.22,1.8,69.77,368,122,122,122,14883,60277,491,1.01,-0.13,-0.04,-1.85,0.82,-1.37,-7.69,-80.96,-10.11,-7.17,-2.77,-10.02,-10.12,Standing
51:08.7,511,551,826.5,981,370,1.76,566.62,1.81,69.77,368,123,122,122,14883,75406,614,1.03,-0.13,-0.04,-1.98,0.58,-0.96,-7.55,-81.09,-10.26,-7.31,-2.79,-10.15,-10.27,Standing
51:08.8,523,551,826.5,981,370,1.76,566.62,1.81,69.77,368,123,122,122,14883,90535,737,1.01,-0.12,-0.05,-2.1,1.07,-1.17,-7.51,-81.02,-10.41,-7.41,-2.83,-10.29,-10.35,Standing
51:08.9,567,551,826.5,981,371,1.76,569.02,1.81,69.77,368,123,122,122,14883,105664,860,1.01,-0.12,-0.04,-2.01,1.98,-1.18,-7.17,-81.44,-10.55,-7.41,-2.87,-10.42,-10.37,Standing
51:09.0,582,551,826.5,981,370,1.76,566.62,1.81,69.77,368,123,122,122,14883,120793,983,1.02,-0.12,-0.04,-1.95,0.56,-1.21,-7.37,-81.31,-10.7,-7.56,-2.91,-10.56,-10.51,Standing
51:09.1,594,552,828,981,371,1.76,569.02,1.81,69.77,368,122,122,122,14883,135677,1105,1.02,-0.13,-0.03,-1.93,0.03,-1.31,-7.6,-81.16,-10.83,-7.75,-2.96,-10.7,-10.69,Standing
51:09.2,845,555,832.5,981,371,1.76,569.02,1.81,76.34,370,123,122.8,122,15079,0,0,1.01,-0.12,-0.04,-1.98,1.16,-1.27,-7.58,-81.07,-10.97,-7.83,-3.01,-10.84,-10.76,Standing
51:09.3,483,554,831,981,370,1.76,566.62,1.81,76.34,370,122,122.8,122,15079,14884,122,1.01,-0.13,-0.04,-1.97,0.18,-1.08,-7.79,-80.83,-11.11,-8.02,-3.04,-10.98,-10.93,Standing
51:09.4,421,553,829.5,981,370,1.76,566.62,1.81,76.34,370,123,122.8,122,15079,30013,245,1.01,-0.12,-0.05,-1.87,0.69,-1.31,-7.37,-81.13,-11.25,-8.15,-3.09,-11.09,-11.07,Standing
51:09.5,443,551,826.5,981,371,1.76,569.02,1.81,76.34,370,123,122.8,122,15079,45142,368,1.01,-0.12,-0.05,-2.09,0.37,-0.93,-7.24,-81.29,-11.4,-8.31,-3.1,-11.23,-11.23,Standing
51:09.6,505,551,826.5,981,372,1.75,571.43,1.82,76.34,370,125,122.8,122,15079,60767,493,1.02,-0.12,-0.05,-2.16,0.29,-1.15,-7.51,-80.98,-11.56,-8.48,-3.14,-11.4,-11.38,Standing
51:09.7,530,551,826.5,981,371,1.76,569.02,1.81,76.34,370,123,122.8,122,15079,75896,616,1.02,-0.12,-0.04,-1.98,1.47,-1.13,-7.54,-81.03,-11.7,-8.54,-3.17,-11.53,-11.44,Standing
51:09.8,821,554,831,981,372,1.75,571.43,1.82,76.34,370,123,122.8,122,15079,91025,739,1.02,-0.12,-0.04,-1.96,1.11,-1.19,-7.3,-81.3,-11.84,-8.63,-3.21,-11.66,-11.53,Standing
51:09.9,527,554,831,981,371,1.76,569.02,1.81,76.34,370,123,122.8,122,15079,106154,862,1.02,-0.12,-0.05,-1.78,1.06,-1.37,-7.32,-81.21,-11.96,-8.72,-3.27,-11.78,-11.62,Standing
51:10.0,542,553,829.5,981,372,1.75,571.43,1.82,76.34,370,123,122.8,122,15079,121283,985,1.02,-0.12,-0.04,-1.85,1.15,-1.39,-7.5,-81.06,-12.09,-8.81,-3.33,-11.91,-11.7,Standing
51:10.1,580,554,831,981,372,1.75,571.43,1.82,76.34,370,123,122.8,122,15079,136412,1108,1.02,-0.12,-0.05,-1.88,1.44,-1.16,-7.36,-81.17,-12.23,-8.86,-3.37,-12.03,-11.75,Standing
51:10.2,588,554,831,981,372,1.75,571.43,1.82,82.41,371,123,123.1,123,15153,0,0,1.02,-0.12,-0.04,-1.85,2.24,-1.65,-7.52,-81.1,-12.35,-8.84,-3.46,-12.16,-11.73,Standing
51:10.3,568,554,831,981,372,1.75,571.43,1.82,82.41,371,123,123.1,123,15153,15129,123,1.01,-0.12,-0.03,-1.48,5.36,-1.54,-7.34,-81.41,-12.45,-8.5,-3.53,-12.24,-11.42,Standing
51:10.4,502,554,831,981,372,1.75,571.43,1.82,82.41,371,123,123.1,123,15153,30258,246,1.02,-0.12,-0.03,-1.9,6.44,-1.8,-7.14,-81.62,-12.58,-8.06,-3.63,-12.36,-11,Standing
51:10.5,453,553,829.5,981,372,1.75,571.43,1.82,82.41,371,123,123.1,123,15153,45387,369,1.01,-0.12,-0.02,-1.59,7.3,-2.05,-7.27,-81.66,-12.68,-7.53,-3.76,-12.47,-10.49,Standing
51:10.6,482,552,828,981,372,1.75,571.43,1.82,82.41,371,125,123.1,123,15153,61012,494,1.02,-0.12,-0.01,-7.99,-1.93,-1.84,-7.31,-81.64,-13.43,-7.92,-3.86,-13.18,-10.87,Standing
51:10.7,506,551,826.5,981,373,1.74,573.85,1.82,82.41,371,123,123.1,123,15153,76141,617,1.04,-0.12,-0.02,-6.64,-1.47,-6.07,-7.3,-81.63,-14.04,-8.27,-4.4,-13.77,-11.21,Standing
51:10.8,532,551,826.5,981,372,1.75,571.43,1.82,82.41,371,123,123.1,123,15153,91270,740,1.05,-0.12,-0.01,-2.34,5.56,-15.39,-7.24,-81.74,-14.22,-7.92,-5.86,-13.94,-10.87,Standing
51:10.9,564,551,826.5,981,373,1.74,573.85,1.82,82.41,371,123,123.1,123,15153,106399,863,1,-0.05,0,-1.94,3.37,-18.31,-3.59,-85.4,-14.36,-7.78,-7.61,-13.93,-10.88,Standing
51:11.0,517,551,826.5,981,372,1.75,571.43,1.82,82.41,371,123,123.1,123,15153,121528,986,0.92,-0.02,0.01,0.69,-3.93,-4.18,-1.82,-87.08,-14.23,-8.38,-7.95,-13.73,-11.53,Standing
51:11.1,444,550,825,981,373,1.74,573.85,1.82,82.41,371,123,123.1,123,15153,136657,1109,1.02,-0.05,-0.03,2.61,-3.36,6.12,-3.18,-85.36,-13.91,-8.91,-7.26,-13.48,-11.97,Standing
51:11.2,454,549,823.5,981,372,1.75,571.43,1.82,86.8,372,123,123.2,123,15177,0,0,1.04,-0.07,-0.03,-2.33,-0.04,5.85,-4.47,-84.28,-14.09,-9.12,-6.6,-13.7,-12.12,Standing
51:11.3,458,548,822,981,372,1.75,571.43,1.82,86.8,372,122,123.2,123,15177,14884,122,1.03,-0.08,-0.04,-3.74,4.76,1.09,-5.3,-83.27,-14.41,-8.84,-6.41,-14.04,-11.82,Standing
51:11.4,534,543,814.5,981,372,1.75,571.43,1.82,86.8,372,123,123.2,123,15177,30013,245,1.02,-0.08,-0.01,-2.72,3.13,-1.46,-5.01,-83.98,-14.62,-8.73,-6.48,-14.24,-11.74,Standing
51:11.5,577,540,810,981,372,1.75,571.43,1.82,86.8,372,123,123.2,123,15177,45142,368,1.02,-0.07,0,-3.24,-1.88,-2.97,-4.67,-84.33,-14.89,-9.11,-6.7,-14.48,-12.12,Standing
51:11.6,530,537,805.5,981,373,1.74,573.85,1.82,86.8,372,123,123.2,123,15177,60271,491,1.02,-0.06,-0.02,-2.95,-2.37,-2.83,-4.1,-84.69,-15.13,-9.56,-6.9,-14.69,-12.56,Standing
51:11.7,558,534,801,981,373,1.74,573.85,1.82,86.8,372,123,123.2,123,15177,75400,614,1.01,-0.07,-0.02,-1.76,0.39,-1.56,-4.37,-84.47,-15.25,-9.72,-6.98,-14.82,-12.71,Standing
51:11.8,575,533,799.5,981,374,1.74,576.27,1.83,86.8,372,126,123.2,123,15177,91276,740,1.03,-0.07,0,-1.43,1.43,-1.72,-4.53,-84.46,-15.34,-9.77,-7.07,-14.91,-12.76,Standing
51:11.9,584,532,798,981,373,1.74,573.85,1.82,86.8,372,123,123.2,123,15177,106405,863,1.02,-0.06,-0.01,-1.33,-0.41,-2.08,-4.13,-84.86,-15.42,-10.02,-7.2,-14.96,-13.01,Standing
51:12.0,588,530,795,981,373,1.74,573.85,1.82,86.8,372,123,123.2,123,15177,121534,986,1.02,-0.07,-0.02,-1.34,-0.74,-1.36,-4.7,-84.12,-15.49,-10.29,-7.26,-15.06,-13.24,Standing
51:12.1,568,531,796.5,981,373,1.74,573.85,1.82,86.8,372,124,123.2,123,15177,136910,1110,1.01,-0.06,-0.03,-1.24,0.54,-1.37,-4.02,-84.62,-15.56,-10.44,-7.32,-15.1,-13.41,Standing
51:12.2,536,533,799.5,981,373,1.74,573.85,1.82,88.93,372,123,123.3,123,15202,0,0,1.01,-0.06,-0.03,-2.79,0.76,-0.5,-4.05,-84.6,-15.78,-10.56,-7.29,-15.31,-13.52,Standing
51:12.3,532,535,802.5,981,373,1.74,573.85,1.82,88.93,372,124,123.3,123,15202,15376,124,1.02,-0.07,-0.02,-1.6,1.37,-1.7,-4.43,-84.42,-15.89,-10.63,-7.38,-15.43,-13.58,Standing
51:12.4,536,537,805.5,981,374,1.74,576.27,1.83,88.93,372,124,123.3,123,15202,30752,248,1.01,-0.06,-0.02,-1.24,0.37,-1.07,-4.07,-84.77,-15.95,-10.79,-7.41,-15.48,-13.75,Standing
51:12.5,534,539,808.5,981,373,1.74,573.85,1.82,88.93,372,124,123.3,123,15202,46128,372,1.01,-0.07,-0.02,-1.7,0.85,0.55,-4.3,-84.55,-16.07,-10.9,-7.27,-15.6,-13.85,Standing
51:12.6,547,541,811.5,981,375,1.73,578.7,1.83,88.93,372,124,123.3,123,15202,61504,496,1.02,-0.07,-0.03,-2.53,1.15,-0.17,-4.48,-84.21,-16.27,-10.99,-7.21,-15.79,-13.92,Standing
51:12.7,540,541,811.5,981,374,1.74,576.27,1.83,88.93,372,127,123.3,123,15202,77633,623,1.01,-0.07,-0.03,-2.31,0.77,-0.91,-4.42,-84.25,-16.44,-11.11,-7.22,-15.96,-14.04,Standing
51:12.8,537,539,808.5,981,375,1.73,578.7,1.83,88.93,372,125,123.3,123,15202,93258,748,1.02,-0.07,-0.02,-1.85,0.85,-0.77,-4.65,-84.18,-16.57,-11.23,-7.22,-16.1,-14.15,Standing
51:12.9,478,538,807,981,374,1.74,576.27,1.83,88.93,372,125,123.3,123,15202,108883,873,1.02,-0.08,-0.02,-1.19,1.1,-1.44,-5.09,-83.79,-16.64,-11.32,-7.29,-16.17,-14.22,Standing
51:13.0,523,537,805.5,981,375,1.73,578.7,1.83,88.93,372,126,123.3,123,15202,124759,999,1.01,-0.08,-0.02,-1.41,0.13,-2.67,-4.93,-83.9,-16.72,-11.51,-7.48,-16.25,-14.4,Standing
51:13.1,512,536,804,981,375,1.73,578.7,1.83,88.93,372,125,123.3,123,15202,140384,1124,1.01,-0.07,-0.03,-2.7,-1.63,-0.38,-4.28,-84.38,-16.94,-11.87,-7.44,-16.43,-14.77,Standing
51:22.8,1000,1000,1500,1000,331,2.09,478.32,1.62,0,0,118,0,0,0,28085,237,1.01,-0.01,0.01,-6.27,-4.44,1.66,-1.04,-87.61,-0.34,-0.49,-0.67,-0.37,-3.97,Left Fall while Standing
51:22.9,998,999,1498.5,1000,331,2.09,478.32,1.62,0,0,116,0,0,0,41541,353,1.05,-0.02,-0.02,-2.29,0.44,-1.96,-1.51,-86.86,-0.51,-0.64,-0.78,-0.55,-4.09,Left Fall while Standing
51:23.0,999,999,1498.5,1000,331,2.09,478.32,1.62,0,0,116,0,0,0,54997,469,1.04,-0.04,-0.02,-2.37,2.66,-6.18,-2.99,-85.82,-0.69,-0.57,-1.31,-0.78,-3.98,Left Fall while Standing
51:23.1,907,976,1464,1000,331,2.09,478.32,1.62,0,0,119,0,0,0,69158,588,1.03,0.02,-0.02,-1.06,6.76,-11.72,0.64,-86.62,-0.73,-0.11,-2.38,-0.68,-3.57,Left Fall while Standing
51:23.2,663,913,1369.5,1000,331,2.09,478.32,1.62,0,0,119,0,0,0,83319,707,0.99,0.04,-0.01,-1.02,9.8,-7.28,1.91,-85.8,-0.78,0.67,-3.02,-0.67,-2.79,Left Fall while Standing
51:23.3,563,855,1282.5,1000,331,2.09,478.32,1.62,0,0,117,0,0,0,97008,824,0.97,0,0.1,-3.37,-2.78,6.02,-0.39,-82.33,-1.05,0.2,-2.36,-1.03,-3.1,Left Fall while Standing
51:23.4,532,808,1212,1000,332,2.08,480.46,1.62,0,0,116,0,0,0,110464,940,1.06,0,-0.04,2.4,3.98,-0.73,-0.71,-86.46,-0.77,0.39,-2.36,-0.76,-3.08,Left Fall while Standing
51:23.5,479,767,1150.5,1000,332,2.08,480.46,1.62,0,0,117,0,0,0,124153,1057,1.06,0.01,0,-5.29,11.92,-11.4,-0.21,-88.04,-1.23,1.38,-3.41,-1.19,-2.2,Left Fall while Standing
51:23.6,461,733,1099.5,1000,332,2.08,480.46,1.62,20723.79,331,118,117.5,117,13806,0,0,0.99,0.06,-0.04,-12.37,8.4,-9.54,3.01,-84.04,-2.4,2.01,-4.27,-2.19,-1.43,Left Fall while Standing
51:23.7,477,707,1060.5,1000,332,2.08,480.46,1.62,20723.79,331,118,117.5,117,13806,13924,118,0.99,0.04,0.06,-2.11,3.82,-8.47,1.92,-84.32,-2.56,2.19,-5.04,-2.38,-1.27,Left Fall while Standing
51:23.8,489,688,1032,1000,332,2.08,480.46,1.62,20723.79,331,118,117.5,117,13806,27848,236,0.99,0.06,0.11,-2.27,3.19,-4.07,2.64,-81.24,-2.73,2.31,-5.37,-2.51,-1.03,Left Fall while Standing
51:23.9,506,672,1008,1000,333,2.07,482.61,1.63,20723.79,331,118,117.5,117,13806,41772,354,1.04,0.05,0.04,1.19,0.72,-6.55,2.39,-84.65,-2.55,2.18,-5.94,-2.36,-1.29,Left Fall while Standing
51:24.0,535,662,993,1000,333,2.07,482.61,1.63,20723.79,331,117,117.5,117,13806,55461,471,1.04,0.07,0.08,5.32,2.62,-12.98,3.3,-82.42,-1.97,2.25,-7.15,-1.76,-1.14,Left Fall while Standing
51:24.1,552,654,981,1000,332,2.08,480.46,1.62,20723.79,331,118,117.5,117,13806,69385,589,0.99,0.09,0.06,9.73,5.11,-18.89,4.84,-81.95,-0.94,2.56,-8.96,-0.71,-0.82,Left Fall while Standing
51:24.2,577,649,973.5,1000,333,2.07,482.61,1.63,20723.79,331,117,117.5,117,13806,83074,706,0.95,0.15,0.02,-1.46,0.68,-13.21,8.57,-79.15,-1.03,2.42,-10.2,-0.65,-0.84,Left Fall while Standing
51:24.3,594,645,967.5,1000,333,2.07,482.61,1.63,20723.79,331,117,117.5,117,13806,96763,823,0.99,0.15,0.08,-1.39,0.49,-9.67,7.81,-78.94,-1.11,2.28,-11.08,-0.76,-0.97,Left Fall while Standing
51:24.4,584,642,963,1000,332,2.08,480.46,1.62,20723.79,331,117,117.5,117,13806,110452,940,0.99,0.17,0.06,-0.02,-1.2,-12.04,9.37,-77.95,-1.06,1.95,-12.22,-0.64,-1.24,Left Fall while Standing
51:24.5,559,637,955.5,1000,332,2.08,480.46,1.62,20723.79,331,117,117.5,117,13806,124141,1057,0.99,0.2,0.09,2.4,2.56,-12.93,10.58,-76.12,-0.76,2.01,-13.43,-0.31,-1.12,Left Fall while Standing
51:24.6,507,630,945,1000,333,2.07,482.61,1.63,20723.81,332,117,117.4,117,13782,0,0,1.02,0.2,0.04,5.41,5.34,-14.19,10.65,-76.92,-0.18,2.33,-14.75,0.26,-0.84,Left Fall while Standing
51:24.7,528,625,937.5,1000,332,2.08,480.46,1.62,20723.81,332,117,117.4,117,13782,13689,117,1,0.23,0.02,1.12,1.34,-20.19,12.54,-75.25,-0.01,2.27,-16.71,0.49,-0.83,Left Fall while Standing
51:24.8,516,620,930,1000,332,2.08,480.46,1.62,20723.81,332,118,117.4,117,13782,27613,235,0.95,0.27,0.05,-1.69,3.11,-19.08,15.35,-72.23,-0.12,2.38,-18.52,0.5,-0.61,Left Fall while Standing
51:24.9,490,614,921,1000,332,2.08,480.46,1.62,20723.81,332,118,117.4,117,13782,41537,353,0.93,0.28,0.05,-1.69,0.66,-9.27,16.31,-71.29,-0.23,2.25,-19.37,0.43,-0.7,Left Fall while Standing
51:25.0,524,610,915,1000,333,2.07,482.61,1.63,20723.81,332,117,117.4,117,13782,55226,470,0.97,0.29,0.07,0.81,0.84,-7.15,15.88,-71.52,-0.09,2.13,-20,0.54,-0.82,Left Fall while Standing
51:25.1,568,608,912,1000,332,2.08,480.46,1.62,20723.81,332,117,117.4,117,13782,68915,587,0.98,0.32,0.05,1.18,-4.1,-12.71,17.39,-70.2,0.08,1.52,-21.19,0.77,-1.35,Left Fall while Standing
51:25.2,520,605,907.5,1000,332,2.08,480.46,1.62,20723.81,332,117,117.4,117,13782,82604,704,0.95,0.33,0.07,2.86,-4.63,-15.55,18.81,-68.61,0.42,0.86,-22.65,1.15,-1.92,Left Fall while Standing
51:25.3,553,603,904.5,1000,332,2.08,480.46,1.62,20723.81,332,117,117.4,117,13782,96293,821,0.96,0.37,0.01,1.86,-1.9,-20.7,20.32,-67.52,0.66,0.47,-24.67,1.45,-2.25,Left Fall while Standing
51:25.4,556,601,901.5,1000,330,2.1,476.19,1.61,20723.81,332,117,117.4,117,13782,109982,938,0.91,0.4,0,-1.79,0.46,-19.33,23.27,-64.57,0.54,0.32,-26.5,1.45,-2.28,Left Fall while Standing
51:25.5,577,600,900,1000,329,2.11,474.06,1.61,20723.81,332,117,117.4,117,13782,123671,1055,0.91,0.44,0.03,-2.44,-2.19,-13.49,25.3,-62.49,0.35,-0.1,-27.77,1.35,-2.6,Left Fall while Standing
51:25.6,578,599,898.5,1000,328,2.12,471.94,1.6,20723.79,331,117,117.2,117,13735,0,0,0.88,0.43,0,-4.53,-0.32,-10.44,25.63,-62.21,-0.04,-0.34,-28.74,0.98,-2.81,Left Fall while Standing
51:25.7,545,597,895.5,1000,327,2.13,469.83,1.6,20723.79,331,117,117.2,117,13735,13689,117,0.89,0.45,0.03,-4.02,1.01,-8.07,26.31,-61.47,-0.39,-0.43,-29.46,0.68,-2.88,Left Fall while Standing
51:25.8,503,594,891,1000,326,2.14,467.72,1.59,20723.79,331,117,117.2,117,13735,27378,234,0.91,0.46,0.04,-5.2,3.21,-11.92,26.04,-61.71,-0.85,-0.31,-30.58,0.22,-2.77,Left Fall while Standing
51:25.9,483,591,886.5,1000,324,2.16,463.52,1.58,20723.79,331,117,117.2,117,13735,41067,351,0.88,0.48,0.06,-2.08,1.49,-15.3,27.93,-59.68,-1.01,-0.36,-32.03,0.15,-2.74,Left Fall while Standing
51:26.0,418,586,879,1000,324,2.16,463.52,1.58,20723.79,331,117,117.2,117,13735,54756,468,0.86,0.5,0.04,4.05,-2.12,-15.93,29.55,-58.15,-0.55,-0.78,-33.54,0.66,-3.07,Left Fall while Standing
51:26.1,532,584,876,1000,323,2.17,461.43,1.58,20723.79,331,116,117.2,117,13735,68212,584,0.84,0.53,0,0.4,-2.79,-14.24,31.86,-55.98,-0.45,-1.26,-34.89,0.84,-3.45,Left Fall while Standing
51:26.2,486,581,871.5,1000,322,2.18,459.34,1.57,20723.79,331,116,117.2,117,13735,81668,700,0.82,0.54,0.01,-2.38,0.12,-11.9,32.47,-55.37,-0.63,-1.45,-36.01,0.69,-3.6,Left Fall while Standing
51:26.3,522,580,870,1000,321,2.19,457.26,1.57,20723.79,331,116,117.2,117,13735,95124,816,0.83,0.55,0.02,-3.94,0.08,-9.85,33.01,-54.8,-0.97,-1.64,-36.91,0.39,-3.76,Left Fall while Standing
51:26.4,530,578,867,1000,321,2.19,457.26,1.57,20723.79,331,116,117.2,117,13735,108580,932,0.84,0.57,0.01,-1.95,-0.56,-13.9,33.32,-54.51,-1.11,-1.89,-38.21,0.27,-4,Left Fall while Standing
51:26.5,545,577,865.5,1000,321,2.19,457.26,1.57,20723.79,331,116,117.2,117,13735,122036,1048,0.81,0.59,0,-4.76,-2.37,-15.76,35.71,-52.13,-1.54,-2.34,-39.74,-0.05,-4.33,Left Fall while Standing
51:26.6,602,578,867,1000,322,2.18,459.34,1.57,20723.66,323,116,116.4,116,13548,0,0,0.76,0.62,0,-3.8,-0.38,-12.16,38.39,-49.45,-1.86,-2.57,-40.86,-0.25,-4.45,Left Fall while Standing
51:26.7,648,580,870,1000,321,2.19,457.26,1.57,20723.66,323,119,116.4,116,13548,14161,119,0.78,0.62,0.03,-1.59,0.56,-9.3,38.05,-49.75,-1.96,-2.72,-41.72,-0.36,-4.6,Left Fall while Standing
51:26.8,561,579,868.5,1000,321,2.19,457.26,1.57,20723.66,323,116,116.4,116,13548,27617,235,0.77,0.62,0.01,-1.66,-0.95,-10.7,38.12,-49.72,-2.07,-3.01,-42.72,-0.46,-4.88,Left Fall while Standing
51:26.9,614,580,870,1000,321,2.19,457.26,1.57,20723.66,323,116,116.4,116,13548,41073,351,0.77,0.64,0,-0.16,-0.25,-10.6,39.34,-48.5,-2.03,-3.24,-43.7,-0.38,-5.05,Left Fall while Standing
51:27.0,618,581,871.5,1000,321,2.19,457.26,1.57,20723.66,323,118,116.4,116,13548,54997,469,0.74,0.65,0,-3.26,0.15,-14.55,40.65,-47.19,-2.3,-3.42,-45.09,-0.59,-5.18,Left Fall while Standing
51:27.1,507,579,868.5,1000,321,2.19,457.26,1.57,20723.66,323,118,116.4,116,13548,68921,587,0.73,0.68,0.01,-2.46,0.56,-13.56,42.37,-45.46,-2.49,-3.57,-46.36,-0.7,-5.24,Left Fall while Standing
51:27.2,589,579,868.5,1000,321,2.19,457.26,1.57,20723.66,323,116,116.4,116,13548,82377,703,0.7,0.68,0,0.23,-0.54,-12.18,43.73,-44.11,-2.42,-3.82,-47.5,-0.57,-5.43,Left Fall while Standing
51:27.3,624,580,870,1000,322,2.18,459.34,1.57,20723.66,323,116,116.4,116,13548,95833,819,0.7,0.7,-0.01,-2.4,-1.34,-12.6,44.5,-43.34,-2.6,-4.16,-48.69,-0.72,-5.73,Left Fall while Standing
51:27.4,758,584,876,1000,323,2.17,461.43,1.58,20723.66,323,116,116.4,116,13548,109289,935,0.67,0.71,-0.01,-7.05,-9.41,-6.99,46.29,-41.55,-3.26,-5.31,-49.32,-1.27,-6.76,Left Fall while Standing
51:27.5,985,592,888,1000,323,2.17,461.43,1.58,20723.66,323,116,116.4,116,13548,122745,1051,0.66,0.71,0.01,5.24,8.05,-5.25,46.71,-41.11,-2.68,-4.71,-49.77,-0.7,-6.16,Left Fall while Standing
51:27.6,640,593,889.5,1000,323,2.17,461.43,1.58,20723.64,321,116,116.7,116,13619,0,0,0.67,0.72,-0.04,-3.64,-10.06,6.86,46.21,-41.54,-2.98,-5.91,-49,-1.02,-7.34,Left Fall while Standing
51:27.7,596,593,889.5,1000,323,2.17,461.43,1.58,20723.64,321,116,116.7,116,13619,13456,116,0.71,0.72,-0.02,-4.42,-6.89,8.97,44.64,-43.17,-3.37,-6.8,-48.03,-1.45,-8.26,Left Fall while Standing
51:27.8,648,595,892.5,1000,323,2.17,461.43,1.58,20723.64,321,116,116.7,116,13619,26912,232,0.71,0.67,-0.06,-2.05,2.97,12.05,42.83,-44.82,-3.52,-6.71,-46.74,-1.66,-8.23,Left Fall while Standing
51:27.9,511,593,889.5,1000,322,2.18,459.34,1.57,20723.64,321,116,116.7,116,13619,40368,348,0.78,0.68,-0.06,-10.4,9.12,8.79,40.63,-47.04,-4.51,-5.99,-45.77,-2.71,-7.63,Left Fall while Standing
51:28.0,376,589,883.5,1000,322,2.18,459.34,1.57,20723.64,321,116,116.7,116,13619,53824,464,0.74,0.66,0.02,-12.08,-2.59,5.62,41.28,-46.53,-5.66,-6.45,-45.13,-3.79,-8.05,Left Fall while Standing
51:28.1,359,585,877.5,1000,321,2.19,457.26,1.57,20723.64,321,116,116.7,116,13619,67280,580,0.73,0.63,0.04,-3.4,-3.59,6.85,40.35,-47.4,-5.95,-7,-44.37,-4.1,-8.62,Left Fall while Standing
51:28.2,356,580,870,1000,321,2.19,457.26,1.57,20723.64,321,116,116.7,116,13619,80736,696,0.77,0.66,-0.01,-0.23,0.28,7.02,39.7,-48.13,-5.92,-7.18,-43.59,-4.09,-8.81,Left Fall while Standing
51:28.3,351,576,864,1000,321,2.19,457.26,1.57,20723.64,321,118,116.7,116,13619,94660,814,0.77,0.62,-0.01,-1.57,4.92,1.6,38.5,-49.33,-6.02,-6.88,-43.35,-4.24,-8.58,Left Fall while Standing
51:28.4,385,573,859.5,1000,320,2.2,455.19,1.56,20723.64,321,116,116.7,116,13619,108116,930,0.76,0.62,-0.01,-5,1.22,3.47,38.42,-49.42,-6.47,-6.96,-42.92,-4.67,-8.66,Left Fall while Standing
51:28.5,445,571,856.5,1000,320,2.2,455.19,1.56,20723.64,321,116,116.7,116,13619,121572,1046,0.77,0.62,0,-5.02,1.63,6.44,38.38,-49.46,-6.91,-7,-42.2,-5.1,-8.7,Left Fall while Standing
51:28.6,442,569,853.5,1000,320,2.2,455.19,1.56,20723.63,321,116,116.2,116,13501,0,0,0.78,0.61,-0.01,-7.44,0.23,10.91,37.77,-50.07,-7.59,-7.18,-41.04,-5.78,-8.89,Left Fall while Standing
51:28.7,471,567,850.5,1000,320,2.2,455.19,1.56,20723.63,321,116,116.2,116,13501,13456,116,0.8,0.59,0.01,-7.67,5.47,14.5,35.91,-51.92,-8.31,-6.83,-39.49,-6.54,-8.63,Left Fall while Standing
51:28.8,471,565,847.5,1000,320,2.2,455.19,1.56,20723.63,321,115,116.2,116,13501,26681,231,0.82,0.55,0.02,-9.74,11.5,15.58,33.06,-54.74,-9.23,-5.87,-37.86,-7.54,-7.83,Left Fall while Standing
51:28.9,479,564,846,1000,320,2.2,455.19,1.56,20723.63,321,115,116.2,116,13501,39906,346,0.85,0.54,0.07,-13.31,4.39,8.85,31.54,-55.98,-10.5,-5.64,-36.89,-8.82,-7.65,Left Fall while Standing
51:29.0,558,564,846,1000,320,2.2,455.19,1.56,20723.63,321,116,116.2,116,13501,53362,462,0.8,0.53,0.14,-5.58,5.6,11.53,32.33,-54.29,-11.01,-5.27,-35.65,-9.28,-7.23,Left Fall while Standing
51:29.1,553,564,846,1000,320,2.2,455.19,1.56,20723.63,321,116,116.2,116,13501,66818,578,0.84,0.49,0.12,-0.23,-6.82,13.81,29.31,-57.48,-10.98,-6.15,-34.19,-9.37,-8.21,Left Fall while Standing
51:29.2,602,564,846,1000,320,2.2,455.19,1.56,20723.63,321,115,116.2,116,13501,80043,693,0.88,0.48,0.08,6.73,-9.47,15.87,27.86,-59.53,-10.25,-7.3,-32.52,-8.72,-9.39,Left Fall while Standing
51:29.3,595,565,847.5,1000,321,2.19,457.26,1.57,20723.63,321,116,116.2,116,13501,93499,809,0.87,0.45,0.05,7.51,-4.18,16.43,26.86,-60.81,-9.43,-7.92,-30.78,-7.98,-10.04,Left Fall while Standing
51:29.4,545,564,846,1000,320,2.2,455.19,1.56,20723.63,321,116,116.2,116,13501,106955,925,0.92,0.42,0.02,2.91,-0.56,16.5,24.13,-63.69,-9.09,-8.18,-29.05,-7.76,-10.4,Left Fall while Standing
51:29.5,490,563,844.5,1000,321,2.19,457.26,1.57,20723.63,321,115,116.2,116,13501,120180,1040,0.9,0.4,-0.01,1.75,8.65,14.42,23.08,-64.75,-8.86,-7.51,-27.53,-7.58,-9.8,Left Fall while Standing
51:29.6,516,563,844.5,1000,321,2.19,457.26,1.57,20723.62,320,116,115.6,115,13362,0,0,0.96,0.39,0.03,-5.36,7.38,15.05,21.68,-66.11,-9.34,-6.98,-25.95,-8.1,-9.34,Left Fall while Standing
51:29.7,570,563,844.5,1000,321,2.19,457.26,1.57,20723.62,320,116,115.6,115,13362,13456,116,0.96,0.37,0.07,-6.54,6.55,7.06,20.25,-67.22,-9.93,-6.52,-25.16,-8.73,-8.95,Left Fall while Standing
51:29.8,550,562,843,1000,322,2.18,459.34,1.57,20723.62,320,115,115.6,115,13362,26681,231,0.95,0.35,0.11,-6.05,-2.13,3.96,19.26,-67.59,-10.48,-6.93,-24.69,-9.29,-9.36,Left Fall while Standing
51:29.9,563,562,843,1000,322,2.18,459.34,1.57,20723.62,320,118,115.6,115,13362,40605,349,0.93,0.32,0.09,-0.05,-10.11,-0.02,18.26,-68.73,-10.43,-8.15,-24.61,-9.28,-10.58,Left Fall while Standing
51:30.0,551,562,843,1000,322,2.18,459.34,1.57,20723.62,320,116,115.6,115,13362,54061,465,0.93,0.34,0.03,6.2,-10.4,-0.52,19.39,-68.35,-9.74,-9.41,-24.59,-8.58,-11.76,Left Fall while Standing
51:30.1,703,564,846,1000,323,2.17,461.43,1.58,20723.62,320,116,115.6,115,13362,67517,581,0.91,0.34,0,3.1,-9.51,2.92,19.92,-67.92,-9.38,-10.56,-24.22,-8.21,-12.85,Left Fall while Standing
51:30.2,636,565,847.5,1000,323,2.17,461.43,1.58,20723.62,320,116,115.6,115,13362,80973,697,0.96,0.34,-0.03,0.16,-3.87,7.62,18.7,-69.05,-9.31,-11.15,-23.37,-8.18,-13.47,Left Fall while Standing
51:30.3,596,566,849,1000,324,2.16,463.52,1.58,20723.62,320,116,115.6,115,13362,94429,813,0.96,0.31,-0.03,-1.43,1.96,6.75,17.2,-70.55,-9.39,-11.15,-22.61,-8.33,-13.53,Left Fall while Standing
51:30.4,545,565,847.5,1000,324,2.16,463.52,1.58,20723.62,320,116,115.6,115,13362,107885,929,0.98,0.3,0,-5.24,-0.53,2.13,16.22,-71.62,-9.87,-11.41,-22.32,-8.82,-13.82,Left Fall while Standing
51:30.5,467,564,846,1000,325,2.15,465.62,1.59,20723.62,320,116,115.6,115,13362,121341,1045,0.97,0.3,0,-1.39,-0.31,0.53,16.71,-71.13,-9.95,-11.64,-22.18,-8.88,-14.02,Left Fall while Standing
51:30.6,438,562,843,1000,325,2.15,465.62,1.59,20723.66,323,116,116.1,116,13478,0,0,0.95,0.3,-0.01,0.44,-5.94,1.65,16.77,-71.05,-9.85,-12.43,-21.94,-8.78,-14.77,Left Fall while Standing
51:30.7,449,561,841.5,1000,326,2.14,467.72,1.59,20723.66,323,116,116.1,116,13478,13456,116,0.96,0.31,-0.06,1.69,-3.35,3.05,17.24,-70.22,-9.62,-12.97,-21.56,-8.55,-15.26,Left Fall while Standing
51:30.8,496,560,840,1000,326,2.14,467.72,1.59,20723.66,323,117,116.1,116,13478,27145,233,0.97,0.27,-0.04,-3.24,-6.73,3.42,15.29,-72.41,-9.89,-13.84,-21.13,-8.88,-16.18,Left Fall while Standing
51:30.9,480,559,838.5,1000,327,2.13,469.83,1.6,20723.66,323,117,116.1,116,13478,40834,350,0.98,0.27,-0.03,0.37,-0.35,1.2,14.96,-72.8,-9.8,-14.08,-20.94,-8.81,-16.43,Left Fall while Standing
51:34.3,848,848,1272,848,333,2.07,482.61,1.63,0,0,116,0,0,0,27145,233,0.99,0.19,-0.05,-6.95,0.3,10.17,10.35,-77.12,-1,-0.14,1.61,-0.54,-3.21,Right Fall while Standing
51:34.4,897,872,1308,897,334,2.06,484.76,1.63,0,0,117,0,0,0,40834,350,1.02,0.2,-0.07,-4.05,7.98,3.21,10.61,-76.62,-1.34,0.44,2,-0.86,-2.64,Right Fall while Standing
51:34.5,873,872,1308,897,334,2.06,484.76,1.63,0,0,117,0,0,0,54523,467,0.98,0.17,0.01,-3.31,5.56,10.02,9,-78.82,-1.6,0.79,3.05,-1.18,-2.39,Right Fall while Standing
51:34.5,808,856,1284,897,335,2.05,486.92,1.64,0,0,117,0,0,0,68212,584,1.02,0.15,-0.02,3.28,6.29,18.19,7.73,-80.03,-1.23,1.21,4.89,-0.87,-2.04,Right Fall while Standing
51:34.6,864,858,1287,897,335,2.05,486.92,1.64,0,0,117,0,0,0,81901,701,1.08,0.09,-0.02,-3.91,-2.02,12.59,4.02,-83.7,-1.56,0.81,6.2,-1.33,-2.57,Right Fall while Standing
51:34.7,650,823,1234.5,897,335,2.05,486.92,1.64,0,0,117,0,0,0,95590,818,1.05,0.09,-0.02,1.5,-3.19,-0.91,4.47,-83.22,-1.36,0.31,6.19,-1.12,-3.03,Right Fall while Standing
51:34.8,559,785,1177.5,897,335,2.05,486.92,1.64,0,0,117,0,0,0,109279,935,0.97,0.12,-0.02,1.76,0.41,3.87,6.21,-81.51,-1.13,0.16,6.64,-0.84,-3.11,Right Fall while Standing
51:34.9,471,746,1119,897,336,2.04,489.08,1.64,0,0,117,0,0,0,122968,1052,0.98,0.1,0,1.39,3.2,6.29,5.34,-82.5,-0.94,0.27,7.33,-0.69,-3.04,Right Fall while Standing
51:35.0,458,714,1071,897,335,2.05,486.92,1.64,20723.84,334,118,117,117,13688,0,0,0.99,0.08,0,-1.37,9.13,8.28,4,-83.84,-1.02,0.97,8.22,-0.82,-2.42,Right Fall while Standing
51:35.1,458,688,1032,897,336,2.04,489.08,1.64,20723.84,334,116,117,117,13688,13456,116,1.01,0.06,0.02,-3.53,10.71,14.52,3.03,-84.69,-1.31,1.83,9.74,-1.14,-1.63,Right Fall while Standing
51:35.2,490,670,1005,897,338,2.03,493.43,1.65,20723.84,334,116,117,117,13688,26912,232,1.03,0.03,0.04,-5.64,6.54,14.61,0.83,-85.88,-1.82,2.28,11.26,-1.71,-1.24,Right Fall while Standing
51:35.3,523,658,987,897,337,2.04,491.25,1.65,20723.84,334,115,117,117,13688,40137,347,1.02,0,0.06,0.47,7.98,11.79,-0.79,-85.31,-1.71,2.89,12.53,-1.68,-0.64,Right Fall while Standing
51:35.4,506,646,969,897,338,2.03,493.43,1.65,20723.84,334,119,117,117,13688,54298,466,1.01,-0.01,0.01,-2.74,5.44,13.55,-0.98,-87.51,-1.93,3.23,13.95,-1.89,-0.4,Right Fall while Standing
51:35.5,536,638,957,897,339,2.02,495.61,1.66,20723.84,334,116,117,117,13688,67754,582,0.97,-0.05,0.04,-3.79,4.63,19.6,-3.47,-84.71,-2.25,3.49,15.97,-2.3,-0.04,Right Fall while Standing
51:35.6,450,626,939,897,339,2.02,495.61,1.66,20723.84,334,116,117,117,13688,81210,698,0.97,-0.08,0.08,-2.01,4.62,26.73,-5.44,-81.48,-2.4,3.75,18.75,-2.52,0.34,Right Fall while Standing
51:35.7,485,617,925.5,897,340,2.01,497.8,1.66,20723.84,334,118,117,117,13688,95134,816,1.01,-0.13,0.08,-1.89,10.03,29.44,-8.04,-79.7,-2.53,4.55,21.74,-2.75,1.18,Right Fall while Standing
51:35.8,464,608,912,897,341,2,500,1.67,20723.84,334,119,117,117,13688,109295,935,0.99,-0.21,0.04,-5.76,17.69,31.54,-12.41,-76.33,-3.05,6.13,25.01,-3.43,2.84,Right Fall while Standing
51:35.9,422,597,895.5,897,340,2.01,497.8,1.66,20723.84,334,116,117,117,13688,122751,1051,1.07,-0.25,0.09,-0.53,18.7,33.37,-13.6,-74.52,-3.05,7.8,28.43,-3.47,4.51,Right Fall while Standing
51:36.0,314,582,873,897,341,2,500,1.67,20723.91,338,116,116.7,116,13619,0,0,0.93,-0.31,0.19,7.93,19.68,31.48,-18.55,-67.23,-2.22,9.54,31.59,-2.87,6.47,Right Fall while Standing
51:36.1,41,555,832.5,897,341,2,500,1.67,20723.91,338,119,116.7,116,13619,14161,119,0.93,-0.36,0.2,6.2,16.57,29.53,-21.3,-64.5,-1.55,10.98,34.59,-2.34,7.96,Right Fall while Standing
51:36.2,24,530,795,897,341,2,500,1.67,20723.91,338,119,116.7,116,13619,28322,238,0.94,-0.41,0.18,-0.15,9,26.04,-23.92,-62.79,-1.51,11.69,37.3,-2.4,8.71,Right Fall while Standing
51:36.3,140,512,768,897,342,1.99,502.2,1.67,20723.91,338,119,116.7,116,13619,42483,357,0.92,-0.42,0.22,-0.63,5.4,21.31,-24.4,-61.19,-1.52,12.02,39.49,-2.43,9.09,Right Fall while Standing
51:36.4,303,503,754.5,897,342,1.99,502.2,1.67,20723.91,338,116,116.7,116,13619,55939,473,0.87,-0.45,0.24,3.79,7.6,19.06,-26.89,-58.22,-1.08,12.59,41.49,-2.11,9.76,Right Fall while Standing
51:36.5,379,498,747,897,342,1.99,502.2,1.67,20723.91,338,120,116.7,116,13619,70339,593,0.85,-0.48,0.22,0.21,10.76,17.73,-28.96,-56.88,-1,13.46,43.34,-2.12,10.65,Right Fall while Standing
51:36.6,861,512,768,897,343,1.98,504.41,1.68,20723.91,338,119,116.7,116,13619,84500,712,0.88,-0.5,0.24,-0.41,10.07,14.03,-29.39,-56.16,-0.98,14.26,44.81,-2.12,11.45,Right Fall while Standing
51:36.7,851,525,787.5,897,343,1.98,504.41,1.68,20723.91,338,120,116.7,116,13619,98900,832,0.85,-0.53,0.25,-3.44,4.62,-0.47,-31.28,-53.9,-1.28,14.53,44.84,-2.48,11.79,Right Fall while Standing
51:36.8,795,535,802.5,897,344,1.97,506.63,1.68,20723.91,338,117,116.7,116,13619,112589,949,0.83,-0.53,0.29,-5.35,4.57,-3,-31.66,-52.45,-1.75,14.78,44.62,-2.95,12.1,Right Fall while Standing
51:36.9,768,544,816,897,343,1.98,504.41,1.68,20723.91,338,118,116.7,116,13619,126513,1067,0.81,-0.52,0.28,-6.49,-0.54,-6.9,-31.74,-52.4,-2.35,14.53,44.01,-3.52,11.85,Right Fall while Standing
51:37.0,745,551,826.5,897,344,1.97,506.63,1.68,20723.97,342,117,118.41,118,14019,0,0,0.83,-0.5,0.27,-4.07,7.13,0.32,-30.42,-53.93,-2.7,15.04,44.12,-3.81,12.28,Right Fall while Standing
51:37.1,652,554,831,897,344,1.97,506.63,1.68,20723.97,342,117,118.41,118,14019,13689,117,0.85,-0.53,0.26,-7.67,2.53,-7.21,-31.16,-53.73,-3.41,15.1,43.48,-4.52,12.34,Right Fall while Standing
51:37.2,605,556,834,897,344,1.97,506.63,1.68,20723.97,342,120,118.41,118,14019,28089,237,0.84,-0.52,0.27,-10.11,-6.98,-13.27,-31.16,-53.36,-4.36,14.2,42.23,-5.44,11.5,Right Fall while Standing
51:37.3,572,556,834,897,343,1.98,504.41,1.68,20723.97,342,119,118.41,118,14019,42250,356,0.8,-0.49,0.28,-9.22,-6.56,-8.24,-30.96,-52.96,-5.24,13.33,41.48,-6.27,10.68,Right Fall while Standing
51:37.4,495,554,831,897,343,1.98,504.41,1.68,20723.97,342,117,118.41,118,14019,55939,473,0.82,-0.5,0.21,-9.27,-1.24,-1.54,-31.27,-54.78,-6.11,13.01,41.4,-7.12,10.3,Right Fall while Standing
51:37.5,513,553,829.5,897,342,1.99,502.2,1.67,20723.97,342,117,118.41,118,14019,69628,590,0.85,-0.51,0.22,-11.5,-3.18,-5.82,-30.69,-55.25,-7.2,12.49,40.9,-8.14,9.78,Right Fall while Standing
51:37.6,527,552,828,897,342,1.99,502.2,1.67,20723.97,342,120,118.41,118,14019,84028,710,0.85,-0.51,0.21,-7.29,-6.47,-3.27,-30.53,-55.74,-7.88,11.64,40.65,-8.79,8.94,Right Fall while Standing
51:37.7,561,553,829.5,897,341,2,500,1.67,20723.97,342,120,118.41,118,14019,98428,830,0.89,-0.51,0.2,-10.55,-4.47,-3.4,-29.88,-56.66,-8.88,10.99,40.39,-9.72,8.28,Right Fall while Standing
51:37.8,550,552,828,897,340,2.01,497.8,1.66,20723.97,342,120,118.41,118,14019,112828,950,0.85,-0.51,0.19,-9.87,-1.39,-6.4,-30.67,-56.01,-9.81,10.65,39.83,-10.65,7.98,Right Fall while Standing
51:37.9,527,552,828,897,338,2.03,493.43,1.65,20723.97,342,120,118.41,118,14019,127228,1070,0.82,-0.49,0.18,-7.07,1.08,1.06,-30.86,-55.89,-10.47,10.56,40.01,-11.29,7.9,Right Fall while Standing
51:38.0,517,551,826.5,897,338,2.03,493.43,1.65,20723.95,341,117,118.71,118,14090,0,0,0.84,-0.49,0.16,-5.47,2.09,5.83,-30.1,-57.11,-10.96,10.57,40.67,-11.72,7.86,Right Fall while Standing
51:38.1,697,554,831,897,337,2.04,491.25,1.65,20723.95,341,119,118.71,118,14090,14161,119,0.85,-0.51,0.18,-6.58,0.39,6.66,-30.81,-56.15,-11.56,10.41,41.42,-12.33,7.74,Right Fall while Standing
51:38.2,453,552,828,897,334,2.06,484.76,1.63,20723.95,341,119,118.71,118,14090,28322,238,0.95,-0.56,0.21,-2.5,9.92,-0.62,-30.66,-56.03,-11.75,11.2,41.43,-12.51,8.51,Right Fall while Standing
51:38.3,431,549,823.5,897,334,2.06,484.76,1.63,20723.95,341,119,118.71,118,14090,42483,357,0.85,-0.53,0.14,3.56,35.89,-16.04,-31.94,-55.89,-11.34,14.59,39.91,-12.16,11.77,Right Fall while Standing
51:38.4,402,546,819,897,332,2.08,480.46,1.62,20723.95,341,119,118.71,118,14090,56644,476,0.79,-0.5,0.22,-20.15,6.08,-9.2,-32.11,-53.55,-13.32,15,39.06,-14.07,12.26,Right Fall while Standing
51:38.5,436,543,814.5,897,332,2.08,480.46,1.62,20723.95,341,116,118.71,118,14090,70100,592,0.83,-0.46,0.22,-15.16,-20.96,-6.54,-29.06,-56.65,-14.79,12.68,38.48,-15.36,9.91,Right Fall while Standing
51:38.6,503,542,813,897,331,2.09,478.32,1.62,20723.95,341,116,118.71,118,14090,83556,708,0.85,-0.51,0.19,-3.55,-5.95,3.66,-30.88,-55.82,-15.09,11.88,38.92,-15.72,9.18,Right Fall while Standing
51:38.7,576,543,814.5,897,331,2.09,478.32,1.62,20723.95,341,119,118.71,118,14090,97717,827,0.86,-0.53,0.16,-2.82,-5.72,5.4,-31.52,-55.85,-15.32,11.1,39.55,-15.97,8.43,Right Fall while Standing
51:38.8,593,544,816,897,330,2.1,476.19,1.61,20723.95,341,119,118.71,118,14090,111878,946,0.92,-0.54,0.15,-1.31,-10.87,-0.84,-30.84,-56.9,-15.4,9.82,39.54,-16.01,7.15,Right Fall while Standing
51:38.9,619,546,819,897,330,2.1,476.19,1.61,20723.95,341,119,118.71,118,14090,126039,1065,0.92,-0.53,0.13,1.33,-10.74,-24.32,-30.32,-57.74,-15.21,8.53,37.17,-15.81,5.88,Right Fall while Standing
51:39.0,664,548,822,897,330,2.1,476.19,1.61,20723.8,332,119,118.41,118,14019,0,0,0.89,-0.45,0.08,-2.47,-12.94,-28.73,-27.4,-61.17,-15.4,7.04,34.37,-15.88,4.31,Right Fall while Standing
51:39.1,666,550,825,897,329,2.11,474.06,1.61,20723.8,332,119,118.41,118,14019,14161,119,0.9,-0.39,0.08,-2.89,-11.82,-22.78,-23.75,-64.78,-15.63,5.65,32.17,-15.95,2.84,Right Fall while Standing
51:39.2,616,552,828,897,329,2.11,474.06,1.61,20723.8,332,118,118.41,118,14019,28085,237,0.91,-0.36,0.07,-5.89,-9.7,-22.52,-22.06,-66.55,-16.16,4.48,30,-16.4,1.64,Right Fall while Standing
51:39.3,553,552,828,897,328,2.12,471.94,1.6,20723.8,332,116,118.41,118,14019,41541,353,0.95,-0.34,0.06,-4.01,-4.46,-25.55,-20.09,-68.63,-16.51,3.83,27.47,-16.66,0.93,Right Fall while Standing
51:39.4,580,552,828,897,329,2.11,474.06,1.61,20723.8,332,119,118.41,118,14019,55702,472,0.97,-0.3,0.05,-0.74,-3.7,-25.5,-17.95,-70.83,-16.53,3.26,25,-16.59,0.29,Right Fall while Standing
51:39.5,665,554,831,897,329,2.11,474.06,1.61,20723.8,332,119,118.41,118,14019,69863,591,0.98,-0.27,0.05,-4.92,-4.31,-19.67,-15.74,-72.99,-16.97,2.63,23.12,-16.92,-0.4,Right Fall while Standing
51:39.6,781,558,837,897,329,2.11,474.06,1.61,20723.8,332,116,118.41,118,14019,83319,707,0.99,-0.23,-0.01,0.48,1.61,-23.18,-13.57,-75.43,-16.86,2.59,20.85,-16.73,-0.53,Right Fall while Standing
51:39.7,769,562,843,897,329,2.11,474.06,1.61,20723.8,332,119,118.41,118,14019,97480,826,1,-0.21,0.02,-3.1,-1.05,-26.26,-12.23,-76.69,-17.12,2.28,18.31,-16.92,-0.88,Right Fall while Standing
51:39.8,719,565,847.5,897,328,2.12,471.94,1.6,20723.8,332,116,118.41,118,14019,110936,942,1.01,-0.16,0.03,-2.53,4.59,-27.48,-9.73,-79.09,-17.31,2.54,15.61,-17.01,-0.72,Right Fall while Standing
51:39.9,654,566,849,897,328,2.12,471.94,1.6,20723.8,332,119,118.41,118,14019,125097,1061,1.02,-0.1,0.04,-5.17,-0.99,-23.32,-6.08,-82.5,-17.78,2.24,13.34,-17.31,-1.15,Right Fall while Standing
51:40.0,590,567,850.5,897,328,2.12,471.94,1.6,20723.75,328,116,117.71,117,13854,0,0,1.01,-0.06,0.05,-5.46,-4.6,-18.72,-4.24,-83.63,-18.27,1.59,11.56,-17.7,-1.82,Right Fall while Standing
51:40.1,543,566,849,897,328,2.12,471.94,1.6,20723.75,328,116,117.71,117,13854,13456,116,0.99,-0.03,0.03,-4.11,-4.21,-8.16,-2.57,-85.7,-18.62,0.97,10.82,-17.98,-2.5,Right Fall while Standing
51:40.2,542,566,849,897,329,2.11,474.06,1.61,20723.75,328,116,117.71,117,13854,26912,232,1.01,-0.03,0.04,-1.6,-3.42,1.11,-2.55,-85.28,-18.73,0.42,11.02,-18.08,-3.01,Right Fall while Standing
51:40.3,512,565,847.5,897,329,2.11,474.06,1.61,20723.75,328,119,117.71,117,13854,41073,351,1.05,-0.07,0.02,-9.69,-12.47,-3.17,-4.44,-84.36,-19.64,-1.03,10.78,-19.03,-4.36,Right Fall while Standing
51:40.4,491,564,846,897,329,2.11,474.06,1.61,20723.75,328,119,117.71,117,13854,55234,470,1.04,-0.03,-0.03,-0.11,-2.09,-10.93,-2.19,-86.01,-19.59,-1.44,9.75,-18.9,-4.83,Right Fall while Standing
51:40.5,432,562,843,897,329,2.11,474.06,1.61,20723.75,328,116,117.71,117,13854,68690,586,1.04,0,-0.03,-4.21,3.5,-9.79,-0.4,-86.94,-19.96,-1.29,8.85,-19.18,-4.72,Right Fall while Standing
51:40.6,390,559,838.5,897,328,2.12,471.94,1.6,20723.75,328,116,117.71,117,13854,82146,702,1,-0.01,-0.02,-3.8,-2.97,-6.4,-0.96,-87.02,-20.28,-1.79,8.29,-19.51,-5.2,Right Fall while Standing
51:40.7,395,557,835.5,897,328,2.12,471.94,1.6,20723.75,328,116,117.71,117,13854,95602,818,1,0,0,-1.46,4.15,-0.5,-0.71,-88.21,-20.37,-1.57,8.32,-19.59,-5.04,Right Fall while Standing
51:40.8,398,554,831,897,328,2.12,471.94,1.6,20723.75,328,119,117.71,117,13854,109763,937,1.02,-0.01,-0.01,-4.01,-3.83,-0.1,-1.32,-87.47,-20.72,-2.16,8.39,-19.94,-5.57,Right Fall while Standing
51:43.9,972,972,1458,972,326,2.14,467.72,1.59,0,0,117,0,0,0,27378,234,1.01,0.01,-0.05,1.36,2.95,-2.86,-0.26,-85.55,0.07,-0.26,-0.52,0.06,-3.67,Forward Fall while Standing
51:44.0,989,980,1470,989,326,2.14,467.72,1.59,0,0,117,0,0,0,41067,351,1.01,-0.01,-0.06,-1.27,-5.55,1.26,-0.9,-84.78,0,-0.99,-0.33,-0.03,-4.35,Forward Fall while Standing
51:44.1,972,977,1465.5,989,327,2.13,469.83,1.6,0,0,117,0,0,0,54756,468,1.02,0.01,-0.05,0.66,0.89,-3.44,-0.04,-85.49,0.12,-1.1,-0.58,0.12,-4.48,Forward Fall while Standing
51:44.2,830,940,1410,989,327,2.13,469.83,1.6,0,0,117,0,0,0,68445,585,1.04,0.01,-0.09,-2.49,-5.52,1.56,0,-83.44,-0.06,-1.83,-0.35,-0.06,-5.09,Forward Fall while Standing
51:44.3,596,871,1306.5,989,328,2.12,471.94,1.6,0,0,117,0,0,0,82134,702,1.03,0,-0.1,0.8,-7.51,-5.3,-0.69,-83,0.07,-2.77,-0.8,0.04,-5.98,Forward Fall while Standing
51:44.4,427,797,1195.5,989,327,2.13,469.83,1.6,0,0,117,0,0,0,95823,819,0.97,0.04,-0.1,1.25,-33.8,-6.78,1.94,-82.21,0.25,-6.25,-1.38,0.31,-9.28,Forward Fall while Standing
51:44.5,574,765,1147.5,989,328,2.12,471.94,1.6,0,0,118,0,0,0,109747,937,1.01,0.02,-0.15,5.99,-16.85,-0.34,0.72,-79.84,0.88,-8.07,-1.34,0.88,-10.94,Forward Fall while Standing
51:44.6,539,737,1105.5,989,328,2.12,471.94,1.6,0,0,117,0,0,0,123436,1054,1.03,0.01,-0.17,1.27,1.05,-1.36,-0.3,-79.21,1.06,-8.17,-1.39,1.01,-11.01,Forward Fall while Standing
51:44.7,590,721,1081.5,989,328,2.12,471.94,1.6,20723.72,327,118,117.2,117,13735,0,0,1.06,0,-0.2,-1.69,-2.57,0.67,-0.32,-77.75,0.95,-8.62,-1.25,0.9,-11.38,Forward Fall while Standing
51:44.8,664,715,1072.5,989,329,2.11,474.06,1.61,20723.72,327,123,117.2,117,13735,15129,123,1.03,0.02,-0.21,2,6.01,-3.51,0.34,-76.68,1.21,-8.22,-1.52,1.17,-10.95,Forward Fall while Standing
51:44.9,723,716,1074,989,332,2.08,480.46,1.62,20723.72,327,128,117.2,117,13735,31513,251,1,0.02,-0.21,1.23,12.88,-1.15,0.57,-76.52,1.39,-7.13,-1.56,1.35,-9.9,Forward Fall while Standing
51:45.0,735,717,1075.5,989,334,2.06,484.76,1.63,20723.72,327,131,117.2,117,13735,48674,382,0.99,0.02,-0.2,-4.08,3.53,4.15,0.51,-77.08,1.04,-6.97,-1.06,1.01,-9.78,Forward Fall while Standing
51:45.1,680,714,1071,989,335,2.05,486.92,1.64,20723.72,327,130,117.2,117,13735,65574,512,1.02,0,-0.16,-5.4,-1.22,3.47,-0.78,-79.6,0.56,-7.29,-0.64,0.5,-10.19,Forward Fall while Standing
51:45.2,703,713,1069.5,989,336,2.04,489.08,1.64,20723.72,327,128,117.2,117,13735,81958,640,1.01,0,-0.15,-3.03,-9.56,-1.92,-0.7,-79.77,0.31,-8.46,-0.76,0.27,-11.31,Forward Fall while Standing
51:45.3,598,706,1059,989,335,2.05,486.92,1.64,20723.72,327,128,117.2,117,13735,98342,768,1.01,0,-0.15,-6.2,-20.52,-1.46,-0.85,-79.71,-0.26,-10.71,-0.82,-0.28,-13.47,Forward Fall while Standing
51:45.4,483,692,1038,989,335,2.05,486.92,1.64,20723.72,327,128,117.2,117,13735,114726,896,1.03,0,-0.2,1.95,-21.41,-4.5,-0.59,-77.69,-0.01,-13.05,-1.19,-0.03,-15.64,Forward Fall while Standing
51:45.5,549,683,1024.5,989,334,2.06,484.76,1.63,20723.72,327,128,117.2,117,13735,131110,1024,1,0.01,-0.3,-0.35,-20.08,-4.73,-0.11,-71.76,0.02,-15.31,-1.6,0.01,-17.56,Forward Fall while Standing
51:45.6,638,681,1021.5,989,335,2.05,486.92,1.64,20723.72,327,128,117.2,117,13735,147494,1152,0.99,0.02,-0.35,-4.4,-16.04,-0.85,0.4,-69.24,-0.37,-17.13,-1.6,-0.34,-19.21,Forward Fall while Standing
51:45.7,522,672,1008,989,335,2.05,486.92,1.64,20723.83,334,129,128.11,128,16412,0,0,0.96,0.01,-0.32,-10.14,-14.63,-0.3,-0.01,-69.96,-1.32,-18.77,-1.55,-1.27,-20.82,Forward Fall while Standing
51:45.8,541,666,999,989,335,2.05,486.92,1.64,20723.83,334,129,128.11,128,16412,16641,129,0.97,0.02,-0.35,-1.91,-12.23,-1.83,0.49,-68.84,-1.46,-20.21,-1.66,-1.38,-22.16,Forward Fall while Standing
51:45.9,490,657,985.5,989,336,2.04,489.08,1.64,20723.83,334,132,128.11,128,16412,34065,261,0.96,0.01,-0.36,-1.1,-18.27,0.44,-0.18,-67.8,-1.51,-22.24,-1.54,-1.46,-24.06,Forward Fall while Standing
51:46.0,440,647,970.5,989,335,2.05,486.92,1.64,20723.83,334,130,128.11,128,16412,50965,391,0.96,0.01,-0.42,1.55,-27.47,-0.22,-0.18,-64.93,-1.3,-25.18,-1.48,-1.25,-26.77,Forward Fall while Standing
51:46.1,499,641,961.5,989,336,2.04,489.08,1.64,20723.83,334,134,128.11,128,16412,68921,525,0.99,0.01,-0.57,2.05,-22.56,-3.82,-0.05,-58.51,-1.03,-27.69,-1.79,-0.99,-28.92,Forward Fall while Standing
51:46.2,530,636,954,989,336,2.04,489.08,1.64,20723.83,334,129,128.11,128,16412,85562,654,0.93,0,-0.53,-1.18,-16.34,-1.77,-0.35,-58.58,-1.09,-29.52,-1.89,-1.06,-30.69,Forward Fall while Standing
51:46.3,556,633,949.5,989,336,2.04,489.08,1.64,20723.83,334,134,128.11,128,16412,103518,788,0.91,0.01,-0.52,-0.77,-24.07,-1.9,0.01,-58.75,-1.12,-32.16,-2,-1.07,-33.22,Forward Fall while Standing
51:46.4,884,643,964.5,989,336,2.04,489.08,1.64,20723.83,334,130,128.11,128,16412,120418,918,0.86,0,-0.57,2.76,-27.21,-3.72,-0.66,-55.03,-0.78,-35.08,-2.29,-0.78,-35.88,Forward Fall while Standing
51:46.5,557,640,960,989,335,2.05,486.92,1.64,20723.83,334,131,128.11,128,16412,137579,1049,0.83,0.02,-0.58,3.91,-17.44,-3.56,0.54,-53.52,-0.33,-37.04,-2.57,-0.3,-37.7,Forward Fall while Standing
51:46.6,499,635,952.5,989,335,2.05,486.92,1.64,20723.83,334,129,128.11,128,16412,154220,1178,0.85,0.01,-0.65,-0.6,-15.86,-0.87,-0.16,-51.19,-0.34,-38.85,-2.58,-0.33,-39.34,Forward Fall while Standing
51:46.7,466,629,943.5,989,334,2.06,484.76,1.63,20723.85,335,126,130.42,130,17008,0,0,0.84,-0.01,-0.66,1.82,-14.17,-5.01,-0.95,-50.26,-0.1,-40.46,-3,-0.13,-40.85,Forward Fall while Standing
51:46.8,401,621,931.5,989,334,2.06,484.76,1.63,20723.85,335,126,130.42,130,17008,15876,126,0.83,0.01,-0.73,3.7,-32.88,-7.52,-0.31,-47.11,0.33,-43.95,-3.67,0.3,-44.08,Forward Fall while Standing
51:46.9,346,612,918,989,333,2.07,482.61,1.63,20723.85,335,131,130.42,130,17008,33037,257,0.81,0.02,-0.77,-5.67,-5.09,-16.92,0.27,-44.8,-0.19,-44.67,-5.3,-0.17,-44.67,Forward Fall while Standing
51:47.0,632,613,919.5,989,335,2.05,486.92,1.64,20723.85,335,128,130.42,130,17008,49421,385,0.71,0.07,-0.77,-11.86,-6.27,-0.15,3.29,-40.81,-1.32,-45.49,-5.24,-1.13,-45.31,Forward Fall while Standing
51:47.1,313,604,906,989,333,2.07,482.61,1.63,20723.85,335,127,130.42,130,17008,65550,512,0.75,0.02,-0.7,3.82,-6.81,2.63,0.75,-45.6,-0.88,-46.37,-4.9,-0.82,-46.34,Forward Fall while Standing
51:47.2,295,595,892.5,989,334,2.06,484.76,1.63,20723.85,335,128,130.42,130,17008,81934,640,0.74,0.03,-0.76,2.02,-5.19,1.1,0.78,-42.37,-0.62,-47.09,-4.71,-0.57,-46.9,Forward Fall while Standing
51:47.3,333,587,880.5,989,334,2.06,484.76,1.63,20723.85,335,128,130.42,130,17008,98318,768,0.75,0.05,-0.74,0.48,-0.37,5.76,1.89,-43.97,-0.52,-47.33,-4.05,-0.42,-47.2,Forward Fall while Standing
51:47.4,342,580,870,989,333,2.07,482.61,1.63,20723.85,335,130,130.42,130,17008,115218,898,0.74,0.01,-0.78,-2.58,-8.25,6.94,0.17,-41.97,-0.72,-48.36,-3.28,-0.69,-48.1,Forward Fall while Standing
51:47.5,325,573,859.5,989,333,2.07,482.61,1.63,20723.85,335,127,130.42,130,17008,131347,1025,0.76,0.01,-0.77,-1.03,-0.52,-2.19,-0.3,-43.04,-0.77,-48.61,-3.42,-0.75,-48.39,Forward Fall while Standing
51:47.6,364,568,852,989,333,2.07,482.61,1.63,20723.85,335,127,130.42,130,17008,147476,1152,0.74,0.02,-0.8,-2.09,-2.41,-2.18,0.69,-41.25,-0.92,-49.05,-3.56,-0.86,-48.74,Forward Fall while Standing
51:47.7,313,561,841.5,989,332,2.08,480.46,1.62,20723.82,333,127,127.91,127,16359,0,0,0.73,0.02,-0.81,-2.18,3.6,-2,0.41,-40.64,-1.08,-48.89,-3.68,-1.02,-48.56,Forward Fall while Standing
51:47.8,468,559,838.5,989,331,2.09,478.32,1.62,20723.82,333,127,127.91,127,16359,16129,127,0.73,0.02,-0.82,-7.06,2.94,-1.34,0.54,-40.23,-1.74,-48.8,-3.74,-1.65,-48.45,Forward Fall while Standing
51:47.9,491,557,835.5,989,331,2.09,478.32,1.62,20723.82,333,129,127.91,127,16359,32770,256,0.73,0.02,-0.77,-3.29,3.44,-1.63,0.61,-42.22,-2.01,-48.65,-3.82,-1.91,-48.4,Forward Fall while Standing
51:48.0,518,556,834,989,330,2.1,476.19,1.61,20723.82,333,129,127.91,127,16359,49411,385,0.75,0.02,-0.75,-1.56,1.08,-2.29,0.65,-43.71,-2.11,-48.74,-3.97,-2,-48.54,Forward Fall while Standing
51:48.1,493,555,832.5,989,329,2.11,474.06,1.61,20723.82,333,126,127.91,127,16359,65287,511,0.75,0.03,-0.78,-0.52,3.91,-3.03,0.87,-42.09,-2.11,-48.55,-4.19,-1.99,-48.3,Forward Fall while Standing
51:48.2,462,553,829.5,989,328,2.12,471.94,1.6,20723.82,333,126,127.91,127,16359,81163,637,0.75,0.03,-0.79,-0.31,14.08,-1.04,0.78,-41.77,-2.08,-47.35,-4.22,-1.97,-47.12,Forward Fall while Standing
51:48.3,429,550,825,989,327,2.13,469.83,1.6,20723.82,333,125,127.91,127,16359,96788,762,0.75,0.02,-0.77,-1.96,7.5,0.16,0.46,-42.9,-2.22,-46.79,-4.12,-2.12,-46.63,Forward Fall while Standing
51:48.4,397,547,820.5,989,326,2.14,467.72,1.59,20723.82,333,125,127.91,127,16359,112413,887,0.77,0.03,-0.76,-2.53,5.29,1.47,0.82,-43.6,-2.42,-46.46,-3.9,-2.29,-46.35,Forward Fall while Standing
51:48.5,413,544,816,989,326,2.14,467.72,1.59,20723.82,333,128,127.91,127,16359,128797,1015,0.79,0.02,-0.73,-0.79,5.59,0.82,0.38,-45.81,-2.44,-46.1,-3.74,-2.33,-46.09,Forward Fall while Standing
51:48.6,335,539,808.5,989,325,2.15,465.62,1.59,20723.82,333,128,127.91,127,16359,145181,1143,0.8,0,-0.71,-2.89,0.46,-2.48,-0.59,-46.83,-2.68,-46.26,-3.91,-2.6,-46.28,Forward Fall while Standing
51:48.7,421,537,805.5,989,325,2.15,465.62,1.59,20723.73,327,128,127.11,127,16155,0,0,0.78,0.01,-0.75,-2.64,0.66,-5.02,0.08,-44.46,-2.89,-46.39,-4.33,-2.77,-46.31,Forward Fall while Standing
51:48.8,453,535,802.5,989,325,2.15,465.62,1.59,20723.73,327,125,127.11,127,16155,15625,125,0.77,0.02,-0.75,-2.69,7.3,-4.15,0.24,-44.21,-3.1,-45.86,-4.66,-2.97,-45.8,Forward Fall while Standing
51:48.9,480,534,801,989,324,2.16,463.52,1.58,20723.73,327,125,127.11,127,16155,31250,250,0.79,0.03,-0.72,-6.47,5.36,2.15,0.85,-45.96,-3.7,-45.52,-4.36,-3.51,-45.54,Forward Fall while Standing
51:49.0,521,534,801,989,325,2.15,465.62,1.59,20723.73,327,125,127.11,127,16155,46875,375,0.79,0.02,-0.71,-2.76,7.38,1.95,0.62,-46.24,-3.91,-44.99,-4.09,-3.73,-45.04,Forward Fall while Standing
51:49.1,521,534,801,989,324,2.16,463.52,1.58,20723.73,327,124,127.11,127,16155,62251,499,0.78,0.01,-0.73,-0.54,4.38,-0.09,-0.07,-45.24,-3.91,-44.75,-4.02,-3.76,-44.77,Forward Fall while Standing
51:49.2,526,534,801,989,324,2.16,463.52,1.58,20723.73,327,127,127.11,127,16155,78380,626,0.73,0.02,-0.64,1.04,5.49,3.79,0.57,-47.19,-3.75,-44.4,-3.56,-3.58,-44.51,Forward Fall while Standing
51:49.3,540,534,801,989,324,2.16,463.52,1.58,20723.73,327,127,127.11,127,16155,94509,753,0.8,0,-0.68,-6.49,5.54,1.5,-0.78,-47.87,-4.34,-44.05,-3.33,-4.19,-44.2,Forward Fall while Standing
51:49.4,513,533,799.5,989,324,2.16,463.52,1.58,20723.73,327,125,127.11,127,16155,110134,878,0.84,0,-0.72,-6.11,11.06,4.26,-0.48,-47.76,-4.89,-43.14,-2.83,-4.71,-43.33,Forward Fall while Standing
51:49.5,594,534,801,989,324,2.16,463.52,1.58,20723.73,327,127,127.11,127,16155,126263,1005,0.84,-0.01,-0.67,-4.13,15.3,2.47,-1.22,-49.93,-5.26,-41.79,-2.5,-5.09,-42.11,Forward Fall while Standing
51:49.6,627,536,804,989,325,2.15,465.62,1.59,20723.73,327,127,127.11,127,16155,142392,1132,0.8,-0.02,-0.6,-6.48,16.63,4.31,-1.58,-51.69,-5.85,-40.32,-1.99,-5.68,-40.78,Forward Fall while Standing
51:49.7,683,538,807,989,325,2.15,465.62,1.59,20723.68,324,127,125.9,125,15851,0,0,0.87,-0.04,-0.64,-3.5,30.59,4.82,-2.65,-52.19,-6.14,-37.49,-1.43,-6,-38.08,Forward Fall while Standing
51:49.8,777,542,813,989,325,2.15,465.62,1.59,20723.68,324,125,125.9,125,15851,15625,125,0.97,-0.02,-0.5,-1.56,64.94,8.59,-1.66,-60.91,-6.24,-31.14,-0.48,-6.06,-32.33,Forward Fall while Standing
51:49.9,792,546,819,989,325,2.15,465.62,1.59,20723.68,324,127,125.9,125,15851,31754,252,0.89,0,-0.54,-7.07,7.71,4.46,-0.32,-57.33,-6.89,-30.56,0.04,-6.63,-31.63,Forward Fall while Standing
51:50.0,763,550,825,989,325,2.15,465.62,1.59,20723.68,324,125,125.9,125,15851,47379,377,0.91,-0.01,-0.47,4.02,18.55,4.03,-0.95,-61.14,-6.43,-28.91,0.52,-6.21,-30.2,Forward Fall while Standing
51:50.1,708,552,828,989,326,2.14,467.72,1.59,20723.68,324,128,125.9,125,15851,63763,505,0.94,-0.07,-0.46,-2.78,10.18,7.44,-4.57,-62.23,-6.66,-28.08,1.36,-6.57,-29.45,Forward Fall while Standing
51:50.2,690,555,832.5,989,326,2.14,467.72,1.59,20723.68,324,125,125.9,125,15851,79388,630,0.95,-0.07,-0.45,-4.32,18.35,-0.05,-4.19,-62.76,-7.03,-26.45,1.43,-6.92,-27.9,Forward Fall while Standing
51:50.3,724,557,835.5,989,327,2.13,469.83,1.6,20723.68,324,128,125.9,125,15851,95772,758,0.96,-0.05,-0.39,-0.4,21.06,-0.54,-3.11,-66.33,-7.02,-24.54,1.45,-6.86,-26.21,Forward Fall while Standing
51:50.4,666,559,838.5,989,327,2.13,469.83,1.6,20723.68,324,127,125.9,125,15851,111901,885,0.96,-0.04,-0.37,0.24,23.1,3.09,-2.64,-67.53,-6.93,-22.41,1.85,-6.76,-24.22,Forward Fall while Standing
51:50.5,640,560,840,989,328,2.12,471.94,1.6,20723.68,324,124,125.9,125,15851,127277,1009,0.98,-0.06,-0.28,-5.2,15.1,6.24,-3.83,-72.3,-7.4,-21.1,2.55,-7.26,-23.15,Forward Fall while Standing
51:50.6,559,560,840,989,328,2.12,471.94,1.6,20723.68,324,124,125.9,125,15851,142653,1133,0.97,-0.05,-0.24,-3.99,9.63,4.33,-3.71,-74.08,-7.75,-20.32,3.07,-7.59,-22.47,Forward Fall while Standing
51:50.7,445,558,837,989,328,2.12,471.94,1.6,20723.71,326,124,125.71,125,15801,0,0,0.98,-0.07,-0.29,3.52,17.88,11.56,-4.49,-71.5,-7.35,-18.77,4.28,-7.23,-20.88,Forward Fall while Standing
51:50.8,364,556,834,989,328,2.12,471.94,1.6,20723.71,326,123,125.71,125,15801,15129,123,1.02,-0.12,-0.24,1.09,20.01,7.24,-7.11,-73.74,-7.18,-16.97,5.08,-7.18,-19.24,Forward Fall while Standing
51:50.9,280,552,828,989,328,2.12,471.94,1.6,20723.71,326,126,125.71,125,15801,31005,249,1,-0.12,-0.2,2.71,17.86,1.91,-7.1,-75.52,-6.85,-15.36,5.36,-6.86,-17.77,Forward Fall while Standing
51:51.0,432,550,825,989,329,2.11,474.06,1.61,20723.71,326,126,125.71,125,15801,46881,375,1.02,-0.11,-0.18,1.01,0.95,0.56,-6.58,-76.93,-6.7,-15.47,5.49,-6.69,-17.93,Forward Fall while Standing
51:51.1,247,546,819,989,330,2.1,476.19,1.61,20723.71,326,126,125.71,125,15801,62757,501,1.03,-0.12,-0.15,3.42,12.97,-0.98,-7.07,-77.83,-6.3,-14.38,5.47,-6.33,-16.92,Forward Fall while Standing
51:51.2,256,542,813,989,330,2.1,476.19,1.61,20723.71,326,123,125.71,125,15801,77886,624,1.04,-0.13,-0.11,5.05,21.64,-5.63,-7.55,-79.18,-5.74,-12.4,4.98,-5.81,-15.07,Forward Fall while Standing
51:51.3,308,539,808.5,989,330,2.1,476.19,1.61,20723.71,326,123,125.71,125,15801,93015,747,1.02,-0.11,-0.14,-1.11,12.4,-13.17,-6.93,-78.51,-5.79,-11.36,3.75,-5.84,-14.04,Forward Fall while Standing
51:51.4,363,536,804,989,329,2.11,474.06,1.61,20723.71,326,125,125.71,125,15801,108640,872,1.01,-0.07,-0.1,-1.94,-7.73,-8.68,-4.45,-81.5,-5.93,-12.34,2.95,-5.87,-15.11,Forward Fall while Standing
51:51.5,366,534,801,989,330,2.1,476.19,1.61,20723.71,326,123,125.71,125,15801,123769,995,1.01,-0.06,-0.12,3.06,0.54,-3,-4.18,-80.59,-5.56,-12.49,2.73,-5.51,-15.21,Forward Fall while Standing
51:51.6,392,532,798,989,330,2.1,476.19,1.61,20723.71,326,126,125.71,125,15801,139645,1121,1.01,-0.09,-0.14,-0.15,10.83,-2.6,-5.88,-78.75,-5.52,-11.61,2.55,-5.54,-14.29,Forward Fall while Standing
51:51.7,380,530,795,989,330,2.1,476.19,1.61,20723.76,329,122,124.31,124,15451,0,0,1.02,-0.07,-0.11,-0.56,22,-2.95,-4.49,-81.22,-5.52,-9.63,2.33,-5.48,-12.49,Forward Fall while Standing
51:51.8,371,528,792,989,330,2.1,476.19,1.61,20723.76,329,125,124.31,124,15451,15625,125,1.04,-0.07,-0.09,-9.27,8.4,-2.54,-4.54,-82.06,-6.4,-8.98,2.15,-6.33,-11.9,Forward Fall while Standing
51:57.6,853,853,1279.5,853,333,2.07,482.61,1.63,0,0,120,0,0,0,29041,241,1,0.01,-0.02,-9.43,-5.29,-3.5,0.09,-86.99,0.58,0.12,0.24,0.56,-3.37,Sitting
51:57.7,919,886,1329,919,333,2.07,482.61,1.63,0,0,120,0,0,0,43441,361,1,-0.02,-0.01,-0.73,-2.79,3.37,-1.75,-87.04,0.56,-0.35,0.64,0.47,-3.81,Sitting
51:57.8,913,895,1342.5,919,333,2.07,482.61,1.63,0,0,120,0,0,0,57841,481,0.99,-0.02,-0.06,-5.63,0.15,1.69,-1.46,-85.02,0.07,-0.53,0.88,0.01,-3.91,Sitting
51:57.9,801,871,1306.5,919,332,2.08,480.46,1.62,0,0,119,0,0,0,72002,600,1.04,-0.01,-0.06,-8.38,-3.13,0.26,-1.29,-85.18,-0.69,-1.02,0.98,-0.71,-4.39,Sitting
51:58.0,713,839,1258.5,919,332,2.08,480.46,1.62,0,0,120,0,0,0,86402,720,1.04,-0.01,0,-3.63,4.34,-1.11,-0.93,-88.01,-0.99,-0.79,0.95,-0.99,-4.28,Sitting
51:58.1,638,806,1209,919,331,2.09,478.32,1.62,0,0,120,0,0,0,100802,840,1.05,0,0,-1.83,5.32,-2.37,-0.49,-88.26,-1.11,-0.47,0.8,-1.09,-3.98,Sitting
51:58.2,586,774,1161,919,331,2.09,478.32,1.62,0,0,120,0,0,0,115202,960,1.01,0,-0.06,-1.95,-9.12,-1.72,-0.58,-85.21,-1.25,-1.55,0.71,-1.22,-4.89,Sitting
51:58.3,839,782,1173,919,332,2.08,480.46,1.62,0,0,120,0,0,0,129602,1080,1.02,0,-0.02,3.83,3.02,-2.52,-0.79,-87.07,-0.81,-1.45,0.54,-0.81,-4.87,Sitting
51:58.4,497,751,1126.5,919,332,2.08,480.46,1.62,20723.81,332,118,119.8,119,14351,0,0,1.02,0.01,-0.04,0.53,5.66,0.85,-0.26,-86.28,-0.71,-1.09,0.7,-0.69,-4.5,Sitting
51:58.5,441,720,1080,919,331,2.09,478.32,1.62,20723.81,332,118,119.8,119,14351,13924,118,1.03,-0.01,0,-6.46,-6.63,1.02,-0.91,-88.06,-1.3,-1.95,0.88,-1.28,-5.4,Sitting
51:58.6,439,694,1041,919,331,2.09,478.32,1.62,20723.81,332,118,119.8,119,14351,27848,236,1.01,-0.02,-0.01,-2.3,4.88,-4.02,-1.52,-87.34,-1.47,-1.66,0.56,-1.47,-5.09,Sitting
51:58.7,406,670,1005,919,332,2.08,480.46,1.62,20723.81,332,118,119.8,119,14351,41772,354,1,-0.01,-0.02,-4.85,-3.81,0.51,-1.43,-86.94,-1.9,-2.25,0.69,-1.88,-5.63,Sitting
51:58.8,375,647,970.5,919,331,2.09,478.32,1.62,20723.81,332,118,119.8,119,14351,55696,472,1.01,-0.01,-0.01,1.6,1.22,0.77,-0.9,-87.52,-1.68,-2.32,0.84,-1.65,-5.73,Sitting
51:58.9,421,631,946.5,919,331,2.09,478.32,1.62,20723.81,332,118,119.8,119,14351,69620,590,1.03,-0.02,-0.01,0.44,-3.17,-2.98,-1.63,-87.11,-1.58,-2.84,0.62,-1.58,-6.21,Sitting
51:59.0,499,622,933,919,332,2.08,480.46,1.62,20723.81,332,118,119.8,119,14351,83544,708,1.03,-0.01,-0.01,-1.1,6.03,-5.7,-1.01,-87.6,-1.64,-2.44,0.13,-1.61,-5.84,Sitting
51:59.1,472,613,919.5,919,332,2.08,480.46,1.62,20723.81,332,118,119.8,119,14351,97468,826,1.02,-0.01,-0.02,-7.27,8.69,-4.73,-1.12,-87.23,-2.3,-1.77,-0.26,-2.25,-5.19,Sitting
51:59.2,505,606,909,919,332,2.08,480.46,1.62,20723.81,332,118,119.8,119,14351,111392,944,1.01,-0.01,0.01,-4.79,-5.69,-3.16,-0.91,-87.76,-2.73,-2.55,-0.5,-2.66,-5.96,Sitting
51:59.3,511,601,901.5,919,332,2.08,480.46,1.62,20723.81,332,120,119.8,119,14351,125792,1064,1.02,0.02,0.02,-0.88,0.31,-3.37,0.48,-86.82,-2.76,-2.72,-0.76,-2.63,-6.08,Sitting
51:59.4,552,598,897,919,333,2.07,482.61,1.63,20723.8,331,121,118.5,118,14042,0,0,1.02,0.01,0.01,-1.5,-5.25,-2.75,-0.22,-87.88,-2.85,-3.44,-0.95,-2.75,-6.81,Sitting
51:59.5,546,596,894,919,332,2.08,480.46,1.62,20723.8,331,121,118.5,118,14042,14641,121,1,0.01,-0.05,-2.61,-9.21,-2.69,-0.07,-85.8,-3.06,-4.56,-1.14,-2.94,-7.81,Sitting
51:59.6,586,595,892.5,919,333,2.07,482.61,1.63,20723.8,331,118,118.5,118,14042,28565,239,1.02,0.01,-0.05,-0.06,6.26,-0.28,-0.28,-85.52,-3.01,-4.13,-1.09,-2.9,-7.39,Sitting
51:59.7,529,592,888,919,334,2.06,484.76,1.63,20723.8,331,121,118.5,118,14042,43206,360,1.02,-0.01,-0.06,-6.26,-1.29,0.73,-1,-85.11,-3.58,-4.46,-0.94,-3.48,-7.69,Sitting
51:59.8,500,588,882,919,333,2.07,482.61,1.63,20723.8,331,118,118.5,118,14042,57130,478,1.04,0,0.01,-3.45,7.74,-2.72,-0.85,-87.72,-3.87,-3.89,-1.13,-3.75,-7.24,Sitting
51:59.9,477,584,876,919,334,2.06,484.76,1.63,20723.8,331,120,118.5,118,14042,71530,598,1.01,0.02,0.01,-2.35,-1.21,-6.73,0.42,-87.27,-4.05,-4.21,-1.72,-3.87,-7.53,Sitting
52:00.0,471,579,868.5,919,334,2.06,484.76,1.63,20723.8,331,118,118.5,118,14042,85454,716,0.99,0.04,-0.01,0.08,-6.59,1.13,1.59,-86.19,-3.98,-5.07,-1.53,-3.76,-8.31,Sitting
52:00.1,451,574,861,919,334,2.06,484.76,1.63,20723.8,331,121,118.5,118,14042,100095,837,1,0.01,-0.04,0.14,-6.27,2.44,-0.08,-85.91,-3.91,-5.89,-1.21,-3.76,-9.1,Sitting
52:00.2,474,570,855,919,335,2.05,486.92,1.64,20723.8,331,121,118.5,118,14042,114736,958,1.03,0,-0.04,-1.57,-3.35,4.73,-0.8,-86.07,-4.01,-6.43,-0.66,-3.89,-9.62,Sitting
52:00.3,460,566,849,919,334,2.06,484.76,1.63,20723.8,331,121,118.5,118,14042,129377,1079,1.03,-0.01,-0.08,0.6,1.92,-0.31,-1.14,-84.13,-3.9,-6.44,-0.61,-3.79,-9.55,Sitting
52:00.4,506,564,846,919,335,2.05,486.92,1.64,20723.83,333,118,119.71,119,14329,0,0,1.02,-0.01,-0.08,-1.69,0.19,0.21,-1.13,-83.89,-4.01,-6.62,-0.51,-3.9,-9.71,Sitting
52:00.5,893,575,862.5,919,335,2.05,486.92,1.64,20723.83,333,121,119.71,119,14329,14641,121,1.02,0,-0.06,-0.99,4.92,-1.66,-0.74,-84.98,-4.05,-6.33,-0.6,-3.92,-9.47,Sitting
52:00.6,561,575,862.5,919,335,2.05,486.92,1.64,20723.83,333,119,119.71,119,14329,28802,240,1.03,-0.01,-0.04,-4.5,3.23,-0.82,-0.88,-86.43,-4.45,-6.2,-0.6,-4.3,-9.41,Sitting
52:00.7,555,574,861,919,335,2.05,486.92,1.64,20723.83,333,122,119.71,119,14329,43686,362,1.03,-0.01,-0.06,-3.36,2.44,-2.44,-1.19,-84.86,-4.73,-6.16,-0.76,-4.59,-9.31,Sitting
52:00.8,575,574,861,919,335,2.05,486.92,1.64,20723.83,333,119,119.71,119,14329,57847,481,1.01,0,-0.04,-3.91,0.21,-2.7,-0.65,-86,-5.06,-6.34,-0.96,-4.89,-9.52,Sitting
52:00.9,589,575,862.5,919,336,2.04,489.08,1.64,20723.83,333,119,119.71,119,14329,72008,600,1.02,0,-0.04,-1.74,-0.36,-2.28,-0.53,-86.25,-5.18,-6.57,-1.1,-4.99,-9.76,Sitting
52:01.0,606,575,862.5,919,336,2.04,489.08,1.64,20723.83,333,119,119.71,119,14329,86169,719,1.02,0.01,-0.05,-2.5,-1.42,-1.02,-0.1,-85.45,-5.38,-6.92,-1.13,-5.16,-10.06,Sitting
52:01.1,649,578,867,919,337,2.04,491.25,1.65,20723.83,333,119,119.71,119,14329,100330,838,1.02,0,-0.04,-1.56,2.76,-0.69,-0.74,-85.89,-5.48,-6.84,-1.12,-5.29,-10,Sitting
52:01.2,645,579,868.5,919,336,2.04,489.08,1.64,20723.83,333,122,119.71,119,14329,115214,960,1.02,0,-0.05,-3.95,-0.5,-1.8,-0.53,-85.51,-5.81,-7.09,-1.22,-5.6,-10.23,Sitting
52:01.3,558,579,868.5,919,337,2.04,491.25,1.65,20723.83,333,120,119.71,119,14329,129614,1080,1.02,0,-0.04,-1.65,4.49,-3.27,-0.39,-86.24,-5.92,-6.84,-1.47,-5.7,-10.02,Sitting
52:01.4,577,579,868.5,919,336,2.04,489.08,1.64,20723.86,335,121,120.1,120,14424,0,0,1.02,0.01,-0.04,-1.24,3.16,-2.02,0.14,-86.31,-5.99,-6.73,-1.59,-5.75,-9.91,Sitting
52:01.5,560,578,867,919,336,2.04,489.08,1.64,20723.86,335,122,120.1,120,14424,14884,122,1.01,0,-0.05,-2.33,-2.24,-1.76,-0.32,-85.54,-6.17,-7.15,-1.69,-5.94,-10.29,Sitting
52:01.6,564,578,867,919,336,2.04,489.08,1.64,20723.86,335,119,120.1,120,14424,29045,241,1.02,0.01,-0.07,-3.09,-0.11,-1.9,-0.18,-84.56,-6.42,-7.37,-1.8,-6.17,-10.45,Sitting
52:01.7,543,577,865.5,919,336,2.04,489.08,1.64,20723.86,335,122,120.1,120,14424,43929,363,1.01,0.01,-0.07,-2.6,2.65,-2.27,0.26,-84.34,-6.62,-7.3,-1.95,-6.35,-10.38,Sitting
52:01.8,502,575,862.5,919,337,2.04,491.25,1.65,20723.86,335,119,120.1,120,14424,58090,482,1.02,0.01,-0.05,-3.56,1.98,-1.53,0.19,-85.46,-6.93,-7.3,-2.02,-6.64,-10.43,Sitting
52:01.9,517,574,861,919,337,2.04,491.25,1.65,20723.86,335,119,120.1,120,14424,72251,601,1.02,0.01,-0.04,-2.64,3.82,-2.08,0.13,-86.05,-7.14,-7.12,-2.15,-6.85,-10.28,Sitting
52:02.0,440,571,856.5,919,337,2.04,491.25,1.65,20723.86,335,122,120.1,120,14424,87135,723,1.02,0.02,-0.03,-2.14,0.98,-1.67,0.79,-86.34,-7.29,-7.22,-2.24,-6.97,-10.39,Sitting
52:02.1,495,569,853.5,919,337,2.04,491.25,1.65,20723.86,335,119,120.1,120,14424,101296,842,1.02,0.02,-0.04,-1.99,0.32,-1.94,0.45,-86.15,-7.44,-7.39,-2.35,-7.12,-10.54,Sitting
52:02.2,436,566,849,919,337,2.04,491.25,1.65,20723.86,335,122,120.1,120,14424,116180,964,1.02,0.01,-0.04,-2.21,-0.34,-1.39,0.11,-86.3,-7.6,-7.63,-2.41,-7.29,-10.77,Sitting
52:02.3,466,564,846,919,337,2.04,491.25,1.65,20723.86,335,122,120.1,120,14424,131064,1086,1.01,0.02,-0.03,-2.97,0.7,-0.98,0.5,-86.22,-7.84,-7.76,-2.43,-7.51,-10.89,Sitting
52:02.4,470,562,843,919,337,2.04,491.25,1.65,20723.88,336,119,120.51,120,14521,0,0,1.02,0.02,-0.05,-1.5,0.69,-0.64,0.49,-85.62,-7.94,-7.89,-2.42,-7.6,-11,Sitting
52:02.5,439,560,840,919,338,2.03,493.43,1.65,20723.88,336,119,120.51,120,14521,14161,119,1.02,0.01,-0.05,-1.67,1.31,-1.02,0.06,-85.61,-8.05,-7.96,-2.44,-7.72,-11.06,Sitting
52:02.6,432,557,835.5,919,337,2.04,491.25,1.65,20723.88,336,119,120.51,120,14521,28322,238,1.03,0.02,-0.05,-1.09,1.07,-1.59,0.41,-85.51,-8.1,-8.05,-2.52,-7.76,-11.15,Sitting
52:02.7,336,553,829.5,919,337,2.04,491.25,1.65,20723.88,336,119,120.51,120,14521,42483,357,1.02,0.01,-0.05,-1.1,1.2,-1.73,0.22,-85.73,-8.16,-8.13,-2.62,-7.82,-11.23,Sitting
52:02.8,429,551,826.5,919,338,2.03,493.43,1.65,20723.88,336,119,120.51,120,14521,56644,476,1.02,0.02,-0.04,-3.31,0.53,-3.21,0.48,-85.83,-8.43,-8.28,-2.86,-8.07,-11.38,Sitting
52:02.9,480,549,823.5,919,338,2.03,493.43,1.65,20723.88,336,119,120.51,120,14521,70805,595,1.01,0.02,-0.04,-3.99,1.63,-2.69,0.39,-85.73,-8.77,-8.31,-3.05,-8.41,-11.41,Sitting
52:03.0,516,549,823.5,919,339,2.02,495.61,1.66,20723.88,336,122,120.51,120,14521,85689,717,1.02,0.03,-0.03,-3.07,0.91,-1.14,0.98,-86.15,-9.02,-8.42,-3.08,-8.62,-11.53,Sitting
52:03.1,526,548,822,919,338,2.03,493.43,1.65,20723.88,336,119,120.51,120,14521,99850,836,1.02,0.02,-0.04,-2.24,0.86,-0.79,0.3,-86.23,-9.19,-8.53,-3.08,-8.81,-11.64,Sitting
52:03.2,531,548,822,919,339,2.02,495.61,1.66,20723.88,336,119,120.51,120,14521,114011,955,1.03,0.03,-0.05,-0.74,1.77,-1.21,0.87,-85.5,-9.21,-8.56,-3.12,-8.81,-11.64,Sitting
52:03.3,569,548,822,919,338,2.03,493.43,1.65,20723.88,336,119,120.51,120,14521,128172,1074,1.02,0.03,-0.03,-1.08,-0.19,-1.23,1.06,-86.21,-9.26,-8.78,-3.17,-8.85,-11.88,Sitting
52:03.4,688,551,826.5,919,339,2.02,495.61,1.66,20723.9,338,122,119.6,119,14304,0,0,1.02,0.03,-0.05,-1.61,0.49,-1.53,1.16,-85.35,-9.37,-8.93,-3.24,-8.95,-11.98,Sitting
52:03.5,470,549,823.5,919,339,2.02,495.61,1.66,20723.9,338,121,119.6,119,14304,14641,121,1.02,0.01,-0.04,-1.7,0.89,-1.57,0.16,-86.03,-9.48,-9.04,-3.32,-9.09,-12.12,Sitting
52:03.6,432,548,822,919,338,2.03,493.43,1.65,20723.9,338,122,119.6,119,14304,29525,243,1.02,0.02,-0.04,-2.69,2.55,-0.98,0.58,-85.7,-9.7,-8.98,-3.34,-9.28,-12.05,Sitting
52:03.7,458,546,819,919,339,2.02,495.61,1.66,20723.9,338,122,119.6,119,14304,44409,365,1.02,0.03,-0.03,-2.1,2.02,-1.4,1.19,-85.9,-9.85,-8.98,-3.4,-9.41,-12.06,Sitting
52:03.8,540,546,819,919,339,2.02,495.61,1.66,20723.9,338,122,119.6,119,14304,59293,487,1.03,0.03,-0.04,-2.52,1.15,-1.47,1.1,-85.84,-10.04,-9.07,-3.47,-9.6,-12.14,Sitting
52:03.9,604,547,820.5,919,339,2.02,495.61,1.66,20723.9,338,120,119.6,119,14304,73693,607,1.01,0.02,-0.04,-1.66,0.15,-1.31,0.52,-85.75,-10.15,-9.25,-3.52,-9.73,-12.31,Sitting
52:04.0,642,548,822,919,340,2.01,497.8,1.66,20723.9,338,120,119.6,119,14304,88093,727,1.02,0.02,-0.02,-0.68,3.21,-0.69,0.5,-86.69,-10.17,-9.13,-3.51,-9.74,-12.23,Sitting
52:04.1,630,550,825,919,340,2.01,497.8,1.66,20723.9,338,120,119.6,119,14304,102493,847,1.02,0.02,-0.04,-1.85,-0.15,-1.54,0.72,-85.97,-10.3,-9.35,-3.59,-9.86,-12.41,Sitting
52:04.2,603,550,825,919,340,2.01,497.8,1.66,20723.9,338,123,119.6,119,14304,117622,970,1,0.02,-0.05,-1.54,1.9,-0.47,0.77,-85.42,-10.4,-9.36,-3.55,-9.95,-12.4,Sitting
52:04.3,560,550,825,919,340,2.01,497.8,1.66,20723.9,338,123,119.6,119,14304,132751,1093,1.02,0.02,-0.04,-1.79,0.33,-0.7,0.64,-86.03,-10.52,-9.53,-3.54,-10.07,-12.59,Sitting
52:04.4,550,550,825,919,340,2.01,497.8,1.66,20723.92,339,123,121.61,121,14787,0,0,1.02,0.02,-0.05,-1.71,0.63,-1.12,0.63,-85.5,-10.63,-9.66,-3.58,-10.18,-12.69,Sitting
52:04.5,535,550,825,919,340,2.01,497.8,1.66,20723.92,339,123,121.61,121,14787,15129,123,1.02,0.03,-0.05,-0.73,0.78,-1.21,0.85,-85.4,-10.65,-9.78,-3.62,-10.19,-12.81,Sitting
52:04.6,505,550,825,919,341,2,500,1.67,20723.92,339,120,121.61,121,14787,29529,243,1.02,0.02,-0.04,-2.15,0.1,-1.34,0.78,-85.77,-10.81,-9.97,-3.67,-10.34,-13,Sitting
52:04.7,533,549,823.5,919,340,2.01,497.8,1.66,20723.92,339,120,121.61,121,14787,43929,363,1.02,0.02,-0.03,-1.69,3.01,-0.75,0.68,-86.11,-10.92,-9.87,-3.67,-10.46,-12.92,Sitting
52:04.8,813,553,829.5,919,341,2,500,1.67,20723.92,339,123,121.61,121,14787,59058,486,1.02,0.03,-0.04,-2.04,-1.99,-1.68,1.36,-85.29,-11.07,-10.27,-3.76,-10.57,-13.27,Sitting
52:04.9,505,552,828,919,340,2.01,497.8,1.66,20723.92,339,123,121.61,121,14787,74187,609,1.02,0.02,-0.03,-1.22,4.82,-0.54,0.56,-86.19,-11.14,-9.99,-3.73,-10.67,-13.03,Sitting
52:05.0,476,551,826.5,919,341,2,500,1.67,20723.92,339,120,121.61,121,14787,88587,729,1.02,0.02,-0.02,-1.4,-1.51,-2.47,0.77,-86.55,-11.22,-10.34,-3.9,-10.74,-13.39,Sitting
52:09.7,967,967,1450.5,967,345,1.97,508.85,1.69,0,0,122,0,0,0,29768,244,1.04,0.02,-0.02,-1.63,7.83,-6.19,0.63,-86.83,-0.56,0.68,-0.51,-0.51,-2.82,Left Fall while Sitting
52:09.8,902,934,1401,967,345,1.97,508.85,1.69,0,0,122,0,0,0,44652,366,0.99,0.05,-0.04,-3.45,-3.69,-8.06,2.36,-84.79,-0.84,0.13,-1.22,-0.71,-3.27,Left Fall while Sitting
52:09.9,815,894,1341,967,344,1.97,506.63,1.68,0,0,122,0,0,0,59536,488,0.98,0.06,-0.03,-2.85,0.13,2.66,2.74,-84.56,-1.07,-0.05,-0.88,-0.91,-3.43,Left Fall while Sitting
52:10.0,710,848,1272,967,344,1.97,506.63,1.68,0,0,121,0,0,0,74177,609,1.03,0.03,-0.05,-2.86,6.97,3.37,0.96,-85.44,-1.29,0.43,-0.48,-1.2,-3.01,Left Fall while Sitting
52:10.1,635,805,1207.5,967,345,1.97,508.85,1.69,0,0,121,0,0,0,88818,730,1.06,0.02,-0.03,-2.92,1.44,-3.1,0.62,-86.55,-1.52,0.37,-0.7,-1.43,-3.1,Left Fall while Sitting
52:10.2,545,762,1143,967,345,1.97,508.85,1.69,0,0,122,0,0,0,103702,852,1.01,0.04,-0.01,-1.26,7.82,-6.68,1.96,-85.83,-1.59,0.94,-1.27,-1.45,-2.53,Left Fall while Sitting
52:10.3,507,725,1087.5,967,344,1.97,506.63,1.68,0,0,122,0,0,0,118586,974,1.07,0.02,0.04,-4.6,-0.38,-7.88,0.4,-86.06,-1.98,0.71,-1.96,-1.89,-2.76,Left Fall while Sitting
52:10.4,488,696,1044,967,345,1.97,508.85,1.69,0,0,122,0,0,0,133470,1096,1.05,0.06,0,2.56,2.87,-21.71,2.87,-84.97,-1.67,0.79,-4.03,-1.49,-2.64,Left Fall while Sitting
52:10.4,619,687,1030.5,967,345,1.97,508.85,1.69,20724.01,344,120,121.6,121,14786,0,0,0.98,0.12,0.01,5.24,10.24,-23.22,6.39,-81.44,-1.1,1.6,-6.23,-0.8,-1.72,Left Fall while Sitting
52:10.6,464,665,997.5,967,345,1.97,508.85,1.69,20724.01,344,123,121.6,121,14786,15129,123,0.95,0.16,0,0.33,1.27,-9.15,8.73,-79.11,-1.02,1.53,-7.06,-0.63,-1.7,Left Fall while Sitting
52:10.6,490,649,973.5,967,345,1.97,508.85,1.69,20724.01,344,123,121.6,121,14786,30258,246,0.95,0.16,-0.01,0.21,-2.89,6.31,8.97,-78.85,-0.94,1.04,-6.35,-0.54,-2.16,Left Fall while Sitting
52:10.7,493,636,954,967,346,1.96,511.08,1.69,20724.01,344,120,121.6,121,14786,44658,366,0.99,0.12,-0.01,0.62,-6.13,8.85,6.17,-81.66,-0.82,0.23,-5.38,-0.54,-3.05,Left Fall while Sitting
52:10.8,506,626,939,967,345,1.97,508.85,1.69,20724.01,344,120,121.6,121,14786,59058,486,1.04,0.09,-0.05,-4.07,-4.59,5.85,4.47,-82.68,-1.17,-0.43,-4.73,-0.94,-3.72,Left Fall while Sitting
52:10.9,485,616,924,967,345,1.97,508.85,1.69,20724.01,344,123,121.6,121,14786,74187,609,1.06,0.1,-0.01,-1.56,11.04,-5.22,4.95,-82.87,-1.27,0.48,-5.17,-1.02,-2.86,Left Fall while Sitting
52:11.0,468,606,909,967,345,1.97,508.85,1.69,20724.01,344,120,121.6,121,14786,88587,729,1,0.12,-0.01,1.94,13.21,-9.53,6.04,-81.8,-1.02,1.6,-6.04,-0.74,-1.74,Left Fall while Sitting
52:11.1,490,599,898.5,967,345,1.97,508.85,1.69,20724.01,344,120,121.6,121,14786,102987,849,1,0.14,0.04,-1.39,6.37,-3.76,7.46,-80.08,-1.1,2.03,-6.34,-0.76,-1.25,Left Fall while Sitting
52:11.2,683,603,904.5,967,346,1.96,511.08,1.69,20724.01,344,121,121.6,121,14786,117628,970,1.01,0.14,0.03,4.37,17.58,-6.91,7.13,-80.46,-0.61,3.59,-6.95,-0.3,0.23,Left Fall while Sitting
52:11.3,559,601,901.5,967,346,1.96,511.08,1.69,20724.01,344,123,121.6,121,14786,132757,1093,1.04,0.12,0.06,0.62,14.76,-16.43,6.14,-80.95,-0.49,4.87,-8.51,-0.22,1.43,Left Fall while Sitting
52:11.4,584,600,900,967,346,1.96,511.08,1.69,20724.02,345,121,121.4,121,14738,0,0,0.97,0.19,0.04,-4.18,7.03,-22.23,10.7,-76.92,-0.84,5.36,-10.61,-0.38,2.07,Left Fall while Sitting
52:11.5,613,601,901.5,967,346,1.96,511.08,1.69,20724.02,345,121,121.4,121,14738,14641,121,0.98,0.21,0.09,-2.24,1.92,-14.74,11.79,-75.02,-1.01,5.35,-12.01,-0.5,2.14,Left Fall while Sitting
52:11.6,663,604,906,967,347,1.95,513.31,1.7,20724.02,345,124,121.4,121,14738,30017,245,0.96,0.24,0.11,2.27,-3.12,-6.7,13.52,-72.94,-0.73,4.84,-12.6,-0.16,1.73,Left Fall while Sitting
52:11.7,694,608,912,967,347,1.95,513.31,1.7,20724.02,345,124,121.4,121,14738,45393,369,0.97,0.25,0.06,0.76,-1.61,-7.76,13.67,-73.72,-0.6,4.48,-13.29,-0.03,1.35,Left Fall while Sitting
52:11.8,658,610,915,967,346,1.96,511.08,1.69,20724.02,345,124,121.4,121,14738,60769,493,0.98,0.27,0.06,-1.27,-2.42,-11.13,14.52,-72.94,-0.67,4.04,-14.32,-0.06,0.96,Left Fall while Sitting
52:11.9,640,611,916.5,967,347,1.95,513.31,1.7,20724.02,345,121,121.4,121,14738,75410,614,0.99,0.27,0.08,-0.3,-6.73,-16.58,14.84,-72.31,-0.64,3.17,-15.9,-0.02,0.15,Left Fall while Sitting
52:12.0,954,625,937.5,967,347,1.95,513.31,1.7,20724.02,345,121,121.4,121,14738,90051,735,0.97,0.3,0.02,-6.52,-15.38,-20.92,16.62,-71.19,-1.23,1.45,-17.9,-0.52,-1.46,Left Fall while Sitting
52:12.1,554,622,933,967,347,1.95,513.31,1.7,20724.02,345,121,121.4,121,14738,104692,856,0.96,0.34,0.02,2.14,-17.33,-27.76,18.65,-69.15,-0.96,-0.51,-20.62,-0.18,-3.25,Left Fall while Sitting
52:12.2,455,616,924,967,346,1.96,511.08,1.69,20724.02,345,124,121.4,121,14738,120068,980,0.91,0.4,-0.04,4.77,-5.7,-25.47,22.95,-64.78,-0.42,-1.28,-23.11,0.51,-3.82,Left Fall while Sitting
52:12.3,426,609,913.5,967,347,1.95,513.31,1.7,20724.02,345,124,121.4,121,14738,135444,1104,0.86,0.44,-0.08,2.89,0.27,-11.21,26.46,-60.88,-0.08,-1.46,-24.16,0.98,-3.83,Left Fall while Sitting
52:12.4,464,604,906,967,346,1.96,511.08,1.69,20724.04,346,121,122.51,122,15007,0,0,0.87,0.44,-0.04,-0.66,3.03,0.8,26.38,-61.33,-0.09,-1.35,-24,0.97,-3.75,Left Fall while Sitting
52:12.5,476,600,900,967,346,1.96,511.08,1.69,20724.04,346,121,122.51,122,15007,14641,121,0.9,0.41,-0.03,-4.93,5.11,7.4,24.05,-63.7,-0.52,-1.04,-23.18,0.46,-3.55,Left Fall while Sitting
52:12.6,491,596,894,967,347,1.95,513.31,1.7,20724.04,346,124,122.51,122,15007,30017,245,0.92,0.4,-0.06,-8.9,5.77,5.08,22.67,-64.92,-1.35,-0.67,-22.6,-0.39,-3.24,Left Fall while Sitting
52:12.7,502,593,889.5,967,346,1.96,511.08,1.69,20724.04,346,124,122.51,122,15007,45393,369,0.93,0.4,-0.04,-8.47,5.65,1.1,22.76,-64.93,-2.15,-0.3,-22.41,-1.15,-2.89,Left Fall while Sitting
52:12.8,470,590,885,967,347,1.95,513.31,1.7,20724.04,346,121,122.51,122,15007,60034,490,0.93,0.39,0.04,-7.07,6.23,-1.35,22.32,-65.37,-2.79,0.12,-22.46,-1.79,-2.5,Left Fall while Sitting
52:12.9,453,585,877.5,967,347,1.95,513.31,1.7,20724.04,346,124,122.51,122,15007,75410,614,0.94,0.4,0.05,-3.5,6.57,-5.25,22.39,-65.24,-3.09,0.57,-22.91,-2.07,-2.06,Left Fall while Sitting
52:13.0,428,581,871.5,967,346,1.96,511.08,1.69,20724.04,346,123,122.51,122,15007,90539,737,0.91,0.42,0.04,-4.88,-3.28,-4.53,24.02,-63.68,-3.52,0.05,-23.28,-2.42,-2.5,Left Fall while Sitting
52:13.1,425,577,865.5,967,347,1.95,513.31,1.7,20724.04,346,123,122.51,122,15007,105668,860,0.9,0.4,0.04,-2.15,2.98,2.5,23.49,-64.25,-3.68,0.14,-22.95,-2.59,-2.43,Left Fall while Sitting
52:13.2,439,573,859.5,967,346,1.96,511.08,1.69,20724.04,346,120,122.51,122,15007,120068,980,0.92,0.39,0.01,-4.71,-2.37,6.99,22.69,-65.14,-4.09,-0.29,-22.18,-3.02,-2.89,Left Fall while Sitting
52:13.3,454,570,855,967,346,1.96,511.08,1.69,20724.04,346,120,122.51,122,15007,134468,1100,0.97,0.38,0.03,-1.21,0.47,4.14,20.59,-67.16,-4.16,-0.45,-21.68,-3.17,-3.12,Left Fall while Sitting
52:13.4,455,567,850.5,967,346,1.96,511.08,1.69,20724.04,346,124,122.41,122,14983,0,0,0.97,0.36,0,-3.79,-0.98,-5.69,19.57,-68.26,-4.48,-0.74,-22.16,-3.51,-3.44,Left Fall while Sitting
52:13.5,389,562,843,967,345,1.97,508.85,1.69,20724.04,346,124,122.41,122,14983,15376,124,0.91,0.38,0.03,-1.47,2.85,-10.54,22.26,-65.51,-4.57,-0.65,-23.13,-3.49,-3.25,Left Fall while Sitting
52:13.6,486,560,840,967,346,1.96,511.08,1.69,20724.04,346,123,122.41,122,14983,30505,247,0.9,0.41,0,-4.08,-4.7,-3.82,24.07,-63.77,-4.92,-1.33,-23.44,-3.76,-3.83,Left Fall while Sitting
52:13.7,509,559,838.5,967,345,1.97,508.85,1.69,20724.04,346,121,122.41,122,14983,45146,368,0.89,0.42,0.02,-3.02,1.44,2.16,24.56,-63.26,-5.17,-1.39,-23.14,-3.98,-3.86,Left Fall while Sitting
52:13.8,494,558,837,967,344,1.97,506.63,1.68,20724.04,346,124,122.41,122,14983,60522,492,0.92,0.41,0,-5.1,0.05,9.86,23.23,-64.61,-5.62,-1.58,-22.09,-4.46,-4.1,Left Fall while Sitting
52:13.9,497,556,834,967,344,1.97,506.63,1.68,20724.04,346,124,122.41,122,14983,75898,616,0.92,0.38,0,-6.18,3.24,15.15,21.69,-66.15,-6.19,-1.46,-20.48,-5.07,-4.04,Left Fall while Sitting
52:14.0,525,556,834,967,343,1.98,504.41,1.68,20724.04,346,124,122.41,122,14983,91274,740,0.94,0.33,0.06,-4.24,1.67,15.71,18.8,-68.74,-6.55,-1.49,-18.85,-5.54,-4.18,Left Fall while Sitting
52:14.1,518,555,832.5,967,343,1.98,504.41,1.68,20724.04,346,124,122.41,122,14983,106650,864,1,0.29,0.04,-2.75,3.01,10.98,15.79,-71.92,-6.77,-1.39,-17.67,-5.87,-4.21,Left Fall while Sitting
52:14.2,516,554,831,967,342,1.99,502.2,1.67,20724.04,346,124,122.41,122,14983,122026,988,0.99,0.29,0.05,-2.8,1.77,-1.08,15.79,-71.82,-7,-1.41,-17.7,-6.08,-4.23,Left Fall while Sitting
52:14.3,498,553,829.5,967,342,1.99,502.2,1.67,20724.04,346,123,122.41,122,14983,137155,1111,0.96,0.3,0.04,-2.94,-1.43,-2.69,16.99,-70.68,-7.23,-1.75,-17.89,-6.26,-4.51,Left Fall while Sitting
52:14.4,466,551,826.5,967,341,2,500,1.67,20723.99,343,121,123.2,123,15178,0,0,0.95,0.31,0.02,0.53,-0.6,1.64,17.74,-70.06,-7.13,-2.01,-17.65,-6.13,-4.73,Left Fall while Sitting
52:14.5,465,549,823.5,967,340,2.01,497.8,1.66,20723.99,343,121,123.2,123,15178,14641,121,0.92,0.3,0.05,0.73,-3.28,6.47,17.53,-70.1,-7,-2.54,-16.92,-6.02,-5.24,Left Fall while Sitting
52:14.6,472,548,822,967,341,2,500,1.67,20723.99,343,124,123.2,123,15178,30017,245,0.94,0.31,-0.01,2.43,-2.15,16.83,17.63,-70.19,-6.7,-2.95,-15.16,-5.72,-5.64,Left Fall while Sitting
52:14.7,462,546,819,967,340,2.01,497.8,1.66,20723.99,343,124,123.2,123,15178,45393,369,0.95,0.25,-0.01,-5.76,-13.31,25.81,13.87,-73.97,-7.21,-4.47,-12.53,-6.37,-7.25,Left Fall while Sitting
52:14.8,461,544,816,967,340,2.01,497.8,1.66,20723.99,343,124,123.2,123,15178,60769,493,1.03,0.18,-0.01,-0.08,1.31,24.8,9.18,-78.63,-7.17,-4.54,-9.94,-6.51,-7.5,Left Fall while Sitting
52:14.9,493,543,814.5,967,340,2.01,497.8,1.66,20723.99,343,124,123.2,123,15178,76145,617,1.03,0.13,-0.03,-1.85,2.69,13.78,6.62,-81,-7.29,-4.47,-8.48,-6.74,-7.53,Left Fall while Sitting
52:15.0,380,541,811.5,967,339,2.02,495.61,1.66,20723.99,343,122,123.2,123,15178,91029,739,1.05,0.13,-0.03,-2.08,6.6,5.01,6.37,-81.25,-7.44,-4.01,-7.91,-6.89,-7.1,Left Fall while Sitting
52:15.1,479,539,808.5,967,340,2.01,497.8,1.66,20723.99,343,122,123.2,123,15178,105913,861,1,0.14,0,-4.03,8.22,0.39,7.33,-80.51,-7.8,-3.39,-7.79,-7.19,-6.47,Left Fall while Sitting
52:15.2,508,539,808.5,967,340,2.01,497.8,1.66,20723.99,343,122,123.2,123,15178,120797,983,0.99,0.14,0.01,-5.47,7.41,4.63,7.35,-80.47,-8.28,-2.85,-7.26,-7.66,-5.96,Left Fall while Sitting
52:15.3,576,539,808.5,967,340,2.01,497.8,1.66,20723.99,343,124,123.2,123,15178,136173,1107,1,0.11,0.02,-5.29,10.47,8.68,5.94,-81.83,-8.76,-1.99,-6.3,-8.17,-5.19,Left Fall while Sitting
52:15.4,635,541,811.5,967,339,2.02,495.61,1.66,20723.93,339,124,123.1,123,15153,0,0,1.01,0.09,0.05,-11.77,2.97,8.93,4.41,-82.59,-9.86,-1.9,-5.35,-9.29,-5.13,Left Fall while Sitting
52:15.5,685,543,814.5,967,340,2.01,497.8,1.66,20723.93,339,121,123.1,123,15153,14641,121,1,0.07,0.06,-3.18,3.57,6.98,3.38,-83.28,-10.12,-1.74,-4.58,-9.58,-5.01,Left Fall while Sitting
52:15.6,602,544,816,967,340,2.01,497.8,1.66,20723.93,339,124,123.1,123,15153,30017,245,0.99,0.06,0.06,-4.71,-2.98,12.19,2.75,-83.48,-10.53,-2.24,-3.29,-10,-5.49,Left Fall while Sitting
52:15.7,501,544,816,967,340,2.01,497.8,1.66,20723.93,339,123,123.1,123,15153,45146,368,1.03,0.02,0.04,-3.6,-8.15,12.67,0.44,-86,-10.84,-3.26,-1.93,-10.39,-6.57,Left Fall while Sitting
52:15.8,413,542,813,967,340,2.01,497.8,1.66,20723.93,339,121,123.1,123,15153,59787,489,1.03,0,0.01,0.13,-6.04,7.29,-0.38,-87.63,-10.77,-4.07,-1.12,-10.35,-7.41,Left Fall while Sitting
52:15.9,377,539,808.5,967,340,2.01,497.8,1.66,20723.93,339,121,123.1,123,15153,74428,610,1.03,0,-0.01,-0.2,-1.49,4.98,-0.47,-87.97,-10.73,-4.42,-0.54,-10.32,-7.76,Left Fall while Sitting
52:16.0,306,535,802.5,967,340,2.01,497.8,1.66,20723.93,339,124,123.1,123,15153,89804,734,1.03,-0.01,0.02,-3.89,-2.29,1.69,-1.12,-87.32,-11.06,-4.85,-0.29,-10.67,-8.15,Left Fall while Sitting
52:16.1,309,532,798,967,340,2.01,497.8,1.66,20723.93,339,124,123.1,123,15153,105180,858,1.01,-0.01,0,-0.17,1.63,2.24,-1.19,-87.79,-11.02,-4.88,0.01,-10.63,-8.2,Left Fall while Sitting
52:16.2,357,529,793.5,967,340,2.01,497.8,1.66,20723.93,339,124,123.1,123,15153,120556,982,1.04,-0.02,0.02,-0.67,-0.85,-1.24,-1.67,-86.97,-11.04,-5.17,-0.04,-10.66,-8.44,Left Fall while Sitting
52:16.3,370,527,790.5,967,341,2,500,1.67,20723.93,339,124,123.1,123,15153,135932,1106,1.02,-0.01,0.01,-2.08,-2.63,-3.43,-1.27,-87.66,-11.19,-5.64,-0.3,-10.79,-8.92,Left Fall while Sitting
52:19.4,896,896,1344,896,346,1.96,511.08,1.69,0,0,121,0,0,0,29525,243,1.02,-0.01,-0.03,-3.85,3.73,-1.05,-1.36,-86.58,-0.64,0.5,-0.03,-0.67,-2.99,Right Fall while Sitting
52:19.5,886,891,1336.5,896,346,1.96,511.08,1.69,0,0,122,0,0,0,44409,365,1.03,-0.04,0,2.22,-2.63,6.89,-2.77,-86.22,-0.37,0.05,0.71,-0.47,-3.4,Right Fall while Sitting
52:19.6,849,877,1315.5,896,346,1.96,511.08,1.69,0,0,122,0,0,0,59293,487,1.06,-0.03,-0.07,-0.9,0.24,-0.8,-2.47,-84.08,-0.41,-0.12,0.71,-0.49,-3.48,Right Fall while Sitting
52:19.7,798,857,1285.5,896,346,1.96,511.08,1.69,0,0,120,0,0,0,73693,607,1.02,-0.02,-0.05,-3.19,3.37,-2.87,-1.85,-85.5,-0.67,0.01,0.51,-0.71,-3.41,Right Fall while Sitting
52:19.8,709,827,1240.5,896,346,1.96,511.08,1.69,0,0,122,0,0,0,88577,729,1.01,-0.02,-0.04,-2.57,1.24,-2.66,-1.7,-85.83,-0.86,-0.06,0.33,-0.9,-3.49,Right Fall while Sitting
52:19.9,642,796,1194,896,347,1.95,513.31,1.7,0,0,122,0,0,0,103461,851,1.01,-0.02,-0.02,-2.35,1.37,-0.96,-1.47,-86.99,-1.04,-0.12,0.31,-1.06,-3.6,Right Fall while Sitting
52:19.9,497,753,1129.5,896,346,1.96,511.08,1.69,0,0,122,0,0,0,118345,973,1.02,-0.02,-0.05,-1.64,1.96,-1.81,-1.84,-85.32,-1.14,-0.13,0.21,-1.17,-3.53,Right Fall while Sitting
52:20.0,444,715,1072.5,896,346,1.96,511.08,1.69,0,0,122,0,0,0,133229,1095,1.02,-0.02,-0.05,-1.07,3.82,1.95,-1.85,-85.17,-1.19,0.05,0.48,-1.22,-3.36,Right Fall while Sitting
52:20.1,411,681,1021.5,896,346,1.96,511.08,1.69,20724.03,346,120,121.5,121,14761,0,0,1.01,-0.03,-0.04,-3.44,3.07,10.17,-2.24,-85.56,-1.48,0.16,1.57,-1.51,-3.27,Right Fall while Sitting
52:20.2,441,657,985.5,896,347,1.95,513.31,1.7,20724.03,346,123,121.5,121,14761,15129,123,1.02,-0.06,-0.02,0.79,-1.83,6.76,-3.85,-85.03,-1.34,-0.22,2.31,-1.44,-3.61,Right Fall while Sitting
52:20.3,725,663,994.5,896,347,1.95,513.31,1.7,20724.03,346,120,121.5,121,14761,29529,243,1,-0.07,-0.02,-0.08,10.07,11.18,-4.55,-84.27,-1.3,0.59,3.52,-1.43,-2.8,Right Fall while Sitting
52:20.4,438,644,966,896,347,1.95,513.31,1.7,20724.03,346,123,121.5,121,14761,44658,366,1.02,-0.1,-0.02,-0.69,10.71,15.38,-6,-82.87,-1.31,1.46,5.12,-1.5,-1.92,Right Fall while Sitting
52:20.5,513,634,951,896,347,1.95,513.31,1.7,20724.03,346,120,121.5,121,14761,59058,486,1.04,-0.13,0.01,2.87,7.73,10.79,-7.49,-81.5,-0.97,2.03,6.28,-1.23,-1.31,Right Fall while Sitting
52:20.6,477,623,934.5,896,347,1.95,513.31,1.7,20724.03,346,120,121.5,121,14761,73458,606,1.04,-0.16,-0.01,1.31,8.37,12.15,-9.37,-79.61,-0.78,2.67,7.58,-1.12,-0.62,Right Fall while Sitting
52:20.7,443,611,916.5,896,347,1.95,513.31,1.7,20724.03,346,123,121.5,121,14761,88587,729,0.98,-0.18,0.03,-2.11,3.27,20.27,-10.72,-78.17,-0.93,2.79,9.66,-1.32,-0.45,Right Fall while Sitting
52:20.8,434,600,900,896,347,1.95,513.31,1.7,20724.03,346,123,121.5,121,14761,103716,852,1,-0.2,0.06,-1.54,7.96,16.05,-12.05,-76.48,-1.03,3.39,11.34,-1.47,0.19,Right Fall while Sitting
52:20.9,483,593,889.5,896,347,1.95,513.31,1.7,20724.03,346,123,121.5,121,14761,118845,975,1,-0.24,0.04,1.11,13.74,12.47,-14.07,-74.72,-0.86,4.56,12.67,-1.39,1.39,Right Fall while Sitting
52:21.0,586,592,888,896,348,1.94,515.56,1.7,20724.03,346,123,121.5,121,14761,133974,1098,0.95,-0.27,0.08,1.5,10.01,16.17,-16.21,-72.17,-0.66,5.36,14.37,-1.28,2.26,Right Fall while Sitting
52:21.1,445,585,877.5,896,348,1.94,515.56,1.7,20724.05,347,120,121.81,121,14836,0,0,0.97,-0.29,0.11,-0.69,5.04,15.41,-16.96,-70.9,-0.67,5.66,15.97,-1.32,2.6,Right Fall while Sitting
52:21.2,485,580,870,896,348,1.94,515.56,1.7,20724.05,347,123,121.81,121,14836,15129,123,0.96,-0.31,0.09,-0.85,8.02,13.82,-18.22,-69.96,-0.7,6.27,17.43,-1.4,3.22,Right Fall while Sitting
52:21.3,474,575,862.5,896,349,1.93,517.8,1.71,20724.05,347,121,121.81,121,14836,29770,244,0.94,-0.33,0.11,-0.27,11.23,15.21,-19.66,-68.34,-0.67,7.19,19.03,-1.43,4.17,Right Fall while Sitting
52:21.4,527,572,858,896,348,1.94,515.56,1.7,20724.05,347,121,121.81,121,14836,44411,365,0.94,-0.35,0.12,-1.33,8.7,13.1,-20.71,-67.13,-0.75,7.85,20.41,-1.55,4.85,Right Fall while Sitting
52:21.5,552,571,856.5,896,349,1.93,517.8,1.71,20724.05,347,121,121.81,121,14836,59052,486,0.94,-0.38,0.12,-1.53,5.19,9.18,-22.31,-65.53,-0.85,8.18,21.41,-1.7,5.23,Right Fall while Sitting
52:21.6,549,571,856.5,896,349,1.93,517.8,1.71,20724.05,347,121,121.81,121,14836,73693,607,0.93,-0.4,0.12,-2.6,0.51,8.23,-23.81,-64.03,-1.05,8.03,22.31,-1.96,5.15,Right Fall while Sitting
52:21.7,539,569,853.5,896,349,1.93,517.8,1.71,20724.05,347,124,121.81,121,14836,89069,731,0.92,-0.41,0.12,-6.11,0.02,9.68,-24.17,-63.74,-1.6,7.83,23.34,-2.5,4.97,Right Fall while Sitting
52:21.8,526,568,852,896,349,1.93,517.8,1.71,20724.05,347,121,121.81,121,14836,103710,852,0.94,-0.43,0.15,-7.48,1.46,5.49,-24.62,-62.91,-2.3,7.78,23.98,-3.19,4.95,Right Fall while Sitting
52:21.9,518,566,849,896,350,1.92,520.06,1.71,20724.05,347,124,121.81,121,14836,119086,976,0.91,-0.43,0.11,-6.09,-0.76,-0.96,-25.48,-62.57,-2.84,7.5,23.96,-3.75,4.7,Right Fall while Sitting
52:22.0,510,564,846,896,349,1.93,517.8,1.71,20724.05,347,121,121.81,121,14836,133727,1097,0.91,-0.44,0.09,-7.56,-2.18,2.11,-26.27,-62.12,-3.54,7.09,24.25,-4.45,4.32,Right Fall while Sitting
52:22.1,468,560,840,896,350,1.92,520.06,1.71,20724.08,349,125,122.21,122,14934,0,0,0.9,-0.45,0.11,-9.02,-5.02,1.4,-27.19,-60.97,-4.38,6.39,24.47,-5.29,3.7,Right Fall while Sitting
52:22.2,510,559,838.5,896,349,1.93,517.8,1.71,20724.08,349,122,122.21,122,14934,14884,122,0.92,-0.45,0.09,-5.02,-5.31,-2.95,-26.75,-61.71,-4.83,5.66,24.25,-5.7,2.97,Right Fall while Sitting
52:22.3,445,555,832.5,896,349,1.93,517.8,1.71,20724.08,349,121,122.21,122,14934,29525,243,0.9,-0.46,0.06,-4.35,-2.76,-0.79,-27.47,-61.24,-5.21,5.18,24.25,-6.1,2.53,Right Fall while Sitting
52:22.4,536,554,831,896,350,1.92,520.06,1.71,20724.08,349,121,122.21,122,14934,44166,364,0.92,-0.47,0.08,-6.59,-2.17,0.9,-27.24,-61.32,-5.81,4.77,24.42,-6.67,2.12,Right Fall while Sitting
52:22.5,514,553,829.5,896,349,1.93,517.8,1.71,20724.08,349,121,122.21,122,14934,58807,485,0.92,-0.46,0.08,-5.15,-0.15,-2.07,-26.88,-61.68,-6.27,4.55,24.29,-7.09,1.9,Right Fall while Sitting
52:22.6,519,552,828,896,348,1.94,515.56,1.7,20724.08,349,124,122.21,122,14934,74183,609,0.91,-0.46,0.06,-3.73,-2.35,-3.71,-27.04,-61.71,-6.58,4.12,24,-7.4,1.49,Right Fall while Sitting
52:22.7,532,552,828,896,348,1.94,515.56,1.7,20724.08,349,121,122.21,122,14934,88824,730,0.91,-0.45,0.06,-4.31,-2.33,-2.34,-27.08,-61.67,-6.96,3.68,23.85,-7.76,1.07,Right Fall while Sitting
52:22.8,436,548,822,896,348,1.94,515.56,1.7,20724.08,349,121,122.21,122,14934,103465,851,0.91,-0.45,0.04,-4.21,0.38,-1.21,-26.7,-62.18,-7.33,3.52,23.81,-8.1,0.89,Right Fall while Sitting
52:22.9,432,545,817.5,896,348,1.94,515.56,1.7,20724.08,349,124,122.21,122,14934,118841,975,0.92,-0.45,0.05,-5.73,-1.35,-0.73,-26.64,-62.2,-7.84,3.19,23.81,-8.59,0.57,Right Fall while Sitting
52:23.0,390,541,811.5,896,347,1.95,513.31,1.7,20724.08,349,124,122.21,122,14934,134217,1099,0.93,-0.45,0.04,-3.46,-3.02,-5.28,-26.32,-62.58,-8.13,2.68,23.36,-8.86,0.07,Right Fall while Sitting
52:23.1,413,538,807,896,348,1.94,515.56,1.7,20724.07,348,124,122.31,122,14958,0,0,0.92,-0.45,0.03,-4.27,-1.27,-2.61,-26.45,-62.49,-8.5,2.36,23.18,-9.22,-0.23,Right Fall while Sitting
52:23.2,478,536,804,896,347,1.95,513.31,1.7,20724.07,348,121,122.31,122,14958,14641,121,0.93,-0.45,0.02,-3.5,3.8,-0.92,-26.4,-62.58,-8.79,2.54,23.16,-9.5,-0.07,Right Fall while Sitting
52:23.3,508,536,804,896,347,1.95,513.31,1.7,20724.07,348,121,122.31,122,14958,29282,242,0.92,-0.45,0.05,-0.92,2.12,-3.35,-26.47,-62.38,-8.83,2.55,22.91,-9.53,-0.05,Right Fall while Sitting
52:23.4,525,535,802.5,896,348,1.94,515.56,1.7,20724.07,348,121,122.31,122,14958,43923,363,0.91,-0.45,0.04,-1.4,-1.18,-3.24,-26.9,-61.99,-8.91,2.23,22.66,-9.63,-0.33,Right Fall while Sitting
52:23.5,540,535,802.5,896,347,1.95,513.31,1.7,20724.07,348,121,122.31,122,14958,58564,484,0.92,-0.44,0.03,-0.68,0.16,-1.6,-26.08,-62.87,-8.92,2.05,22.58,-9.61,-0.55,Right Fall while Sitting
52:23.6,580,536,804,896,347,1.95,513.31,1.7,20724.07,348,121,122.31,122,14958,73205,605,0.91,-0.43,0.04,0.29,0.68,-2.82,-25.97,-62.9,-8.84,1.92,22.38,-9.52,-0.67,Right Fall while Sitting
52:23.7,471,535,802.5,896,347,1.95,513.31,1.7,20724.07,348,123,122.31,122,14958,88334,728,0.93,-0.43,0.03,-1.79,0.47,-1.85,-25.2,-63.74,-8.96,1.77,22.27,-9.61,-0.85,Right Fall while Sitting
52:23.8,533,535,802.5,896,347,1.95,513.31,1.7,20724.07,348,124,122.31,122,14958,103710,852,0.93,-0.43,0.03,-1.21,-1.32,-4.87,-25.32,-63.62,-9.03,1.44,21.87,-9.68,-1.17,Right Fall while Sitting
52:23.9,534,535,802.5,896,347,1.95,513.31,1.7,20724.07,348,121,122.31,122,14958,118351,973,0.93,-0.43,0.03,-2.5,-2.83,-8.82,-25.4,-63.52,-9.22,0.95,21.06,-9.87,-1.63,Right Fall while Sitting
52:24.0,572,536,804,896,347,1.95,513.31,1.7,20724.07,348,123,122.31,122,14958,133480,1096,0.92,-0.42,0.03,-3.94,1.38,-7.34,-25.11,-63.81,-9.56,0.89,20.4,-10.18,-1.7,Right Fall while Sitting
52:24.1,594,537,805.5,896,347,1.95,513.31,1.7,20724.05,347,120,121.61,121,14787,0,0,0.92,-0.41,0.04,-1.9,2.19,-7.33,-24.71,-64.19,-9.69,0.91,19.75,-10.3,-1.7,Right Fall while Sitting
52:24.2,555,537,805.5,896,347,1.95,513.31,1.7,20724.05,347,123,121.61,121,14787,15129,123,0.95,-0.39,0.01,1.76,0.34,-9.92,-22.61,-66.37,-9.46,0.74,18.83,-9.99,-1.95,Right Fall while Sitting
52:24.3,649,539,808.5,896,348,1.94,515.56,1.7,20724.05,347,120,121.61,121,14787,29529,243,0.99,-0.36,0.02,1.69,3.33,-19.47,-20.59,-68.39,-9.24,0.87,16.97,-9.69,-1.9,Right Fall while Sitting
52:24.4,622,541,811.5,896,348,1.94,515.56,1.7,20724.05,347,120,121.61,121,14787,43929,363,0.95,-0.32,0.02,6.11,4.47,-32.6,-19.35,-69.6,-8.57,1.12,13.79,-9,-1.71,Right Fall while Sitting
52:24.5,979,549,823.5,979,348,1.94,515.56,1.7,20724.05,347,120,121.61,121,14787,58329,483,0.96,-0.29,-0.01,2.08,-2.45,-28.18,-17.32,-71.67,-8.31,0.67,11.05,-8.67,-2.22,Right Fall while Sitting
52:24.6,639,551,826.5,979,349,1.93,517.8,1.71,20724.05,347,124,121.61,121,14787,73705,607,0.97,-0.24,0.04,-3.11,-4.38,-20.23,-14.43,-74.38,-8.56,0.04,9.1,-8.8,-2.94,Right Fall while Sitting
52:24.7,653,553,829.5,979,348,1.94,515.56,1.7,20724.05,347,124,121.61,121,14787,89081,731,0.99,-0.2,0.03,-3.24,-0.18,-13.37,-11.79,-77.1,-8.83,-0.18,7.85,-8.95,-3.26,Right Fall while Sitting
52:24.8,663,555,832.5,979,349,1.93,517.8,1.71,20724.05,347,124,121.61,121,14787,104457,855,1,-0.18,0.04,-1.27,3.88,-14.27,-10.98,-77.8,-8.9,0.01,6.48,-8.98,-3.1,Right Fall while Sitting
52:24.9,690,557,835.5,979,348,1.94,515.56,1.7,20724.05,347,121,121.61,121,14787,119098,976,1.01,-0.16,0.02,-1.82,-0.9,-17.98,-9.68,-79.25,-9.03,-0.28,4.78,-9.05,-3.44,Right Fall while Sitting
52:25.0,665,559,838.5,979,349,1.93,517.8,1.71,20724.05,347,120,121.61,121,14787,133498,1096,1,-0.15,0,-8.42,2.99,-22.84,-8.95,-80.05,-9.82,-0.18,2.56,-9.79,-3.37,Right Fall while Sitting
52:25.1,660,561,841.5,979,349,1.93,517.8,1.71,20724.07,348,123,121.91,121,14861,0,0,1.02,-0.09,-0.01,-10.31,5.62,-20.98,-5.62,-83.37,-10.79,0.18,0.56,-10.58,-3.16,Right Fall while Sitting
52:25.2,585,561,841.5,979,349,1.93,517.8,1.71,20724.07,348,121,121.91,121,14861,14641,121,1.01,-0.05,0.05,-7.49,-0.07,-12.44,-3.57,-84.43,-11.48,-0.03,-0.61,-11.16,-3.4,Right Fall while Sitting
52:25.3,531,560,840,979,349,1.93,517.8,1.71,20724.07,348,124,121.91,121,14861,30017,245,0.97,-0.03,0.09,-6.37,7.38,-1.76,-2.1,-82.63,-12.07,0.52,-0.71,-11.67,-2.81,Right Fall while Sitting
52:25.4,489,559,838.5,979,349,1.93,517.8,1.71,20724.07,348,124,121.91,121,14861,45393,369,1.08,-0.11,-0.03,-6.73,-7.67,-3.63,-6.5,-82.33,-12.68,-0.45,-0.99,-12.43,-3.73,Right Fall while Sitting
52:25.5,483,558,837,979,349,1.93,517.8,1.71,20724.07,348,124,121.91,121,14861,60769,493,1.05,-0.06,0.04,-1.65,-0.02,-12.11,-3.58,-84.61,-12.79,-0.66,-2.13,-12.42,-4.01,Right Fall while Sitting
52:25.6,497,557,835.5,979,350,1.92,520.06,1.71,20724.07,348,124,121.91,121,14861,76145,617,1,-0.05,0.05,-3.98,-2.27,-9.6,-3.45,-84.37,-13.14,-1.09,-3.02,-12.75,-4.42,Right Fall while Sitting
52:25.7,502,556,834,979,350,1.92,520.06,1.71,20724.07,348,124,121.91,121,14861,91521,741,1.01,-0.02,0.03,-4.68,-7,-12.92,-1.57,-86.4,-13.55,-1.99,-4.24,-13.07,-5.36,Right Fall while Sitting
52:25.8,467,555,832.5,979,351,1.91,522.32,1.72,20724.07,348,121,121.91,121,14861,106162,862,1.01,0.04,-0.01,-8.39,-4.77,-10.73,1.44,-86.32,-14.33,-2.66,-5.23,-13.7,-6.01,Right Fall while Sitting
52:25.9,487,554,831,979,351,1.91,522.32,1.72,20724.07,348,124,121.91,121,14861,121538,986,0.98,0,-0.02,-7.97,-9.25,-3.06,-0.32,-87.22,-15.09,-3.81,-5.46,-14.5,-7.15,Right Fall while Sitting
52:26.0,495,553,829.5,979,350,1.92,520.06,1.71,20724.07,348,124,121.91,121,14861,136914,1110,1.01,0.02,-0.01,-2.69,5.21,2.01,0.56,-87.15,-15.3,-3.49,-5.18,-14.67,-6.84,Right Fall while Sitting
52:26.1,467,552,828,979,350,1.92,520.06,1.71,20724.09,349,124,123.41,123,15228,0,0,1.03,-0.01,0,-0.78,-0.36,0.97,-0.89,-88.11,-15.32,-3.72,-5.01,-14.75,-7.1,Right Fall while Sitting
52:26.2,449,550,825,979,351,1.91,522.32,1.72,20724.09,349,125,123.41,123,15228,15625,125,1.03,0,-0.01,-0.47,-1.93,-1.12,-0.58,-87.82,-15.31,-4.12,-5.04,-14.72,-7.47,Right Fall while Sitting
52:26.3,436,549,823.5,979,351,1.91,522.32,1.72,20724.09,349,125,123.41,123,15228,31250,250,1.03,0.01,-0.02,-1.39,-0.01,-4.34,-0.13,-87.09,-15.4,-4.32,-5.4,-14.79,-7.63,Right Fall while Sitting
52:26.4,445,547,820.5,979,352,1.91,524.59,1.72,20724.09,349,122,123.41,123,15228,46134,372,1.02,0.03,-0.02,-1.62,-0.26,-4.72,1.18,-86.33,-15.5,-4.55,-5.8,-14.84,-7.82,Right Fall while Sitting
52:26.5,457,546,819,979,351,1.91,522.32,1.72,20724.09,349,124,123.41,123,15228,61510,496,1.01,0.03,-0.03,-0.36,-2.05,-0.42,0.99,-86.23,-15.48,-4.96,-5.76,-14.82,-8.21,Right Fall while Sitting
52:26.6,476,545,817.5,979,352,1.91,524.59,1.72,20724.09,349,124,123.41,123,15228,76886,620,1.02,0.02,-0.03,-1.77,-0.62,0.62,0.69,-86.27,-15.6,-5.22,-5.62,-14.95,-8.46,Right Fall while Sitting
52:26.7,496,544,816,979,351,1.91,522.32,1.72,20724.09,349,125,123.41,123,15228,92511,745,1.02,0,-0.03,-1.06,-0.5,-1.68,-0.47,-86.79,-15.65,-5.47,-5.71,-15.05,-8.72,Right Fall while Sitting
52:26.8,487,544,816,979,352,1.91,524.59,1.72,20724.09,349,121,123.41,123,15228,107152,866,1.03,0.01,-0.02,-0.05,1.42,0.08,0.02,-87.23,-15.6,-5.53,-5.62,-14.98,-8.8,Right Fall while Sitting
52:26.9,536,543,814.5,979,351,1.91,522.32,1.72,20724.09,349,125,123.41,123,15228,122777,991,0.99,0.02,-0.02,-0.24,0.61,1.9,0.79,-86.62,-15.57,-5.67,-5.35,-14.92,-8.9,Right Fall while Sitting
52:27.0,543,543,814.5,979,352,1.91,524.59,1.72,20724.09,349,122,123.41,123,15228,137661,1113,1.03,-0.02,-0.02,0.18,-2.56,3.63,-1.46,-87.09,-15.5,-6.13,-4.9,-14.94,-9.37,Right Fall while Sitting
52:31.3,655,655,982.5,655,356,1.87,533.73,1.74,0,0,123,0,0,0,30505,247,1.01,-0.03,-0.06,-1.36,4.63,0.31,-2.26,-84.56,-0.1,0.28,0.23,-0.18,-3.12,Forward Fall while Sitting
52:31.4,548,601,901.5,655,355,1.88,531.44,1.74,0,0,123,0,0,0,45634,370,1.03,-0.04,-0.04,-1.84,3.05,-1.34,-2.63,-85.35,-0.22,0.38,0.18,-0.32,-3.05,Forward Fall while Sitting
52:31.5,376,526,789,655,355,1.88,531.44,1.74,0,0,123,0,0,0,60763,493,1.03,-0.04,-0.05,-1.05,4.14,-2.2,-2.67,-84.91,-0.27,0.58,0.04,-0.36,-2.84,Forward Fall while Sitting
52:31.6,303,470,705,655,355,1.88,531.44,1.74,0,0,123,0,0,0,75892,616,1.02,-0.02,-0.03,1.67,7.06,-4.75,-1.57,-86.41,-0.05,1.08,-0.35,-0.11,-2.42,Forward Fall while Sitting
52:31.7,229,422,633,655,356,1.87,533.73,1.74,0,0,122,0,0,0,90776,738,1.02,0.01,-0.03,-1.98,7.23,-0.95,-0.14,-86.48,-0.19,1.59,-0.36,-0.19,-1.93,Forward Fall while Sitting
52:31.8,156,377,565.5,655,355,1.88,531.44,1.74,0,0,123,0,0,0,105905,861,1.02,-0.01,-0.04,3.68,14.11,-0.27,-1.1,-86.36,0.22,2.77,-0.31,0.17,-0.8,Forward Fall while Sitting
52:31.9,238,357,535.5,655,355,1.88,531.44,1.74,0,0,124,0,0,0,121281,985,1.04,-0.02,0.02,6.16,31.14,1.56,-1.59,-86.89,0.87,5.59,-0.09,0.78,1.89,Forward Fall while Sitting
52:32.0,320,353,529.5,655,355,1.88,531.44,1.74,0,0,124,0,0,0,136657,1109,0.98,-0.04,0.02,-2.68,21.11,-0.76,-2.92,-85.89,0.67,7.47,-0.08,0.52,3.73,Forward Fall while Sitting
52:32.1,467,365,547.5,655,356,1.87,533.73,1.74,20724.19,355,125,123.4,123,15227,0,0,0.96,-0.01,0.11,-3.73,-1.49,5.87,-1.2,-81.89,0.36,7.12,0.57,0.29,3.56,Forward Fall while Sitting
52:32.2,581,387,580.5,655,357,1.87,536.04,1.74,20724.19,355,122,123.4,123,15227,14884,122,1.03,-0.02,0.11,-1.15,-12.33,4.92,-1.89,-82.19,0.3,5.71,1.14,0.21,2.19,Forward Fall while Sitting
52:32.3,607,407,610.5,655,356,1.87,533.73,1.74,20724.19,355,122,123.4,123,15227,29768,244,1.03,-0.05,0.08,8.23,-4.05,0.48,-3.54,-83.16,1.17,5.11,1.26,0.98,1.58,Forward Fall while Sitting
52:32.4,605,423,634.5,655,356,1.87,533.73,1.74,20724.19,355,121,123.4,123,15227,44409,365,1.02,-0.07,0.04,3.16,-10.89,-4.48,-4.49,-83.79,1.54,3.83,0.9,1.29,0.33,Forward Fall while Sitting
52:32.5,653,441,661.5,655,356,1.87,533.73,1.74,20724.19,355,121,123.4,123,15227,59050,486,1,-0.03,0.02,-3.24,-25.15,-5.16,-2.45,-86.28,1.27,1.14,0.46,1.12,-2.35,Forward Fall while Sitting
52:32.6,673,457,685.5,673,356,1.87,533.73,1.74,20724.19,355,121,123.4,123,15227,73691,607,1,-0.03,-0.04,2.05,-36.53,-3.02,-2.48,-85.63,1.53,-2.71,0.24,1.37,-6.03,Forward Fall while Sitting
52:32.7,672,472,708,673,355,1.88,531.44,1.74,20724.19,355,122,123.4,123,15227,88575,729,0.98,-0.04,-0.1,5.57,-35.4,-1.25,-2.75,-82.44,2.14,-6.45,0.19,1.95,-9.49,Forward Fall while Sitting
52:32.8,761,490,735,761,355,1.88,531.44,1.74,20724.19,355,123,123.4,123,15227,103704,852,1.01,-0.03,-0.15,7,-31.75,1.34,-2.46,-79.55,2.9,-9.83,0.41,2.69,-12.61,Forward Fall while Sitting
52:32.9,913,515,772.5,913,355,1.88,531.44,1.74,20724.19,355,126,123.4,123,15227,119580,978,1.03,-0.04,-0.25,0.42,-31.5,-0.63,-2.51,-74.73,3,-13.14,0.42,2.78,-15.61,Forward Fall while Sitting
52:33.0,942,538,807,942,355,1.88,531.44,1.74,20724.19,355,123,123.4,123,15227,134709,1101,1.02,-0.03,-0.31,0.98,-26.73,-3.34,-2.27,-71.48,3.15,-16.04,0.17,2.94,-18.26,Forward Fall while Sitting
52:33.1,998,563,844.5,998,355,1.88,531.44,1.74,20724.19,355,123,122.41,122,14982,0,0,0.97,-0.03,-0.29,2.45,-27.06,-3.24,-2.26,-71.46,3.45,-18.92,-0.08,3.22,-21.02,Forward Fall while Sitting
52:33.2,684,569,853.5,998,354,1.89,529.15,1.73,20724.19,355,125,122.41,122,14982,15625,125,0.96,-0.04,-0.39,-1.44,-26.28,-1.01,-2.64,-66.49,3.36,-21.78,-0.1,3.12,-23.57,Forward Fall while Sitting
52:33.3,615,571,856.5,998,355,1.88,531.44,1.74,20724.19,355,123,122.41,122,14982,30754,248,0.96,-0.05,-0.4,-1.9,-29.27,-1.06,-3.12,-65.36,3.23,-24.9,-0.12,2.97,-26.52,Forward Fall while Sitting
52:33.4,600,572,858,998,353,1.9,526.87,1.73,20724.19,355,126,122.41,122,14982,46630,374,0.95,-0.04,-0.47,-0.56,-26.4,-2.54,-2.49,-61.77,3.23,-27.74,-0.3,3,-29.11,Forward Fall while Sitting
52:33.5,576,572,858,998,353,1.9,526.87,1.73,20724.19,355,126,122.41,122,14982,62506,500,0.94,-0.03,-0.5,-3.79,-21.11,-2.39,-2.39,-60.1,2.9,-30.08,-0.46,2.69,-31.28,Forward Fall while Sitting
52:33.6,626,574,861,998,352,1.91,524.59,1.72,20724.19,355,123,122.41,122,14982,77635,623,0.9,-0.02,-0.54,-6.17,-21.82,-0.12,-1.65,-57.35,2.33,-32.48,-0.39,2.18,-33.48,Forward Fall while Sitting
52:33.7,558,574,861,998,351,1.91,522.32,1.72,20724.19,355,126,122.41,122,14982,93511,749,0.87,-0.03,-0.58,-4.63,-20.69,1.21,-2.23,-54.95,1.93,-34.75,-0.19,1.76,-35.56,Forward Fall while Sitting
52:33.8,244,561,841.5,998,351,1.91,522.32,1.72,20724.19,355,127,122.41,122,14982,109640,876,0.85,-0.03,-0.59,-0.77,-9.39,2.07,-2.46,-53.5,1.91,-35.9,0.09,1.73,-36.61,Forward Fall while Sitting
52:33.9,267,550,825,998,351,1.91,522.32,1.72,20724.19,355,128,122.41,122,14982,126024,1004,0.87,-0.04,-0.64,-6.23,-9.66,2.82,-2.67,-52.06,1.34,-37.07,0.46,1.18,-37.67,Forward Fall while Sitting
52:34.0,290,541,811.5,998,351,1.91,522.32,1.72,20724.19,355,125,122.41,122,14982,141649,1129,0.85,-0.04,-0.62,-1.79,-18.34,0.87,-2.73,-52.28,1.22,-39.1,0.62,1.06,-39.63,Forward Fall while Sitting
52:34.1,375,535,802.5,998,351,1.91,522.32,1.72,20724.13,352,125,125.41,125,15726,0,0,0.85,-0.05,-0.68,-5.65,-10.31,-1.81,-3.45,-49.82,0.71,-40.32,0.52,0.55,-40.7,Forward Fall while Sitting
52:34.2,352,529,793.5,998,350,1.92,520.06,1.71,20724.13,352,128,125.41,125,15726,16384,128,0.81,-0.03,-0.67,-4.31,-9.79,-1.24,-2.44,-48.67,0.34,-41.5,0.48,0.23,-41.79,Forward Fall while Sitting
52:34.3,3,512,768,998,350,1.92,520.06,1.71,20724.13,352,126,125.41,125,15726,32260,254,0.82,-0.04,-0.67,-3.32,-11.62,0.13,-2.85,-49.17,0.06,-42.86,0.57,-0.06,-43.11,Forward Fall while Sitting
52:34.4,315,506,759,998,351,1.91,522.32,1.72,20724.13,352,125,125.41,125,15726,47885,379,0.8,-0.04,-0.71,1.81,-3.26,-2.37,-2.88,-46.85,0.3,-43.39,0.41,0.17,-43.53,Forward Fall while Sitting
52:34.5,470,505,757.5,998,350,1.92,520.06,1.71,20724.13,352,125,125.41,125,15726,63510,504,0.79,-0.04,-0.74,-1.54,-4.63,-0.75,-2.47,-45.23,0.2,-44.05,0.41,0.1,-44.1,Forward Fall while Sitting
52:34.6,510,505,757.5,998,350,1.92,520.06,1.71,20724.13,352,125,125.41,125,15726,79135,629,0.79,-0.05,-0.72,-3.27,-3.24,-2.28,-3,-45.69,-0.07,-44.57,0.26,-0.18,-44.62,Forward Fall while Sitting
52:34.7,553,506,759,998,350,1.92,520.06,1.71,20724.13,352,125,125.41,125,15726,94760,754,0.76,-0.04,-0.72,-1.99,-4.56,-2.48,-2.98,-44.72,-0.21,-45.24,0.09,-0.32,-45.22,Forward Fall while Sitting
52:34.8,572,508,762,998,351,1.91,522.32,1.72,20724.13,352,125,125.41,125,15726,110385,879,0.79,-0.03,-0.72,-0.08,0.2,-2.34,-2.36,-45.9,-0.16,-45.42,-0.07,-0.25,-45.44,Forward Fall while Sitting
52:34.9,545,509,763.5,998,350,1.92,520.06,1.71,20724.13,352,125,125.41,125,15726,126010,1004,0.59,-0.05,-0.59,0.37,14.88,-0.04,-3.87,-43.33,-0.07,-44.13,0.01,-0.22,-44.1,Forward Fall while Sitting
52:35.0,594,511,766.5,998,351,1.91,522.32,1.72,20724.13,352,128,125.41,125,15726,142394,1132,0.82,-0.03,-0.74,1.18,27.46,1.24,-2.32,-46.3,0.11,-41.56,0.22,0.01,-41.75,Forward Fall while Sitting
52:35.1,652,515,772.5,998,351,1.91,522.32,1.72,20724.1,350,128,126,126,15876,0,0,0.83,-0.06,-0.67,0.31,25.93,1.76,-3.62,-49.58,0.19,-39.19,0.47,0.04,-39.61,Forward Fall while Sitting
52:35.2,811,522,783,998,352,1.91,524.59,1.72,20724.1,350,126,126,126,15876,15876,126,0.86,-0.05,-0.64,4.47,29.9,-1.56,-3.11,-51.74,0.69,-36.43,0.39,0.54,-37.04,Forward Fall while Sitting
52:35.3,834,530,795,998,352,1.91,524.59,1.72,20724.1,350,125,126,126,15876,31501,251,0.88,-0.04,-0.6,1.06,32.79,-1.42,-2.87,-53.91,0.85,-33.32,0.33,0.7,-34.14,Forward Fall while Sitting
52:35.4,938,540,810,998,352,1.91,524.59,1.72,20724.1,350,125,126,126,15876,47126,376,0.92,-0.07,-0.51,-0.69,26.98,0.14,-4.5,-59.34,0.84,-30.85,0.42,0.63,-31.99,Forward Fall while Sitting
52:35.5,792,545,817.5,998,351,1.91,522.32,1.72,20724.1,350,124,126,126,15876,62502,500,0.91,-0.06,-0.47,1.77,27.28,-1.81,-4.07,-60.79,1.08,-28.29,0.32,0.87,-29.59,Forward Fall while Sitting
52:35.6,727,550,825,998,351,1.91,522.32,1.72,20724.1,350,124,126,126,15876,77878,624,0.93,-0.07,-0.45,-0.34,35.05,-2.27,-4.46,-62.11,1.1,-24.99,0.17,0.88,-26.47,Forward Fall while Sitting
52:35.7,655,552,828,998,352,1.91,524.59,1.72,20724.1,350,124,126,126,15876,93254,748,0.94,-0.06,-0.37,-0.77,45.69,1.57,-3.7,-66.95,1.08,-20.66,0.4,0.89,-22.51,Forward Fall while Sitting
52:35.8,581,552,828,998,350,1.92,520.06,1.71,20724.1,350,123,126,126,15876,108383,871,1.07,-0.07,-0.36,-0.39,44.34,2.13,-4.14,-69.55,1.09,-16.39,0.7,0.88,-18.51,Forward Fall while Sitting
52:35.9,490,551,826.5,998,351,1.91,522.32,1.72,20724.1,350,126,126,126,15876,124259,997,0.99,-0.08,-0.22,0.59,32.73,1.54,-5.03,-75.3,1.21,-13.31,0.93,0.96,-15.79,Forward Fall while Sitting
52:36.0,375,547,820.5,998,350,1.92,520.06,1.71,20724.1,350,122,126,126,15876,139143,1119,1,-0.07,-0.21,0.66,30.95,-0.96,-4.23,-76.26,1.33,-10.42,0.91,1.11,-13.05,Forward Fall while Sitting
52:36.1,365,544,816,998,350,1.92,520.06,1.71,20724.12,351,125,124.4,124,15475,0,0,1,-0.08,-0.17,-5.44,29.71,-2.72,-4.94,-78.06,0.85,-7.67,0.72,0.62,-10.49,Forward Fall while Sitting
52:36.2,272,538,807,998,351,1.91,522.32,1.72,20724.12,351,125,124.4,124,15475,15625,125,1.03,-0.07,-0.1,-10.28,18.34,-4.08,-4.57,-81.63,-0.12,-6.04,0.39,-0.3,-9.06,Forward Fall while Sitting
52:36.3,293,533,799.5,998,350,1.92,520.06,1.71,20724.12,351,124,124.4,124,15475,31001,249,0.93,-0.05,0.07,-7.91,7.12,-6.24,-3.52,-83.1,-0.86,-5.53,-0.15,-0.97,-8.63,Forward Fall while Sitting
52:36.4,0,523,784.5,998,350,1.92,520.06,1.71,20724.12,351,124,124.4,124,15475,46377,373,0.97,-0.05,-0.02,3.07,23.32,-7.7,-3.7,-85.01,-0.5,-3.4,-0.84,-0.62,-6.66,Forward Fall while Sitting
52:36.5,0,513,769.5,998,350,1.92,520.06,1.71,20724.12,351,123,124.4,124,15475,61506,496,0.98,-0.06,-0.05,-2.54,24.1,-4.27,-4.22,-83.75,-0.69,-1.19,-1.19,-0.84,-4.49,Forward Fall while Sitting
52:36.6,55,505,757.5,998,350,1.92,520.06,1.71,20724.12,351,125,124.4,124,15475,77131,621,1.01,-0.04,-0.03,-4.46,27.21,-3.25,-2.79,-85.59,-1.08,1.33,-1.44,-1.15,-2.14,Forward Fall while Sitting
52:36.7,239,500,750,998,350,1.92,520.06,1.71,20724.12,351,122,124.4,124,15475,92015,743,1.05,-0.04,0.03,-3.65,42.79,-8.45,-2.54,-86.01,-1.39,5.41,-2.2,-1.44,1.76,Forward Fall while Sitting
52:36.8,836,506,759,998,351,1.91,522.32,1.72,20724.12,351,122,124.4,124,15475,106899,865,1,-0.03,0.09,-15.13,36.69,-16.35,-2.44,-82.9,-2.85,8.88,-3.76,-2.83,5.21,Forward Fall while Sitting
52:36.9,999,515,772.5,999,352,1.91,524.59,1.72,20724.12,351,122,124.4,124,15475,121783,987,1,0.07,0.19,-16.99,1.73,-8.58,3.12,-77.23,-4.49,8.85,-4.54,-4.19,5.41,Forward Fall while Sitting
52:37.0,999,523,784.5,999,352,1.91,524.59,1.72,20724.12,351,125,124.4,124,15475,137408,1112,1,-0.01,0.28,-6.65,0.25,-1.81,-1.12,-72.7,-5.1,8.68,-4.64,-4.94,5.42,Forward Fall while Sitting
52:37.1,998,531,796.5,999,352,1.91,524.59,1.72,20724.11,350,125,123.71,123,15302,0,0,0.95,-0.02,0.21,-7.59,-17.96,-1.08,-1.47,-75.93,-5.8,6.7,-4.67,-5.63,3.4,Forward Fall while Sitting
52:37.2,995,539,808.5,999,352,1.91,524.59,1.72,20724.11,350,122,123.71,123,15302,14884,122,0.99,-0.02,0.17,0.61,-22.34,3.05,-1.51,-78.51,-5.68,4.29,-4.29,-5.52,0.98,Forward Fall while Sitting
52:37.3,749,542,813,999,352,1.91,524.59,1.72,20724.11,350,122,123.71,123,15302,29768,244,1.02,0,0.1,6.33,-19.45,4.92,-0.47,-82.89,-4.99,2.13,-3.71,-4.81,-1.27,Forward Fall while Sitting
52:37.4,560,542,813,999,352,1.91,524.59,1.72,20724.11,350,124,123.71,123,15302,45144,368,1.02,-0.03,0.07,0.5,-14.9,1.31,-2.06,-84.26,-4.88,0.45,-3.5,-4.77,-2.93,Forward Fall while Sitting
52:37.5,392,540,810,999,352,1.91,524.59,1.72,20724.11,350,124,123.71,123,15302,60520,492,1.03,-0.04,0,-0.15,-9.82,-2.9,-2.68,-86.3,-4.84,-0.72,-3.71,-4.76,-4.14,Forward Fall while Sitting
52:37.6,339,537,805.5,999,351,1.91,522.32,1.72,20724.11,350,123,123.71,123,15302,75649,615,1.01,-0.01,0.01,-2.53,-3.96,-5.66,-0.99,-87.87,-5.04,-1.32,-4.21,-4.88,-4.78,Forward Fall while Sitting
52:37.7,86,530,795,999,352,1.91,524.59,1.72,20724.11,350,124,123.71,123,15302,91025,739,0.99,-0.01,0.01,-3.27,-1.28,-2.19,-1.43,-87.46,-5.31,-1.65,-4.35,-5.16,-5.08,Forward Fall while Sitting
52:37.8,200,525,787.5,999,352,1.91,524.59,1.72,20724.11,350,124,123.71,123,15302,106401,863,1,0,0.02,-2.87,2.27,1.67,-0.64,-87.33,-5.54,-1.62,-4.1,-5.35,-5.05,Forward Fall while Sitting
52:37.9,0,517,775.5,999,352,1.91,524.59,1.72,20724.11,350,123,123.71,123,15302,121530,986,1.02,-0.01,0.01,-3.31,-2.31,-0.34,-1.29,-87.62,-5.82,-2.05,-4.05,-5.64,-5.47,Forward Fall while Sitting
52:38.0,124,511,766.5,999,353,1.9,526.87,1.73,20724.11,350,121,123.71,123,15302,136171,1107,1.02,-0.01,0.02,1.52,-0.34,-3.34,-1.27,-86.97,-5.61,-2.28,-4.31,-5.44,-5.67,Forward Fall while Sitting
52:38.1,273,508,762,999,352,1.91,524.59,1.72,20724.13,352,121,122.8,122,15080,0,0,1,0.01,0.02,1.24,1.13,0.59,-0.22,-87.25,-5.43,-2.37,-4.17,-5.22,-5.76,Forward Fall while Sitting
52:38.2,346,506,759,999,352,1.91,524.59,1.72,20724.13,352,121,122.8,122,15080,14641,121,1.01,-0.01,-0.01,-3.32,-0.13,-1.22,-1.04,-87.84,-5.71,-2.58,-4.22,-5.52,-5.99,Forward Fall while Sitting
52:38.3,401,504,756,999,353,1.9,526.87,1.73,20724.13,352,121,122.8,122,15080,29282,242,1.03,-0.03,0.01,-0.11,6.08,1.51,-2.08,-86.88,-5.66,-2.17,-3.99,-5.52,-5.56,Forward Fall while Sitting
52:45.6,977,977,1465.5,977,339,2.02,495.61,1.66,0,0,118,0,0,0,28085,237,0.96,0,0.02,7.44,-3.67,-3.44,-0.75,-87.29,1.65,-0.38,-0.92,1.56,-3.86,Walking
52:45.7,868,922,1383,977,339,2.02,495.61,1.66,0,0,119,0,0,0,42246,356,0.99,0.03,0.05,13.82,-3.58,0.21,1.09,-84.97,3.05,-0.92,-0.82,2.97,-4.28,Walking
52:45.8,889,911,1366.5,977,339,2.02,495.61,1.66,0,0,119,0,0,0,56407,475,1.04,0.03,-0.01,8.84,-4.04,3.08,1.29,-86.51,3.96,-1.51,-0.45,3.85,-4.91,Walking
52:45.9,835,892,1338,977,339,2.02,495.61,1.66,0,0,119,0,0,0,70568,594,1.05,0.01,-0.01,8.73,0.05,-1.94,0.18,-87.35,4.86,-1.7,-0.56,4.67,-5.12,Walking
52:46.0,788,871,1306.5,977,339,2.02,495.61,1.66,0,0,119,0,0,0,84729,713,1.03,0.03,-0.04,3.81,-2.54,-4.09,1.27,-85.58,5.29,-2.14,-0.88,5.13,-5.47,Walking
52:46.1,693,841,1261.5,977,338,2.03,493.43,1.65,0,0,119,0,0,0,98890,832,1,0.03,-0.03,2.63,-0.22,-2.63,1.31,-85.81,5.6,-2.35,-1.06,5.42,-5.69,Walking
52:46.2,551,800,1200,977,339,2.02,495.61,1.66,0,0,119,0,0,0,113051,951,1.01,0.03,-0.03,2.69,-2.86,-0.4,1.17,-85.93,5.91,-2.82,-1.02,5.72,-6.15,Walking
52:46.3,567,771,1156.5,977,338,2.03,493.43,1.65,0,0,119,0,0,0,127212,1070,1.03,0.03,0,4.28,-2.47,1.52,0.89,-86.95,6.39,-3.27,-0.79,6.17,-6.61,Walking
52:46.4,541,745,1117.5,977,337,2.04,491.25,1.65,20723.91,338,118,118.8,118,14112,0,0,1.02,0.02,-0.03,6.45,0.85,-0.82,0.38,-86.45,7.08,-3.38,-0.79,6.81,-6.7,Walking
52:46.5,524,723,1084.5,977,338,2.03,493.43,1.65,20723.91,338,118,118.8,118,14112,13924,118,1.02,0.03,-0.09,2.73,-0.63,-1.53,0.83,-83.08,7.4,-3.64,-0.87,7.14,-6.82,Walking
52:46.6,555,708,1062,977,338,2.03,493.43,1.65,20723.91,338,119,118.8,118,14112,28085,237,1.02,0.03,-0.1,-3.98,-1.37,-1.03,1.09,-82.59,7.06,-3.97,-0.89,6.83,-7.12,Walking
52:46.7,581,697,1045.5,977,337,2.04,491.25,1.65,20723.91,338,121,118.8,118,14112,42726,358,1.02,0.03,-0.12,-6.73,2.85,1.85,1.15,-81.44,6.44,-3.89,-0.62,6.23,-6.99,Walking
52:46.8,497,682,1023,977,337,2.04,491.25,1.65,20723.91,338,121,118.8,118,14112,57367,479,1.02,0.02,-0.1,-12.87,4.12,2.85,0.62,-82.89,5.22,-3.68,-0.26,5.04,-6.84,Walking
52:46.9,515,670,1005,977,338,2.03,493.43,1.65,20723.91,338,123,118.8,118,14112,72496,602,1.04,0.01,-0.01,-13.02,-0.79,1.38,-0.01,-87.58,3.99,-3.95,-0.05,3.83,-7.3,Walking
52:47.0,589,664,996,977,337,2.04,491.25,1.65,20723.91,338,126,118.8,118,14112,88372,728,1.04,0,-0.02,-5.78,5.98,-0.2,-0.61,-87.42,3.47,-3.55,0.01,3.3,-6.91,Walking
52:47.1,606,661,991.5,977,338,2.03,493.43,1.65,20723.91,338,124,118.8,118,14112,103748,852,1.03,0,0.01,-8.36,3.66,-0.97,-0.78,-87.66,2.69,-3.39,-0.01,2.55,-6.76,Walking
52:47.2,595,657,985.5,977,338,2.03,493.43,1.65,20723.91,338,124,118.8,118,14112,119124,976,1.01,-0.01,-0.01,-4.56,-0.14,-1.21,-1.05,-87.73,2.29,-3.6,-0.05,2.16,-6.97,Walking
52:47.3,565,652,978,977,336,2.04,489.08,1.64,20723.91,338,123,118.8,118,14112,134253,1099,1.03,0.01,-0.02,-1.12,4.6,-0.3,-0.21,-87.31,2.23,-3.34,0,2.14,-6.7,Walking
52:47.4,495,643,964.5,977,335,2.05,486.92,1.64,20723.89,337,124,122.32,122,14961,0,0,1.04,0.01,-0.04,-5.48,4.32,-5.93,-0.11,-86.36,1.75,-3.11,-0.5,1.68,-6.44,Walking
52:47.5,398,631,946.5,977,335,2.05,486.92,1.64,20723.89,337,124,122.32,122,14961,15376,124,1,0.02,0.01,-9.34,1.89,-2.69,0.5,-87.26,0.87,-3.12,-0.69,0.86,-6.49,Walking
52:47.6,345,617,925.5,977,334,2.06,484.76,1.63,20723.89,337,125,122.32,122,14961,31001,249,0.99,0.02,0.04,-9.82,-0.97,-1.95,0.62,-85.81,-0.05,-3.42,-0.81,-0.02,-6.71,Walking
52:47.7,362,606,909,977,333,2.07,482.61,1.63,20723.89,337,126,122.32,122,14961,46877,375,1,0.01,0.03,-5.25,4.21,-1.64,0.16,-86.59,-0.52,-3.2,-0.89,-0.49,-6.53,Walking
52:47.8,409,597,895.5,977,333,2.07,482.61,1.63,20723.89,337,124,122.32,122,14961,62253,499,1.02,0.02,0,-7.26,2.1,0.85,0.38,-87.45,-1.18,-3.19,-0.73,-1.12,-6.56,Walking
52:47.9,457,591,886.5,977,332,2.08,480.46,1.62,20723.89,337,128,122.32,122,14961,78637,627,1.01,0.02,0.04,-7.76,1.62,1.56,0.48,-86.14,-1.9,-3.23,-0.5,-1.8,-6.54,Walking
52:48.0,665,594,891,977,332,2.08,480.46,1.62,20723.89,337,125,122.32,122,14961,94262,752,1.01,0.01,0.06,-7.08,-0.06,-0.9,0.1,-85.16,-2.55,-3.43,-0.51,-2.45,-6.7,Walking
52:48.1,417,587,880.5,977,332,2.08,480.46,1.62,20723.89,337,128,122.32,122,14961,110646,880,1.02,0,0.12,2.28,-1.05,-1.48,-0.85,-81.99,-2.27,-3.73,-0.58,-2.21,-6.86,Walking
52:48.2,449,582,873,977,333,2.07,482.61,1.63,20723.89,337,127,122.32,122,14961,126775,1007,1.02,0,0.03,8.13,1.79,0.1,-0.59,-86.7,-1.39,-3.76,-0.49,-1.36,-7.07,Walking
52:48.3,506,579,868.5,977,333,2.07,482.61,1.63,20723.89,337,127,122.32,122,14961,142904,1134,1.02,0,0,3.22,5.02,-0.73,-0.66,-88.28,-1.01,-3.45,-0.48,-1,-6.85,Walking
52:48.4,512,577,865.5,977,332,2.08,480.46,1.62,20723.82,332,130,126.41,126,15979,0,0,1.01,0,0.01,2.33,-2.07,-1.35,-0.71,-88.08,-0.73,-3.85,-0.54,-0.73,-7.22,Walking
52:48.5,336,569,853.5,977,332,2.08,480.46,1.62,20723.82,332,128,126.41,126,15979,16384,128,1.01,0,0.01,4.4,-3.91,0.69,-0.39,-87.61,-0.23,-4.45,-0.39,-0.24,-7.78,Walking
52:48.6,144,555,832.5,977,332,2.08,480.46,1.62,20723.82,332,129,126.41,126,15979,33025,257,1.01,0,0.03,6.24,-1.45,1.02,-0.86,-86.91,0.44,-4.79,-0.21,0.39,-8.08,Walking
52:48.7,227,545,817.5,977,333,2.07,482.61,1.63,20723.82,332,130,126.41,126,15979,49925,387,1.01,0,0.02,9.36,-1.01,0.27,-0.66,-87.23,1.43,-5.09,-0.1,1.34,-8.37,Walking
52:48.8,465,543,814.5,977,333,2.07,482.61,1.63,20723.82,332,130,126.41,126,15979,66825,517,1.02,0,-0.01,9.44,-2.92,0.84,-0.84,-87.99,2.42,-5.58,0.06,2.29,-8.88,Walking
52:48.9,520,542,813,977,333,2.07,482.61,1.63,20723.82,332,133,126.41,126,15979,84514,650,1.03,-0.01,-0.03,10.33,0.09,-0.42,-0.95,-86.96,3.51,-5.77,0.1,3.34,-9.02,Walking
52:49.0,549,542,813,977,333,2.07,482.61,1.63,20723.82,332,132,126.41,126,15979,101938,782,1.03,-0.01,-0.03,5.52,1.71,-0.44,-0.96,-86.55,4.12,-5.8,0.13,3.92,-9.03,Walking
52:49.1,643,545,817.5,977,333,2.07,482.61,1.63,20723.82,332,132,126.41,126,15979,119362,914,1.01,-0.01,-0.04,5.75,-1.92,-3.7,-1.04,-85.93,4.75,-6.19,-0.16,4.51,-9.38,Walking
52:49.2,638,547,820.5,977,332,2.08,480.46,1.62,20723.82,332,133,126.41,126,15979,137051,1047,1.01,0.02,-0.07,3.84,-0.42,-1.48,0.4,-84.08,5.19,-6.43,-0.22,4.99,-9.54,Walking
52:49.3,633,550,825,977,334,2.06,484.76,1.63,20723.82,332,135,126.41,126,15979,155276,1182,1.03,0,-0.07,1.78,2.54,0.19,-0.55,-84.77,5.42,-6.38,-0.13,5.18,-9.51,Walking
52:49.4,725,554,831,977,334,2.06,484.76,1.63,20723.82,332,136,131.82,131,17376,0,0,1.02,0,-0.07,-0.86,0.27,0.31,-0.84,-84.25,5.39,-6.55,-0.02,5.14,-9.65,Walking
