Datetime, ECGR , AvgECG , ampECG , MAX , GSRR , Resistance , GSR(kohm) , SCL , GSRRMS , GSRMAV , EMGR , EMGRMS , EMGMAV , EMGVAR , EMGSSI , IEMG , AccX , AccY, AccZ , GyroX , GyroY , GyroZ , Aroll , Apitch , Groll , Gpitch, Gy , Combroll , Combpitch,Features,,,Datetime
39:45.7,23,23,34.5,23,421,1.43,699.34,2.06,0,0,236,0,0,0,4294948089,473,1.02,0,0.04,-2.14,0.55,-1.05,-0.43,-86.39,-0.02,-0.25,-0.16,-0.04,-3.69,Standing,,,39:45.7
39:45.8,987,505,757.5,987,421,1.43,699.34,2.06,0,0,233,0,0,0,4294936842,706,1.01,0,0.05,-2.54,2,-2.63,-0.46,-85.37,-0.27,-0.25,-0.38,-0.28,-3.65,Standing,,,39:45.8
39:45.9,884,631,946.5,987,420,1.44,696.52,2.05,0,0,233,0,0,0,4294925595,939,1.01,0.02,0.05,-2.6,2.5,-3.27,0.63,-85.09,-0.52,-0.19,-0.69,-0.47,-3.58,Standing,,,39:45.9
39:46.0,0,473,709.5,987,419,1.44,693.71,2.05,0,0,238,0,0,0,4294916703,1177,1.01,0.02,0.04,-1.56,0.76,-1.69,0.77,-85.83,-0.64,-0.34,-0.8,-0.59,-3.76,Standing,,,39:46.0
39:46.2,286,436,654,987,420,1.44,696.52,2.05,0,0,235,0,0,0,4294906392,1412,1.01,0.01,0.07,-0.93,-0.45,-0.22,0.06,-84.43,-0.69,-0.64,-0.73,-0.66,-4,Standing,,,39:46.2
39:46.3,950,521,781.5,987,420,1.44,696.52,2.05,0,0,236,0,0,0,4294896552,1648,1.02,0,0.05,-1.51,1.23,-0.28,-0.43,-85.56,-0.81,-0.74,-0.67,-0.79,-4.13,Standing,,,39:46.3
39:46.4,985,587,880.5,987,421,1.43,699.34,2.06,0,0,238,0,0,0,4294887660,1886,1.02,0.01,0.06,-1.38,4.18,-2.73,0.01,-85.27,-0.91,-0.47,-0.9,-0.87,-3.86,Standing,,,39:46.4
39:46.5,648,595,892.5,987,422,1.42,702.16,2.06,0,0,238,0,0,0,4294878768,2124,1.02,0.02,0.07,-2.08,1.88,-1.76,0.31,-84.47,-1.09,-0.48,-1.02,-1.04,-3.84,Standing,,,39:46.5
39:46.7,0,529,793.5,987,422,1.42,702.16,2.06,20723.83,420,239,20724.07,236,429487040,0,0,1,0.02,0.07,-2.13,1.69,-1.39,0.5,-84.15,-1.29,-0.52,-1.1,-1.22,-3.87,Standing,,,39:46.7
39:46.8,522,528,792,987,422,1.42,702.16,2.06,20723.83,420,235,20724.07,236,429487040,4294956985,235,1.01,0.02,0.07,-0.22,-0.26,-0.49,0.35,-84.61,-1.25,-0.81,-1.06,-1.18,-4.16,Standing,,,39:46.8
39:46.9,155,494,741,987,421,1.43,699.34,2.06,20723.83,420,238,20724.07,236,429487040,4294948093,473,1.02,0,0.06,-0.41,-0.75,0.76,-0.61,-84.83,-1.23,-1.16,-0.86,-1.2,-4.5,Standing,,,39:46.9
39:47.0,677,509,763.5,987,424,1.41,707.85,2.07,20723.83,420,235,20724.07,236,429487040,4294937782,708,1.02,0,0.05,-2.92,-0.34,-1.55,-0.39,-85.67,-1.53,-1.45,-0.96,-1.48,-4.82,Standing,,,39:47.0
39:47.2,70,475,712.5,987,422,1.42,702.16,2.06,20723.83,420,241,20724.07,236,429487040,4294930327,949,1.01,0.01,0.05,-1.99,2.33,-0.87,-0.04,-85.35,-1.71,-1.41,-0.97,-1.64,-4.77,Standing,,,39:47.2
39:47.3,723,493,739.5,987,422,1.42,702.16,2.06,20723.83,420,227,20724.07,236,429487040,4294916320,1176,1.02,0.01,0.06,-1.26,1.36,-1.65,-0.14,-84.75,-1.8,-1.49,-1.08,-1.73,-4.82,Standing,,,39:47.3
39:47.4,0,460,690,987,422,1.42,702.16,2.06,20723.83,420,236,20724.07,236,429487040,4294906480,1412,1.01,0.01,0.06,-2.2,-1.01,-0.73,0.17,-85.18,-2.01,-1.88,-1.07,-1.92,-5.21,Standing,,,39:47.4
39:47.5,983,493,739.5,987,422,1.42,702.16,2.06,20723.83,420,235,20724.07,236,429487040,4294896169,1647,1.02,0.01,0.06,-2.05,1.36,-0.64,-0.15,-85.29,-2.19,-1.96,-1.05,-2.11,-5.29,Standing,,,39:47.5
39:47.7,223,477,715.5,987,423,1.42,705,2.07,20723.83,420,234,20724.07,236,429487040,4294885389,1881,1.01,0.01,0.06,-1.26,1.21,-2.18,-0.03,-85,-2.28,-2.06,-1.23,-2.19,-5.37,Standing,,,39:47.7
39:47.8,21,452,678,987,423,1.42,705,2.07,20723.83,420,240,20724.07,236,429487040,4294877453,2121,1.02,0.02,0.06,-2.14,1.98,-1.91,0.37,-85.16,-2.48,-2.06,-1.37,-2.37,-5.38,Standing,,,39:47.8
39:47.9,989,480,720,989,423,1.42,705,2.07,20723.86,422,233,20724.06,235,429486624,0,0,1.02,0,0.07,-3.15,0.87,-0.16,-0.39,-84.31,-2.81,-2.2,-1.29,-2.71,-5.48,Standing,,,39:47.9
39:48.0,0,456,684,989,423,1.42,705,2.07,20723.86,422,239,20724.06,235,429486624,4294958881,239,1,0.01,0.04,-2.56,0.2,-1.73,0,-85.9,-3.06,-2.43,-1.41,-2.94,-5.77,Standing,,,39:48.0
39:48.2,562,461,691.5,989,423,1.42,705,2.07,20723.86,422,237,20724.06,235,429486624,4294949514,476,1.01,0,0.07,-1.34,2.28,-0.7,-0.47,-84.52,-3.16,-2.39,-1.4,-3.05,-5.68,Standing,,,39:48.2
39:48.3,989,485,727.5,989,424,1.41,707.85,2.07,20723.86,422,234,20724.06,235,429486624,4294938734,710,1.01,0,0.07,-1.78,-0.19,-1.15,-0.47,-84.48,-3.31,-2.67,-1.44,-3.2,-5.94,Standing,,,39:48.3
39:48.4,319,478,717,989,423,1.42,705,2.07,20723.86,422,230,20724.06,235,429486624,4294926098,940,1.01,0,0.07,0.66,0.43,-0.33,-0.59,-84.63,-3.16,-2.87,-1.39,-3.06,-6.14,Standing,,,39:48.4
39:48.6,0,458,687,989,423,1.42,705,2.07,20723.86,422,232,20724.06,235,429486624,4294914386,1172,1.01,0,0.03,-2.44,-2.35,-0.37,-0.36,-86.73,-3.4,-3.42,-1.33,-3.28,-6.75,Standing,,,39:48.6
39:48.7,150,445,667.5,989,422,1.42,702.16,2.06,20723.86,422,229,20724.06,235,429486624,4294901291,1401,1.02,0,0.03,-1.77,2.38,-3.24,-0.47,-86.9,-3.55,-3.37,-1.64,-3.43,-6.71,Standing,,,39:48.7
39:48.8,662,454,681,989,422,1.42,702.16,2.06,20723.86,422,227,20724.06,235,429486624,4294887284,1628,1,0.01,0.06,-1.97,2.78,-2.17,-0.04,-85.08,-3.73,-3.27,-1.82,-3.58,-6.54,Standing,,,39:48.8
39:48.9,989,473,709.5,989,423,1.42,705,2.07,20723.86,422,231,20724.06,235,429486624,4294875109,1859,1.02,0.01,0.06,-1.8,-0.29,0.56,-0.18,-85,-3.89,-3.56,-1.65,-3.74,-6.82,Standing,,,39:48.9
39:49.1,936,490,735,989,424,1.41,707.85,2.07,20723.86,422,234,20724.06,235,429486624,4294864329,2093,1.02,0,0.06,-1.11,-1.44,-1,-0.39,-85.29,-3.96,-4,-1.68,-3.81,-7.25,Standing,,,39:49.1
39:49.2,296,483,724.5,989,423,1.42,705,2.07,20723.88,423,239,20724.04,233,429485600,0,0,1.02,0,0.05,-1.8,1.54,-0.71,-0.65,-85.61,-4.11,-4.06,-1.67,-3.97,-7.32,Standing,,,39:49.2
39:49.3,94,470,705,989,423,1.42,705,2.07,20723.88,423,235,20724.04,233,429485600,4294956985,235,1.01,0,0.05,-2.7,1.56,-1.82,-0.32,-85.54,-4.38,-4.11,-1.8,-4.22,-7.37,Standing,,,39:49.3
39:49.4,951,486,729,989,424,1.41,707.85,2.07,20723.88,423,236,20724.04,233,429485600,4294947145,471,1,0.01,0.06,-1.81,1.1,-0.55,0.23,-85.09,-4.54,-4.22,-1.77,-4.35,-7.46,Standing,,,39:49.4
39:49.6,988,501,751.5,989,423,1.42,705,2.07,20723.88,423,229,20724.04,233,429485600,4294934050,700,1.01,0.01,0.03,-1.6,-0.53,0.49,0.11,-86.36,-4.67,-4.54,-1.61,-4.48,-7.81,Standing,,,39:49.6
39:49.7,525,502,753,989,423,1.42,705,2.07,20723.88,423,229,20724.04,233,429485600,4294920955,929,1.01,-0.01,0.06,-2.11,-0.49,-1.15,-1.1,-85.05,-4.87,-4.86,-1.65,-4.72,-8.07,Standing,,,39:49.7
39:49.8,184,493,739.5,989,424,1.41,707.85,2.07,20723.88,423,231,20724.04,233,429485600,4294908780,1160,1.01,0,0.04,-2.13,2.54,-2.44,-0.62,-85.96,-5.07,-4.79,-1.86,-4.89,-8.04,Standing,,,39:49.8
39:50.0,0,479,718.5,989,423,1.42,705,2.07,20723.88,423,233,20724.04,233,429485600,4294897533,1393,1.01,0.01,0.05,-2.45,2.12,-1.92,-0.03,-85.37,-5.31,-4.77,-2,-5.1,-8,Standing,,,39:50.0
39:50.1,0,465,697.5,989,423,1.42,705,2.07,20723.88,423,232,20724.04,233,429485600,4294885821,1625,1.01,0.01,0.04,-2.78,-0.22,-2.01,0.1,-85.83,-5.59,-5.05,-2.16,-5.36,-8.28,Standing,,,39:50.1
39:50.2,557,468,702,989,423,1.42,705,2.07,20723.88,423,234,20724.04,233,429485600,4294875041,1859,1,0.01,0.04,-1.08,1.02,-0.56,0.12,-86.23,-5.66,-5.18,-2.13,-5.42,-8.42,Standing,,,39:50.2
39:50.3,890,479,718.5,989,423,1.42,705,2.07,20723.88,423,229,20724.04,233,429485600,4294861946,2088,1.02,0,0.06,-2.22,2.63,-0.76,-0.81,-85.25,-5.87,-5.1,-2.12,-5.66,-8.3,Standing,,,39:50.3
39:50.5,989,492,738,989,423,1.42,705,2.07,20723.88,423,231,20724.02,231,429484992,0,0,1.01,0.02,0.05,-1.85,0.5,-2.36,0.35,-85.38,-6.03,-5.29,-2.32,-5.77,-8.49,Standing,,,39:50.5
39:50.6,896,502,753,989,424,1.41,707.85,2.07,20723.88,423,229,20724.02,231,429484992,4294954201,229,1.02,0.01,0.06,-2.6,0.78,0.34,-0.29,-85.07,-6.28,-5.44,-2.18,-6.05,-8.63,Standing,,,39:50.6
39:50.7,270,496,744,989,423,1.42,705,2.07,20723.88,423,230,20724.02,231,429484992,4294941565,459,1.01,0,0.04,-2.79,0.86,0.25,-0.36,-85.86,-6.57,-5.58,-2.04,-6.32,-8.8,Standing,,,39:50.7
39:50.8,33,485,727.5,989,422,1.42,702.16,2.06,20723.88,423,229,20724.02,231,429484992,4294928470,688,1.02,0,0.04,-2.66,1.78,-1.82,-0.65,-86,-6.83,-5.61,-2.17,-6.59,-8.83,Standing,,,39:50.8
39:51.0,0,474,711,989,423,1.42,705,2.07,20723.88,423,229,20724.02,231,429484992,4294915375,917,1.01,0.01,0.05,-2.34,2.34,-2.1,-0.16,-85.5,-7.06,-5.57,-2.34,-6.78,-8.77,Standing,,,39:51.0
39:51.1,69,465,697.5,989,422,1.42,702.16,2.06,20723.88,423,231,20724.02,231,429484992,4294903200,1148,1.01,0,0.06,-1.6,0.8,-0.5,-0.41,-85.14,-7.19,-5.72,-2.3,-6.92,-8.9,Standing,,,39:51.1
39:51.2,688,470,705,989,422,1.42,702.16,2.06,20723.88,423,229,20724.02,231,429484992,4294890105,1377,1.02,0,0.05,-1.29,0.43,-1.77,-0.66,-85.69,-7.28,-5.92,-2.43,-7.02,-9.11,Standing,,,39:51.2
39:51.3,987,481,721.5,989,424,1.41,707.85,2.07,20723.88,423,229,20724.02,231,429484992,4294877010,1606,1,0.01,0.05,-1.89,0.27,-1.2,-0.15,-85.39,-7.45,-6.14,-2.48,-7.16,-9.31,Standing,,,39:51.3
39:51.5,989,492,738,989,423,1.42,705,2.07,20723.88,423,229,20724.02,231,429484992,4294863915,1835,1.01,0,0.06,-0.53,0.9,0.52,-0.64,-85.16,-7.45,-6.28,-2.31,-7.18,-9.43,Standing,,,39:51.5
39:51.6,771,498,747,989,423,1.42,705,2.07,20723.88,423,232,20724.02,231,429484992,4294852203,2067,1.01,0.01,0.05,-0.56,-0.21,-1.78,-0.28,-85.82,-7.45,-6.56,-2.44,-7.16,-9.73,Standing,,,39:51.6
39:51.7,477,497,745.5,989,424,1.41,707.85,2.07,20723.88,423,229,20724,229,429483904,0,0,1.01,0.01,0.04,-0.85,0.28,-2.89,-0.19,-86.14,-7.48,-6.77,-2.7,-7.19,-9.95,Standing,,,39:51.7
39:51.8,0,487,730.5,989,423,1.42,705,2.07,20723.88,423,231,20724,229,429483904,4294955121,231,1,0.01,0.05,-2.29,1.33,-0.66,0.26,-85.35,-7.7,-6.86,-2.69,-7.38,-10,Standing,,,39:51.8
39:52.0,523,488,732,989,422,1.42,702.16,2.06,20723.88,423,225,20724,229,429483904,4294940210,456,1.02,0,0.05,-1.27,-0.56,0.03,-0.54,-85.5,-7.79,-7.18,-2.58,-7.5,-10.32,Standing,,,39:52.0
39:52.1,982,497,745.5,989,423,1.42,705,2.07,20723.88,423,226,20724,229,429483904,4294925750,682,1.01,0,0.04,-1.31,-1.36,-1,-0.39,-86.35,-7.89,-7.61,-2.61,-7.59,-10.76,Standing,,,39:52.1
39:52.2,989,507,760.5,989,422,1.42,702.16,2.06,20723.88,423,222,20724,229,429483904,4294909498,904,1.01,-0.01,0.05,-1.54,1.08,0.17,-0.94,-85.81,-8.01,-7.73,-2.49,-7.73,-10.85,Standing,,,39:52.2
39:52.4,941,515,772.5,989,422,1.42,702.16,2.06,20723.88,423,225,20724,229,429483904,4294894587,1129,1.02,0,0.05,-2.3,1.25,-2.79,-0.84,-85.75,-8.23,-7.82,-2.74,-7.94,-10.94,Standing,,,39:52.4
39:52.5,653,517,775.5,989,424,1.41,707.85,2.07,20723.88,423,231,20724,229,429483904,4294882412,1360,1,0,0.05,-2.41,0.94,-0.41,-0.44,-85.59,-8.47,-7.96,-2.69,-8.15,-11.06,Standing,,,39:52.5
39:52.6,82,509,763.5,989,423,1.42,705,2.07,20723.88,423,232,20724,229,429483904,4294870700,1592,1.02,0,0.05,-1.19,-0.89,0,-0.47,-85.47,-8.55,-8.32,-2.59,-8.23,-11.41,Standing,,,39:52.6
39:52.7,0,501,751.5,989,422,1.42,702.16,2.06,20723.88,423,231,20724,229,429483904,4294858525,1823,1,0,0.03,-1.12,-0.79,-1.21,-0.79,-86.56,-8.62,-8.68,-2.65,-8.31,-11.79,Standing,,,39:52.7
39:52.9,135,494,741,989,423,1.42,705,2.07,20723.88,423,227,20724,229,429483904,4294844518,2050,1.01,0,0.04,-1.1,1.18,0.37,-0.7,-86.4,-8.69,-8.78,-2.5,-8.37,-11.89,Standing,,,39:52.9
39:53.0,564,495,742.5,989,422,1.42,702.16,2.06,20723.87,422,228,20723.98,227,429483104,0,0,1.02,0,0.03,-1.81,1.05,-1.64,-0.76,-86.78,-8.84,-8.9,-2.6,-8.52,-12.02,Standing,,,39:53.0
39:53.1,988,504,756,989,423,1.42,705,2.07,20723.87,422,227,20723.98,227,429483104,4294953289,227,1.02,0,0.03,-1.79,0.54,-1.2,-0.65,-86.75,-9,-9.09,-2.66,-8.67,-12.19,Standing,,,39:53.1
39:53.2,988,512,768,989,424,1.41,707.85,2.07,20723.87,422,227,20723.98,227,429483104,4294939282,454,1.02,0,0.02,-1.42,1.05,-1,-0.7,-87.02,-9.11,-9.21,-2.68,-8.77,-12.32,Standing,,,39:53.2
39:53.4,324,508,762,989,423,1.42,705,2.07,20723.87,422,227,20723.98,227,429483104,4294925275,681,1,0,0.05,-1.95,0.54,-0.77,-0.58,-85.81,-9.29,-9.39,-2.68,-8.94,-12.45,Standing,,,39:53.4
39:53.5,0,500,750,989,423,1.42,705,2.07,20723.87,422,229,20723.98,227,429483104,4294912180,910,1.02,-0.01,0.04,-1.96,1.96,-1.22,-0.92,-85.91,-9.46,-9.4,-2.74,-9.12,-12.46,Standing,,,39:53.5
39:53.6,729,504,756,989,424,1.41,707.85,2.07,20723.87,422,213,20723.98,227,429483104,4294892013,1123,1.02,0,0.03,-2.74,-0.92,0.6,-0.73,-86.79,-9.74,-9.77,-2.56,-9.38,-12.85,Standing,,,39:53.6
39:53.8,744,508,762,989,419,1.44,693.71,2.05,20723.87,422,214,20723.98,227,429483104,4294872273,1337,1.02,0,0.03,-3.72,-1.21,-1.66,-0.85,-86.69,-10.14,-10.17,-2.67,-9.77,-13.24,Standing,,,39:53.8
39:53.9,474,507,760.5,989,420,1.44,696.52,2.05,20723.87,422,210,20723.98,227,429483104,4294850837,1547,1,0,0.04,-4.01,1.23,-1.68,-0.71,-86.33,-10.58,-10.27,-2.78,-10.19,-13.32,Standing,,,39:53.9
39:54.0,993,514,771,993,419,1.44,693.71,2.05,20723.87,422,216,20723.98,227,429483104,4294831957,1763,1.01,-0.01,0.04,-2.9,1.86,-0.37,-0.97,-86.2,-10.88,-10.29,-2.73,-10.48,-13.33,Standing,,,39:54.0
39:54.1,349,512,768,993,420,1.44,696.52,2.05,20723.87,422,223,20723.98,227,429483104,4294816150,1986,1.03,0,0.04,-1.95,2.72,-3.48,-0.76,-86.22,-11.06,-10.2,-3.07,-10.65,-13.24,Standing,,,39:54.1
39:54.3,858,517,775.5,993,422,1.42,702.16,2.06,20723.85,421,228,20723.91,221,429480256,0,0,1.01,-0.01,0.05,-2.62,0.66,-1.68,-0.91,-85.83,-11.32,-10.37,-3.19,-10.9,-13.39,Standing,,,39:54.3
39:54.4,378,515,772.5,993,422,1.42,702.16,2.06,20723.85,421,226,20723.91,221,429480256,4294952836,226,1.02,0,0.04,-2.1,0.98,-1.08,-0.42,-86.19,-11.51,-10.5,-3.22,-11.07,-13.52,Standing,,,39:54.4
39:54.5,989,522,783,993,422,1.42,702.16,2.06,20723.85,421,225,20723.91,221,429480256,4294937925,451,1,0,0.04,-1.1,-0.15,-1.66,-0.71,-85.88,-11.58,-10.77,-3.33,-11.15,-13.78,Standing,,,39:54.5
39:54.6,304,519,778.5,993,423,1.42,705,2.07,20723.85,421,226,20723.91,221,429480256,4294923465,677,1.02,0,0.03,-0.85,2.56,-0.42,-0.73,-86.65,-11.62,-10.7,-3.29,-11.18,-13.74,Standing,,,39:54.6
39:54.8,261,515,772.5,993,422,1.42,702.16,2.06,20723.85,421,225,20723.91,221,429480256,4294908554,902,1.02,0,0.04,-2.4,1.23,-1.84,-0.81,-86.23,-11.86,-10.8,-3.42,-11.41,-13.82,Standing,,,39:54.8
39:54.9,222,511,766.5,993,422,1.42,702.16,2.06,20723.85,421,225,20723.91,221,429480256,4294893643,1127,1.01,0,0.04,-2.96,1.31,-1.37,-0.44,-86.01,-12.16,-10.89,-3.5,-11.69,-13.89,Standing,,,39:54.9
39:55.0,287,508,762,993,424,1.41,707.85,2.07,20723.85,421,226,20723.91,221,429480256,4294879183,1353,1.01,0,0.06,-1.15,0.47,-0.89,-0.43,-84.82,-12.24,-11.08,-3.51,-11.77,-14.03,Standing,,,39:55.0
39:55.2,74,502,753,993,422,1.42,702.16,2.06,20723.85,421,229,20723.91,221,429480256,4294866088,1582,1.02,0,0.05,-0.86,1.02,-0.68,-0.66,-85.58,-12.28,-11.2,-3.5,-11.81,-14.18,Standing,,,39:55.2
39:55.3,120,497,745.5,993,422,1.42,702.16,2.06,20723.85,421,225,20723.91,221,429480256,4294851177,1807,1.01,0,0.02,-1.63,1.72,-1.08,-0.58,-87.08,-12.41,-11.24,-3.53,-11.94,-14.27,Standing,,,39:55.3
39:55.4,243,494,741,993,422,1.42,702.16,2.06,20723.85,421,224,20723.91,221,429480256,4294835817,2031,1.02,-0.01,0.03,-1.76,1.62,-1.58,-1.05,-86.4,-12.57,-11.29,-3.63,-12.11,-14.29,Standing,,,39:55.4
39:55.5,0,488,732,993,422,1.42,702.16,2.06,20723.86,422,225,20723.95,225,429482080,0,0,1.01,0,0.05,-1.86,1.02,-1.74,-0.36,-85.48,-12.73,-11.41,-3.75,-12.24,-14.37,Standing,,,39:55.5
39:55.7,857,492,738,993,423,1.42,705,2.07,20723.86,422,226,20723.95,225,429482080,4294952836,226,1,0,0.05,-1.61,1.22,-1.24,-0.58,-85.69,-12.86,-11.51,-3.81,-12.37,-14.48,Standing,,,39:55.7
39:55.8,923,498,747,993,423,1.42,705,2.07,20723.86,422,228,20723.95,225,429482080,4294939284,454,1.02,0,0.04,-1.75,0.84,-0.6,-0.72,-86.22,-13.02,-11.66,-3.78,-12.52,-14.64,Standing,,,39:55.8
39:55.9,877,502,753,993,423,1.42,705,2.07,20723.86,422,224,20723.95,225,429482080,4294923924,678,1.02,0,0.04,-2.27,1.24,-2.05,-0.48,-86,-13.23,-11.76,-3.94,-12.72,-14.73,Standing,,,39:55.9
39:56.0,728,505,757.5,993,424,1.41,707.85,2.07,20723.86,422,227,20723.95,225,429482080,4294909917,905,1,0,0.04,-2.05,0.37,-0.44,-0.45,-85.9,-13.43,-11.96,-3.9,-12.91,-14.92,Standing,,,39:56.0
39:56.2,16,499,748.5,993,423,1.42,705,2.07,20723.86,422,228,20723.95,225,429482080,4294896365,1133,1.01,-0.01,0.05,-1.12,0.31,-0.52,-0.9,-85.74,-13.5,-12.18,-3.86,-12.99,-15.12,Standing,,,39:56.2
39:56.3,0,493,739.5,993,422,1.42,702.16,2.06,20723.86,422,222,20723.95,225,429482080,4294880113,1355,1.01,0,0.03,-1.16,1.18,0.09,-0.46,-86.49,-13.57,-12.28,-3.75,-13.05,-15.25,Standing,,,39:56.3
39:56.4,853,498,747,993,423,1.42,705,2.07,20723.86,422,220,20723.95,225,429482080,4294862977,1575,1.03,-0.01,0.04,-2.21,2.52,-2.41,-0.89,-86.06,-13.78,-12.22,-3.96,-13.27,-15.17,Standing,,,39:56.4
39:56.6,685,500,750,993,422,1.42,702.16,2.06,20723.86,422,227,20723.95,225,429482080,4294848970,1802,1,0.01,0.04,-2.17,2.68,-1.31,-0.05,-86.01,-13.99,-12.13,-4.03,-13.43,-15.09,Standing,,,39:56.6
39:56.7,786,503,754.5,993,422,1.42,702.16,2.06,20723.86,422,218,20723.95,225,429482080,4294830958,2020,1.03,0,0.05,-2.87,1.24,-0.82,-0.68,-85.63,-14.28,-12.23,-4.03,-13.74,-15.16,Standing,,,39:56.7
39:56.8,958,508,762,993,422,1.42,702.16,2.06,20723.87,422,229,20723.94,224,429481792,0,0,1.01,0,0.05,-1.64,1.37,-2.53,-0.48,-85.63,-14.42,-12.31,-4.25,-13.86,-15.24,Standing,,,39:56.8
39:56.9,8,503,754.5,993,422,1.42,702.16,2.06,20723.87,422,227,20723.94,224,429481792,4294953289,227,1.01,0,0.04,-2.82,2.24,-0.88,-0.37,-86.02,-14.71,-12.28,-4.26,-14.13,-15.23,Standing,,,39:56.9
39:57.1,544,503,754.5,993,422,1.42,702.16,2.06,20723.87,422,227,20723.94,224,429481792,4294939282,454,1.02,0,0.06,-2.76,1.31,-0.99,-0.48,-84.79,-14.99,-12.37,-4.28,-14.41,-15.26,Standing,,,39:57.1
39:57.2,800,506,759,993,423,1.42,705,2.07,20723.87,422,228,20723.94,224,429481792,4294925730,682,1,0,0.07,-2.38,0.5,-1.23,-0.57,-84.51,-15.22,-12.56,-4.34,-14.63,-15.43,Standing,,,39:57.2
39:57.3,430,505,757.5,993,422,1.42,702.16,2.06,20723.87,422,226,20723.94,224,429481792,4294911270,908,1.01,-0.01,0.05,-0.29,-4.89,0.64,-0.91,-85.56,-15.18,-13.44,-4.16,-14.61,-16.32,Standing,,,39:57.3
39:57.4,586,506,759,993,422,1.42,702.16,2.06,20723.87,422,227,20723.94,224,429481792,4294897263,1135,1.03,-0.01,0.04,-1.7,1.74,-4.34,-1.04,-85.96,-15.33,-13.47,-4.61,-14.76,-16.37,Standing,,,39:57.4
39:57.6,451,506,759,993,420,1.44,696.52,2.05,20723.87,422,201,20723.94,224,429481792,4294872128,1336,0.99,0.01,0.03,-1.7,1.24,0.69,0.13,-86.54,-15.47,-13.57,-4.42,-14.85,-16.49,Standing,,,39:57.6
39:57.7,97,501,751.5,993,417,1.45,688.12,2.04,20723.87,422,211,20723.94,224,429481792,4294851113,1547,1.04,0,0.04,-0.62,3.38,-1.83,-0.81,-86.02,-15.48,-13.39,-4.55,-14.89,-16.3,Standing,,,39:57.7
39:57.8,133,498,747,993,420,1.44,696.52,2.05,20723.87,422,221,20723.94,224,429481792,4294834418,1768,1,0.02,0.02,-2.23,1.44,-2.41,0.47,-86.85,-15.7,-13.46,-4.76,-15.05,-16.4,Standing,,,39:57.8
39:58.0,161,494,741,993,420,1.44,696.52,2.05,20723.87,422,222,20723.94,224,429481792,4294818166,1990,1.02,0,0.05,-1.35,2.18,0.73,-0.33,-85.42,-15.8,-13.44,-4.57,-15.18,-16.32,Standing,,,39:58.0
39:58.1,540,495,742.5,993,421,1.43,699.34,2.06,20723.83,420,222,20723.91,221,429480192,0,0,1.01,0,0.05,-0.73,-0.69,-1.82,-0.73,-85.52,-15.82,-13.78,-4.69,-15.21,-16.65,Standing,,,39:58.1
39:58.2,991,500,750,993,423,1.42,705,2.07,20723.83,420,224,20723.91,221,429480192,4294951936,224,1.01,0,0.04,-2.89,0.53,-0.76,-0.37,-86.38,-16.12,-13.97,-4.69,-15.49,-16.86,Standing,,,39:58.2
39:58.3,990,509,763.5,993,422,1.42,702.16,2.06,20723.83,420,227,20723.91,221,429480192,4294937929,451,1.01,0,0.04,-2.63,0.31,0.92,-0.69,-86.33,-16.38,-14.18,-4.47,-15.75,-17.07,Standing,,,39:58.3
39:58.5,345,503,754.5,993,421,1.43,699.34,2.06,20723.83,420,219,20723.91,221,429480192,4294920354,670,1.02,-0.02,0.03,-3.79,-1.24,-0.25,-1.63,-86.38,-16.79,-14.59,-4.41,-16.18,-17.47,Standing,,,39:58.5
39:58.6,110,495,742.5,993,421,1.43,699.34,2.06,20723.83,420,227,20723.91,221,429480192,4294906347,897,0.99,0,0.03,-4.37,4.47,-2.86,-0.74,-86.59,-17.28,-14.28,-4.67,-16.62,-17.17,Standing,,,39:58.6
39:58.7,117,496,744,993,421,1.43,699.34,2.06,20723.83,420,224,20723.91,221,429480192,4294890987,1121,1.02,0,0.08,-2.83,8.38,-0.8,-0.61,-83.94,-17.57,-13.47,-4.67,-16.89,-16.29,Standing,,,39:58.7
39:58.8,466,498,747,993,422,1.42,702.16,2.06,20723.83,420,227,20723.91,221,429480192,4294876980,1348,1,-0.01,0.09,-2.94,-4.31,-0.58,-0.93,-83.45,-17.87,-14.27,-4.65,-17.19,-17.04,Standing,,,39:58.8
39:59.0,400,493,739.5,993,422,1.42,702.16,2.06,20723.83,420,229,20723.91,221,429480192,4294863885,1577,1,-0.01,0.04,-0.58,-2.24,-0.01,-1.06,-86.15,-17.88,-14.82,-4.54,-17.2,-17.67,Standing,,,39:59.0
39:59.1,233,485,727.5,993,422,1.42,702.16,2.06,20723.83,420,189,20723.91,221,429480192,4294834070,1766,1.04,-0.02,0.04,0.85,3.05,-0.52,-1.96,-85.82,-17.69,-14.68,-4.51,-17.07,-17.53,Standing,,,39:59.1
39:59.2,645,485,727.5,993,421,1.43,699.34,2.06,20723.83,420,203,20723.91,221,429480192,4294809743,1969,1.01,-0.01,0.06,-3.84,0.92,-1.89,-0.94,-85.11,-18.11,-14.82,-4.65,-17.42,-17.63,Standing,,,39:59.2
39:59.4,415,489,733.5,993,417,1.45,688.12,2.04,20723.84,421,200,20723.86,216,429478432,0,0,1.02,-0.01,0.06,-3.06,2.24,0.06,-0.91,-85,-18.43,-14.79,-4.54,-17.73,-17.6,Standing,,,39:59.4
39:59.5,351,487,730.5,993,416,1.46,685.34,2.03,20723.84,421,278,20723.86,216,429478432,11748,278,1.01,0,0.06,-1.92,-0.45,-2.92,-0.8,-84.79,-18.6,-15.1,-4.81,-17.89,-17.89,Standing,,,39:59.5
39:59.6,328,489,733.5,993,416,1.46,685.34,2.03,20723.84,421,277,20723.86,216,429478432,22941,555,1.01,-0.01,0.05,-1.68,2.38,-2.27,-1.07,-85.49,-18.74,-15.05,-5,-18.03,-17.87,Standing,,,39:59.6
39:59.7,332,486,729,993,416,1.46,685.34,2.03,20723.84,421,276,20723.86,216,429478432,33581,831,1.03,0,0.07,-5.83,0.24,-1.73,-0.85,-84.72,-19.41,-15.28,-5.12,-18.67,-18.05,Standing,,,39:59.7
39:59.9,136,486,729,993,416,1.46,685.34,2.03,20723.84,421,274,20723.86,216,429478432,43121,1105,0.97,0.02,0.08,-4.18,1.99,-2.44,0.32,-83.76,-19.87,-15.28,-5.33,-19.06,-18.02,Standing,,,39:59.9
40:00.0,633,485,727.5,993,418,1.45,690.91,2.04,20723.84,421,276,20723.86,216,429478432,53761,1381,1.01,0.01,0.07,-2.91,2.5,-1.05,-0.26,-84.6,-20.17,-15.21,-5.36,-19.37,-17.99,Standing,,,40:00.0
40:00.1,738,493,739.5,738,419,1.44,693.71,2.05,20723.84,421,276,20723.86,216,429478432,64401,1657,1.01,0,0.07,-0.07,0.68,-1.16,-0.48,-84.68,-20.11,-15.38,-5.41,-19.32,-18.15,Standing,,,40:00.1
40:00.2,934,492,738,934,420,1.44,696.52,2.05,20723.84,421,274,20723.86,216,429478432,73941,1931,1.02,-0.01,0.07,-2.25,2.37,-0.37,-1.1,-84.51,-20.32,-15.33,-5.35,-19.55,-18.1,Standing,,,40:00.2
40:00.4,212,492,738,934,421,1.43,699.34,2.06,20723.84,421,278,20723.86,216,429478432,85689,2209,1.02,0,0.06,-3.34,0.08,-3.6,-0.55,-85,-20.67,-15.58,-5.71,-19.87,-18.35,Standing,,,40:00.4
40:00.5,359,496,744,934,420,1.44,696.52,2.05,20723.84,421,279,20723.86,216,429478432,97994,2488,0.99,0.02,0.06,-1.36,3.86,-1.66,0.32,-85.05,-20.78,-15.34,-5.82,-19.93,-18.13,Standing,,,40:00.5
40:00.6,873,494,741,873,421,1.43,699.34,2.06,20723.78,418,276,104.23,276,10862,0,0,1.02,0.01,0.05,-0.59,0.85,0.64,0.16,-85.35,-20.78,-15.48,-5.64,-19.94,-18.28,Standing,,,40:00.6
40:00.7,348,498,747,873,422,1.42,702.16,2.06,20723.78,418,277,104.23,276,10862,11193,277,1.02,0.01,0.06,-1.5,0.18,-2.52,0.01,-85.11,-20.9,-15.71,-5.86,-20.06,-18.49,Standing,,,40:00.7
40:00.9,537,498,747,873,421,1.43,699.34,2.06,20723.78,418,277,104.23,276,10862,22386,554,1,0.01,0.06,-2.34,0.87,-1.82,-0.19,-84.81,-21.12,-15.85,-5.99,-20.28,-18.61,Standing,,,40:00.9
40:01.0,684,495,742.5,873,420,1.44,696.52,2.05,20723.78,418,264,104.23,276,10862,26546,818,1.02,0,0.08,-2.35,2.15,0.39,-0.48,-84.04,-21.35,-15.83,-5.84,-20.51,-18.56,Standing,,,40:01.0
40:01.1,726,499,748.5,873,422,1.42,702.16,2.06,20723.78,418,275,104.23,276,10862,36635,1093,1.01,0.01,0.06,-1.37,-1.3,-0.56,-0.28,-84.77,-21.45,-16.25,-5.81,-20.6,-18.99,Standing,,,40:01.1
40:01.2,107,500,750,873,423,1.42,705,2.07,20723.78,418,275,104.23,276,10862,46724,1368,1.01,0.01,0.06,-1.26,1.14,0.49,0.11,-84.68,-21.54,-16.36,-5.65,-20.67,-19.09,Standing,,,40:01.2
40:01.4,779,506,759,779,423,1.42,705,2.07,20723.78,418,263,104.23,276,10862,50357,1631,1.02,0.01,0.07,-0.82,1.5,-1.48,-0.07,-84.22,-21.57,-16.42,-5.74,-20.71,-19.13,Standing,,,40:01.4
40:01.5,973,509,763.5,973,422,1.42,702.16,2.06,20723.78,418,265,104.23,276,10862,55046,1896,1.01,0,0.08,-1.8,0.45,-1.22,-0.59,-84.12,-21.73,-16.62,-5.79,-20.88,-19.32,Standing,,,40:01.5
40:01.6,204,501,751.5,973,422,1.42,702.16,2.06,20723.78,418,271,104.23,276,10862,62951,2167,1.01,0.01,0.06,-1.09,-0.46,-1.41,-0.18,-85.26,-21.79,-16.93,-5.87,-20.93,-19.66,Standing,,,40:01.6
40:01.7,509,497,745.5,973,419,1.44,693.71,2.05,20723.78,418,250,104.23,276,10862,59915,2417,1.01,0.01,0.05,-1.37,0.9,-0.04,-0.15,-85.55,-21.89,-17.07,-5.78,-21.02,-19.8,Standing,,,40:01.7
40:01.9,452,499,748.5,973,419,1.44,693.71,2.05,20723.84,421,260,78.72,267,6196,0,0,1.01,-0.01,0.07,-1.5,-0.73,-1.31,-0.9,-84.24,-22.01,-17.4,-5.84,-21.17,-20.08,Standing,,,40:01.9
40:02.0,941,507,760.5,941,421,1.43,699.34,2.06,20723.84,421,264,78.72,267,6196,4160,264,1,0,0.06,-3.5,-0.79,-0.87,-0.68,-84.99,-22.38,-17.75,-5.85,-21.51,-20.44,Standing,,,40:02.0
40:02.1,476,502,753,941,422,1.42,702.16,2.06,20723.84,421,264,78.72,267,6196,8320,528,1,-0.01,0.05,-2.04,2.07,0.78,-0.9,-85.38,-22.56,-17.74,-5.65,-21.7,-20.45,Standing,,,40:02.1
40:02.2,419,497,745.5,941,422,1.42,702.16,2.06,20723.84,421,269,78.72,267,6196,15145,797,1.02,0,0.07,-2.43,3.47,-3.27,-0.59,-84.43,-22.8,-17.56,-5.96,-21.91,-20.23,Standing,,,40:02.2
40:02.4,719,499,748.5,941,422,1.42,702.16,2.06,20723.84,421,268,78.72,267,6196,21433,1065,1.01,0.01,0.07,-0.35,-0.3,-1.47,0.24,-84.14,-22.77,-17.84,-6.05,-21.85,-20.5,Standing,,,40:02.4
40:02.5,969,506,759,969,423,1.42,705,2.07,20723.84,421,267,78.72,267,6196,27186,1332,1.02,0,0.06,-0.78,2.18,0.8,-0.48,-85.25,-22.8,-17.82,-5.85,-21.91,-20.52,Standing,,,40:02.5
40:02.6,909,516,774,969,424,1.41,707.85,2.07,20723.84,421,268,78.72,267,6196,33474,1600,1.01,0,0.05,-1.33,0.34,-1.83,-0.39,-85.32,-22.9,-18.03,-5.98,-22,-20.72,Standing,,,40:02.6
40:02.7,121,517,775.5,969,424,1.41,707.85,2.07,20723.84,421,269,78.72,267,6196,40299,1869,1.01,0,0.07,-3.05,1.37,-2.63,-0.32,-84.26,-23.21,-18.11,-6.21,-22.29,-20.75,Standing,,,40:02.7
40:02.9,341,515,772.5,969,422,1.42,702.16,2.06,20723.84,421,263,78.72,267,6196,43932,2132,1,0.01,0.07,-1.6,-1,1.78,-0.2,-84.36,-23.34,-18.49,-5.88,-22.41,-21.12,Standing,,,40:02.9
40:03.0,884,515,772.5,884,422,1.42,702.16,2.06,20723.84,421,260,78.72,267,6196,45996,2392,1.03,-0.01,0.07,-1.92,0.63,-0.66,-1.35,-84.53,-23.51,-18.66,-5.87,-22.62,-21.29,Standing,,,40:03.0
40:03.1,993,515,772.5,993,424,1.41,707.85,2.07,20723.87,422,264,70.82,265,5014,0,0,1,0,0.06,-2.95,1.73,-2.77,-0.55,-84.72,-23.81,-18.69,-6.12,-22.88,-21.33,Standing,,,40:03.1
40:03.3,139,507,760.5,993,422,1.42,702.16,2.06,20723.87,422,263,70.82,265,5014,3633,263,1.01,0,0.07,-3.6,2.3,1.4,-0.68,-84.71,-24.19,-18.65,-5.84,-23.25,-21.3,Standing,,,40:03.3
40:03.4,521,510,765,993,421,1.43,699.34,2.06,20723.87,422,260,70.82,265,5014,5697,523,1.02,0,0.06,-3.1,3.02,-3.23,-0.74,-85,-24.51,-18.53,-6.15,-23.56,-21.19,Standing,,,40:03.4
40:03.5,933,519,778.5,933,422,1.42,702.16,2.06,20723.87,422,263,70.82,265,5014,9330,786,1,0.01,0.08,-2.36,0.86,0.12,-0.29,-83.67,-24.73,-18.67,-6.03,-23.75,-21.27,Standing,,,40:03.5
40:03.6,909,528,792,933,423,1.42,705,2.07,20723.87,422,262,70.82,265,5014,12438,1048,1.02,-0.01,0.07,-2.14,-0.12,0.64,-1.15,-84.18,-24.93,-18.93,-5.85,-23.98,-21.54,Standing,,,40:03.6
40:03.8,147,528,792,933,422,1.42,702.16,2.06,20723.87,422,267,70.82,265,5014,18191,1315,1.01,-0.01,0.06,0.18,1.34,-1.67,-0.99,-84.84,-24.83,-19.02,-5.97,-23.88,-21.65,Standing,,,40:03.8
40:03.9,318,525,787.5,933,422,1.42,702.16,2.06,20723.87,422,260,70.82,265,5014,20255,1575,1.01,0,0.05,-0.63,-1.08,-0.46,-0.86,-85.34,-24.84,-19.4,-5.92,-23.88,-22.04,Standing,,,40:03.9
40:04.0,860,523,784.5,860,422,1.42,702.16,2.06,20723.87,422,261,70.82,265,5014,22840,1836,1.01,-0.01,0.04,-1.85,2.88,-0.81,-0.98,-86.18,-25.01,-19.29,-5.93,-24.05,-21.97,Standing,,,40:04.0
40:04.1,990,523,784.5,990,423,1.42,705,2.07,20723.87,422,262,70.82,265,5014,25948,2098,1.02,-0.01,0.06,-2.6,2.54,-1.56,-1.13,-84.77,-25.26,-19.22,-6.02,-24.3,-21.85,Standing,,,40:04.1
40:04.3,991,526,789,991,423,1.42,705,2.07,20723.87,422,258,70.82,265,5014,26976,2356,1,0,0.05,-2.24,0.47,-2.22,-0.47,-85.6,-25.47,-19.42,-6.2,-24.47,-22.07,Standing,,,40:04.3
40:04.4,5,521,781.5,991,422,1.42,702.16,2.06,20723.86,422,256,51.93,261,2696,0,0,1.01,0,0.06,-0.31,0.56,-0.71,-0.61,-84.81,-25.44,-19.6,-6.19,-24.45,-22.2,Standing,,,40:04.4
40:04.5,398,525,787.5,991,422,1.42,702.16,2.06,20723.86,422,256,51.93,261,2696,0,256,1.02,-0.01,0.05,-1.18,-0.69,-1.3,-1.28,-85.72,-25.52,-19.93,-6.26,-24.55,-22.56,Standing,,,40:04.5
40:04.6,972,529,793.5,972,423,1.42,705,2.07,20723.86,422,261,51.93,261,2696,2585,517,1,-0.02,0.06,-0.46,-0.59,-0.1,-1.84,-84.86,-25.51,-20.25,-6.17,-24.56,-22.84,Standing,,,40:04.6
40:04.8,966,529,793.5,972,423,1.42,705,2.07,20723.86,422,263,51.93,261,2696,6218,780,1.01,-0.01,0.05,-2.36,1.34,-1.02,-1.06,-85.39,-25.73,-20.34,-6.2,-24.74,-22.94,Standing,,,40:04.8
40:04.9,927,529,793.5,972,422,1.42,702.16,2.06,20723.86,422,254,51.93,261,2696,5198,1034,1.01,-0.01,0.06,-1.98,1.43,-1.71,-1.02,-85.04,-25.91,-20.41,-6.31,-24.92,-22.99,Standing,,,40:04.9
40:05.0,167,521,781.5,972,422,1.42,702.16,2.06,20723.86,422,260,51.93,261,2696,7262,1294,1.01,-0.01,0.06,-0.9,-0.1,-1.24,-1.3,-85.18,-25.95,-20.67,-6.37,-24.97,-23.25,Standing,,,40:05.0
40:05.1,241,517,775.5,972,423,1.42,705,2.07,20723.86,422,258,51.93,261,2696,8290,1552,1.01,-0.01,0.05,-1.8,3.32,-1.69,-1.35,-85.41,-26.11,-20.51,-6.48,-25.12,-23.1,Standing,,,40:05.1
40:05.3,581,522,783,972,422,1.42,702.16,2.06,20723.86,422,260,51.93,261,2696,10354,1812,1,-0.01,0.07,-2.73,1.41,-1.73,-1.12,-84.53,-26.38,-20.58,-6.6,-25.37,-23.14,Standing,,,40:05.3
40:05.4,813,530,795,813,423,1.42,705,2.07,20723.86,422,256,51.93,261,2696,10354,2068,1,0,0.05,-1.47,0.27,-0.82,-0.36,-85.28,-26.5,-20.8,-6.6,-25.45,-23.38,Standing,,,40:05.4
40:05.5,967,538,807,967,423,1.42,705,2.07,20723.86,422,258,51.93,261,2696,11382,2326,1.01,0,0.06,-2.11,0.52,-0.68,-0.84,-84.74,-26.69,-20.98,-6.59,-25.66,-23.53,Standing,,,40:05.5
40:05.6,490,537,805.5,967,423,1.42,705,2.07,20723.87,422,260,36.66,258,1343,0,0,1.01,0,0.06,-2.24,-1.06,0.52,-0.84,-85.2,-26.9,-21.36,-6.43,-25.86,-23.91,Standing,,,40:05.6
40:05.8,244,530,795,967,423,1.42,705,2.07,20723.87,422,257,36.66,258,1343,513,257,1.01,-0.01,0.04,-2.47,-3.54,0.12,-0.99,-85.98,-27.14,-22.06,-6.31,-26.09,-24.62,Standing,,,40:05.8
40:05.9,175,522,783,967,422,1.42,702.16,2.06,20723.87,422,253,36.66,258,1343,4294966282,510,1.02,-0.02,0.04,-2.28,2.95,-1.64,-1.75,-85.65,-27.36,-21.94,-6.42,-26.33,-24.49,Standing,,,40:05.9
40:06.0,349,522,783,967,423,1.42,705,2.07,20723.87,422,256,36.66,258,1343,4294966282,766,1.01,-0.02,0.06,-2.38,-2.59,-1.57,-1.84,-84.83,-27.59,-22.52,-6.52,-26.56,-25.01,Standing,,,40:06.0
40:06.2,381,526,789,967,422,1.42,702.16,2.06,20723.87,422,256,36.66,258,1343,4294966282,1022,1.02,-0.01,0.01,-2.63,-0.11,0.55,-1.08,-87.67,-27.85,-22.79,-6.35,-26.78,-25.38,Standing,,,40:06.2
40:06.3,138,520,780,967,422,1.42,702.16,2.06,20723.87,422,252,36.66,258,1343,4294964250,1274,1.04,-0.03,0.04,-3.2,4.87,-1.72,-2.29,-85.82,-28.18,-22.42,-6.47,-27.15,-24.96,Standing,,,40:06.3
40:06.4,289,515,772.5,967,423,1.42,705,2.07,20723.87,422,253,36.66,258,1343,4294962723,1527,0.99,-0.01,0.05,-4.96,2.12,-3,-1.13,-85.23,-28.73,-22.41,-6.74,-27.63,-24.92,Standing,,,40:06.4
40:06.5,405,515,772.5,967,423,1.42,705,2.07,20723.87,422,257,36.66,258,1343,4294963236,1784,1.02,-0.01,0.08,-1.1,2.92,-0.44,-0.91,-84.05,-28.8,-22.29,-6.7,-27.68,-24.76,Standing,,,40:06.5
40:06.6,233,507,760.5,967,423,1.42,705,2.07,20723.87,422,254,36.66,258,1343,4294962216,2038,1.02,-0.02,0.06,-0.16,-0.56,-0.82,-1.59,-84.94,-28.75,-22.61,-6.7,-27.66,-25.11,Standing,,,40:06.6
40:06.8,473,508,762,967,423,1.42,705,2.07,20723.87,422,254,36.66,258,1343,4294961196,2292,1.01,-0.01,0.04,-1.36,0.53,-1.21,-1.33,-86.26,-28.85,-22.8,-6.75,-27.75,-25.34,Standing,,,40:06.8
40:06.9,340,503,754.5,967,424,1.41,707.85,2.07,20723.87,422,253,20724.29,254,429495968,0,0,1.03,-0.02,0.05,-1.21,2.54,-2.27,-1.71,-85.33,-28.93,-22.73,-6.94,-27.84,-25.24,Standing,,,40:06.9
40:07.0,125,501,751.5,967,423,1.42,705,2.07,20723.87,422,252,20724.29,254,429495968,4294965264,252,1,0,0.04,-3.33,0.85,-3.76,-0.43,-86.02,-29.29,-22.88,-7.32,-28.13,-25.41,Standing,,,40:07.0
40:07.1,215,493,739.5,967,423,1.42,705,2.07,20723.87,422,252,20724.29,254,429495968,4294963232,504,1.02,0,0.07,-2.15,5.69,-2.06,-0.74,-84.38,-29.49,-22.41,-7.48,-28.34,-24.89,Standing,,,40:07.1
40:07.3,208,492,738,967,425,1.41,710.7,2.08,20723.87,422,254,20724.29,254,429495968,4294962212,758,1.02,0,0.07,-6.57,-3.96,-1.59,-0.51,-84.48,-30.26,-23.17,-7.58,-29.07,-25.63,Standing,,,40:07.3
40:07.4,24,490,735,967,423,1.42,705,2.07,20723.87,422,248,20724.29,254,429495968,4294958180,1006,1.01,-0.01,0.05,-4.22,1.53,-0.11,-1.36,-85.38,-30.72,-23.23,-7.5,-29.55,-25.72,Standing,,,40:07.4
40:07.5,169,489,733.5,967,424,1.41,707.85,2.07,20723.87,422,247,20724.29,254,429495968,4294953653,1253,1.02,0.01,0.06,-3.32,2.8,-5.02,-0.21,-84.91,-31.08,-23.13,-8.04,-29.84,-25.6,Standing,,,40:07.5
40:07.7,171,488,732,967,424,1.41,707.85,2.07,20723.87,422,249,20724.29,254,429495968,4294950118,1502,0.99,0.02,0.07,-0.94,1.44,-0.76,0.41,-84.22,-31.12,-23.2,-8.03,-29.86,-25.64,Standing,,,40:07.7
40:07.8,32,488,732,967,423,1.42,705,2.07,20723.87,422,246,20724.29,254,429495968,4294945098,1748,1.01,-0.01,0.06,-0.65,-2.3,2.82,-0.87,-84.84,-31.14,-23.75,-7.58,-29.92,-26.19,Standing,,,40:07.8
40:07.9,162,488,732,967,424,1.41,707.85,2.07,20723.87,422,250,20724.29,254,429495968,4294942062,1998,1.03,-0.02,0.03,-1.57,-0.56,-1.8,-1.67,-86.37,-31.26,-24.08,-7.7,-30.08,-26.57,Standing,,,40:07.9
40:08.0,41,486,729,967,424,1.41,707.85,2.07,20723.87,422,248,20724.29,254,429495968,4294938030,2246,1.01,-0.01,0.04,-2.37,3.17,-1.53,-1,-86.16,-31.49,-23.93,-7.8,-30.27,-26.42,Standing,,,40:08.0
40:08.2,143,487,730.5,967,424,1.41,707.85,2.07,20723.89,423,246,20724.22,249,429493312,0,0,1.01,0,0.06,-1.71,2.16,-1.96,-0.61,-84.82,-31.64,-23.91,-7.95,-30.4,-26.34,Standing,,,40:08.2
40:08.3,488,484,726,967,424,1.41,707.85,2.07,20723.89,423,248,20724.22,249,429493312,4294963264,248,1.01,0,0.07,-0.15,0.02,-0.82,-0.59,-84.58,-31.59,-24.16,-7.95,-30.35,-26.58,Standing,,,40:08.3
40:08.4,78,475,712.5,967,424,1.41,707.85,2.07,20723.89,423,245,20724.22,249,429493312,4294957753,493,1.01,0,0.06,-0.92,-0.27,-0.28,-0.79,-85.12,-31.63,-24.45,-7.89,-30.4,-26.88,Standing,,,40:08.4
40:08.5,182,468,702,967,424,1.41,707.85,2.07,20723.89,423,246,20724.22,249,429493312,4294952733,739,1.03,-0.01,0.04,-2.72,1.79,-0.25,-1.11,-85.98,-31.91,-24.48,-7.82,-30.68,-26.94,Standing,,,40:08.5
40:08.7,183,463,694.5,967,424,1.41,707.85,2.07,20723.89,423,247,20724.22,249,429493312,4294948206,986,1.01,0,0.05,-3.35,0.98,-3.54,-0.47,-85.49,-32.26,-24.61,-8.17,-30.99,-27.04,Standing,,,40:08.7
40:08.8,143,464,696,967,423,1.42,705,2.07,20723.89,423,234,20724.22,249,429493312,4294937426,1220,1.03,0,0.01,-2.34,-0.18,-0.07,-0.42,-87.76,-32.49,-24.88,-8.08,-31.21,-27.4,Standing,,,40:08.8
40:14.0,577,577,865.5,577,422,1.42,702.16,2.06,0,0,233,0,0,0,4294946209,469,1.01,0.24,-0.01,-2.48,-3.47,0.24,12.94,-74.9,-0.33,-1.19,-0.65,0.2,-4.14,Left Fall while Standing,,,40:14.0
40:14.1,987,782,1173,987,424,1.41,707.85,2.07,0,0,228,0,0,0,4294932657,697,1.01,0.24,0.07,-1.53,5.65,0.18,12.86,-74.42,-0.45,-0.74,-0.54,0.08,-3.69,Left Fall while Standing,,,40:14.1
40:14.2,377,647,970.5,987,419,1.44,693.71,2.05,0,0,204,0,0,0,4294908737,901,1.01,0.24,0.08,1.49,7.15,-6.89,12.59,-74.55,-0.2,-0.11,-1.29,0.31,-3.09,Left Fall while Standing,,,40:14.2
40:14.3,245,546,819,987,421,1.43,699.34,2.06,0,0,215,0,0,0,4294889426,1116,0.96,0.25,0.05,-2.53,-0.82,-7.69,14.23,-73.26,-0.44,-0.46,-2.13,0.15,-3.37,Left Fall while Standing,,,40:14.3
40:14.5,861,609,913.5,987,420,1.44,696.52,2.05,0,0,218,0,0,0,4294871414,1334,0.94,0.28,0.06,-2.66,3.98,-2.99,15.65,-71.75,-0.7,-0.21,-2.41,-0.05,-3.07,Left Fall while Standing,,,40:14.5
40:14.6,992,673,1009.5,992,420,1.44,696.52,2.05,0,0,223,0,0,0,4294855607,1557,0.97,0.27,0.1,-2.72,2.79,-2.22,14.78,-72.09,-0.97,-0.11,-2.58,-0.34,-2.99,Left Fall while Standing,,,40:14.6
40:14.7,110,592,888,992,420,1.44,696.52,2.05,0,0,226,0,0,0,4294841147,1783,0.96,0.26,0.1,-1.39,2.47,-4.02,14.71,-72.06,-1.07,-0.06,-2.98,-0.44,-2.94,Left Fall while Standing,,,40:14.7
40:14.8,953,637,955.5,992,421,1.43,699.34,2.06,0,0,225,0,0,0,4294826236,2008,0.95,0.28,0.09,-1.82,-1.38,-1.47,15.54,-71.45,-1.22,-0.47,-3.07,-0.55,-3.31,Left Fall while Standing,,,40:14.8
40:15.0,31,570,855,992,420,1.44,696.52,2.05,20723.83,420,228,20723.93,223,429481280,0,0,0.96,0.27,0.1,-1.31,-1.82,0.86,15.16,-71.58,-1.32,-0.95,-2.86,-0.66,-3.77,Left Fall while Standing,,,40:15.0
40:15.1,956,608,912,992,422,1.42,702.16,2.06,20723.83,420,228,20723.93,223,429481280,4294953744,228,0.98,0.28,0.08,2.08,1.09,-1.44,15.39,-71.85,-0.99,-1.06,-2.94,-0.33,-3.89,Left Fall while Standing,,,40:15.1
40:15.2,987,643,964.5,992,423,1.42,705,2.07,20723.83,420,232,20723.93,223,429481280,4294942032,460,0.95,0.28,0.07,-1.79,-0.81,-2.31,15.72,-71.66,-1.14,-1.42,-3.13,-0.47,-4.23,Left Fall while Standing,,,40:15.2
40:15.3,872,662,993,992,423,1.42,705,2.07,20723.83,420,227,20723.93,223,429481280,4294928025,687,0.94,0.27,0.11,-2.63,-0.28,1.49,15.59,-70.99,-1.41,-1.71,-2.85,-0.73,-4.48,Left Fall while Standing,,,40:15.3
40:15.5,910,681,1021.5,992,421,1.43,699.34,2.06,20723.83,420,218,20723.93,223,429481280,4294910013,905,0.96,0.26,0.07,4.85,2.5,4.24,14.74,-72.6,-0.72,-1.65,-2.21,-0.11,-4.49,Left Fall while Standing,,,40:15.5
40:15.6,356,658,987,992,420,1.44,696.52,2.05,20723.83,420,224,20723.93,223,429481280,4294894653,1129,0.98,0.24,0.07,6.3,-2.09,2.11,13.16,-74.1,0.15,-2.17,-1.84,0.67,-5.04,Left Fall while Standing,,,40:15.6
40:15.7,0,614,921,992,421,1.43,699.34,2.06,20723.83,420,221,20723.93,223,429481280,4294877958,1350,0.98,0.25,0.01,6.57,5.96,-8.17,13.98,-73.86,1.05,-1.67,-2.77,1.56,-4.56,Left Fall while Standing,,,40:15.7
40:15.9,779,624,936,992,422,1.42,702.16,2.06,20723.83,420,225,20723.93,223,429481280,4294863047,1575,0.97,0.25,0.07,-6.28,-8.24,-4.47,13.85,-73.49,0.32,-2.96,-3.24,0.87,-5.78,Left Fall while Standing,,,40:15.9
40:16.0,848,637,955.5,992,422,1.42,702.16,2.06,20723.83,420,230,20723.93,223,429481280,4294850411,1805,0.92,0.27,0.04,-5.69,3.31,0.28,15.96,-71.74,-0.33,-2.79,-3.1,0.32,-5.55,Left Fall while Standing,,,40:16.0
40:16.1,802,646,969,992,422,1.42,702.16,2.06,20723.83,420,222,20723.93,223,429481280,4294834159,2027,0.98,0.26,0.11,-0.73,13.43,3.1,14.3,-72.33,-0.35,-1.34,-2.61,0.24,-4.18,Left Fall while Standing,,,40:16.1
40:16.2,168,621,931.5,992,422,1.42,702.16,2.06,20723.85,421,224,20723.95,225,429481888,0,0,0.98,0.27,0.1,5.23,7.15,-6.98,14.62,-72.16,0.37,-0.7,-3.37,0.94,-3.56,Left Fall while Standing,,,40:16.2
40:16.4,945,637,955.5,992,427,1.4,716.44,2.09,20723.85,421,227,20723.95,225,429481888,4294953289,227,0.94,0.29,0.09,0.37,-0.63,-2.73,16.63,-70.35,0.49,-1.03,-3.62,1.13,-3.81,Left Fall while Standing,,,40:16.4
40:16.5,352,624,936,992,421,1.43,699.34,2.06,20723.85,421,228,20723.95,225,429481888,4294939737,455,0.96,0.29,0.11,4.33,0.08,-3.85,16.37,-70.35,1.11,-1.28,-4.01,1.72,-4.04,Left Fall while Standing,,,40:16.5
40:16.6,279,608,912,992,422,1.42,702.16,2.06,20723.85,421,230,20723.95,225,429481888,4294927101,685,0.95,0.29,0.06,11.8,5.8,-8.97,16.08,-71.41,2.67,-0.8,-5.04,3.2,-3.62,Left Fall while Standing,,,40:16.6
40:16.7,804,617,925.5,992,422,1.42,702.16,2.06,20723.85,421,228,20723.95,225,429481888,4294913549,913,0.96,0.33,0.05,9.06,2.89,-13.61,18.6,-69.06,3.88,-0.69,-6.65,4.47,-3.42,Left Fall while Standing,,,40:16.7
40:16.9,947,630,945,992,422,1.42,702.16,2.06,20723.85,421,228,20723.95,225,429481888,4294899997,1141,0.94,0.34,0.04,7.09,2.13,-13.21,19.47,-68.25,4.85,-0.67,-8.23,5.43,-3.37,Left Fall while Standing,,,40:16.9
40:17.0,254,615,922.5,992,422,1.42,702.16,2.06,20723.85,421,226,20723.95,225,429481888,4294885537,1367,0.95,0.38,0.04,4.02,7.62,-17.53,21.45,-66.26,5.43,0.04,-10.34,6.07,-2.61,Left Fall while Standing,,,40:17.0
40:17.1,305,603,904.5,992,422,1.42,702.16,2.06,20723.85,421,225,20723.95,225,429481888,4294870626,1592,0.84,0.41,0.06,4.6,11.55,-20.09,25.5,-62.01,6.08,1.25,-12.79,6.86,-1.28,Left Fall while Standing,,,40:17.1
40:17.2,829,612,918,992,422,1.42,702.16,2.06,20723.85,421,232,20723.95,225,429481888,4294858914,1824,0.9,0.45,0.03,-1.74,10.3,-14.46,25.71,-62.05,5.93,2.3,-14.53,6.72,-0.27,Left Fall while Standing,,,40:17.2
40:17.4,890,622,933,992,423,1.42,705,2.07,20723.85,421,226,20723.95,225,429481888,4294844454,2050,0.87,0.49,0.11,-6.1,5.04,-7.71,28.45,-58.57,5.23,2.69,-15.4,6.16,0.24,Left Fall while Standing,,,40:17.4
40:17.5,336,612,918,992,423,1.42,705,2.07,20723.87,422,230,20723.98,228,429483168,0,0,0.86,0.48,0.14,3.81,8.81,-7.15,28.28,-58.32,5.78,3.54,-16.19,6.68,1.06,Left Fall while Standing,,,40:17.5
40:17.6,499,608,912,992,422,1.42,702.16,2.06,20723.87,422,221,20723.98,228,429483168,4294950601,221,0.86,0.5,0.16,2.21,0.55,-10.45,29,-57.16,6.13,3.36,-17.4,7.04,0.94,Left Fall while Standing,,,40:17.6
40:17.7,856,616,924,992,421,1.43,699.34,2.06,20723.87,422,223,20723.98,228,429483168,4294934794,444,0.85,0.53,0.11,11.82,2.78,-16.74,31.03,-56.1,7.69,3.45,-19.41,8.62,1.07,Left Fall while Standing,,,40:17.7
40:17.9,933,626,939,992,422,1.42,702.16,2.06,20723.87,422,223,20723.98,228,429483168,4294918987,667,0.8,0.56,0.1,9.3,-0.61,-13.5,34.13,-53.05,8.93,3.13,-21.01,9.94,0.88,Left Fall while Standing,,,40:17.9
40:18.0,183,612,918,992,422,1.42,702.16,2.06,20723.87,422,223,20723.98,228,429483168,4294903180,890,0.81,0.57,0.05,0.45,-0.39,-9.73,34.46,-53.25,9.06,2.82,-22.15,10.07,0.58,Left Fall while Standing,,,40:18.0
40:18.1,419,607,910.5,992,422,1.42,702.16,2.06,20723.87,422,221,20723.98,228,429483168,4294886485,1111,0.79,0.6,0.07,1.32,3.02,-10.79,36.24,-51.31,9.29,2.95,-23.41,10.37,0.78,Left Fall while Standing,,,40:18.1
40:18.3,882,614,921,992,422,1.42,702.16,2.06,20723.87,422,225,20723.98,228,429483168,4294871574,1336,0.76,0.61,0.06,-1.38,4.06,-8.47,38.11,-49.5,9.19,3.21,-24.38,10.35,1.1,Left Fall while Standing,,,40:18.3
40:18.4,991,625,937.5,992,423,1.42,705,2.07,20723.87,422,228,20723.98,228,429483168,4294858022,1564,0.75,0.62,0.09,-0.7,6.68,-7.21,38.58,-48.72,9.17,3.8,-25.19,10.35,1.7,Left Fall while Standing,,,40:18.4
40:18.5,193,613,919.5,992,424,1.41,707.85,2.07,20723.87,422,229,20723.98,228,429483168,4294844927,1793,0.75,0.63,0.11,-1.18,2.61,-6.57,39.29,-47.83,9.09,3.88,-25.92,10.3,1.81,Left Fall while Standing,,,40:18.5
40:18.6,136,601,901.5,992,424,1.41,707.85,2.07,20723.87,422,226,20723.98,228,429483168,4294830467,2019,0.74,0.64,0.08,1.24,2.38,-5.2,40.19,-47.26,9.32,3.93,-26.48,10.55,1.88,Left Fall while Standing,,,40:18.6
40:18.8,732,604,906,992,456,1.24,804.23,2.23,20723.94,425,227,20723.94,224,429481632,0,0,0.75,0.65,0.08,-0.83,2.38,-4.29,40.24,-47.19,9.29,3.97,-26.92,10.52,1.93,Left Fall while Standing,,,40:18.8
40:18.9,966,613,919.5,992,431,1.37,728.04,2.11,20723.94,425,224,20723.94,224,429481632,4294951936,224,0.74,0.64,0.1,1.89,2.95,-5.73,39.89,-47.31,9.59,4.09,-27.54,10.81,2.04,Left Fall while Standing,,,40:18.9
40:19.0,605,613,919.5,992,425,1.41,710.7,2.08,20723.94,425,221,20723.94,224,429481632,4294935241,445,0.73,0.66,0.07,2.86,2.95,-9.53,41.29,-46.23,10.03,4.21,-28.64,11.28,2.2,Left Fall while Standing,,,40:19.0
40:19.1,169,602,903,992,422,1.42,702.16,2.06,20723.94,425,224,20723.94,224,429481632,4294919881,669,0.71,0.68,0.07,-2.33,3.23,-6.18,43.23,-44.3,9.8,4.37,-29.32,11.14,2.42,Left Fall while Standing,,,40:19.1
40:19.3,512,600,900,992,420,1.44,696.52,2.05,20723.94,425,223,20723.94,224,429481632,4294904074,892,0.7,0.69,0.09,-2.02,-0.13,-2.56,43.78,-43.57,9.62,4.1,-29.55,10.98,2.19,Left Fall while Standing,,,40:19.3
40:19.4,709,603,904.5,992,420,1.44,696.52,2.05,20723.94,425,219,20723.94,224,429481632,4294886499,1111,0.69,0.68,0.09,-0.39,-1.26,-3.92,43.65,-43.65,9.64,3.69,-29.94,11,1.79,Left Fall while Standing,,,40:19.4
40:19.5,985,611,916.5,992,420,1.44,696.52,2.05,20723.94,425,223,20723.94,224,429481632,4294870692,1334,0.71,0.68,0.08,-0.11,-2.27,-3.25,43.22,-44.24,9.7,3.15,-30.25,11.04,1.25,Left Fall while Standing,,,40:19.5
40:19.6,929,618,927,992,421,1.43,699.34,2.06,20723.94,425,229,20723.94,224,429481632,4294857597,1563,0.69,0.69,0.11,2.27,5.55,-6.05,43.88,-43.24,10.06,3.6,-30.92,11.41,1.73,Left Fall while Standing,,,40:19.6
40:19.8,961,625,937.5,992,421,1.43,699.34,2.06,20723.94,425,224,20723.94,224,429481632,4294842237,1787,0.67,0.71,0.03,-1.92,3.66,-2.84,46.1,-41.69,9.88,3.81,-31.18,11.33,1.99,Left Fall while Standing,,,40:19.8
40:19.9,872,630,945,992,422,1.42,702.16,2.06,20723.94,425,224,20723.94,224,429481632,4294826877,2011,0.67,0.69,0.07,-7.22,-0.33,8.1,45.29,-42.29,9.04,3.52,-30.06,10.49,1.69,Left Fall while Standing,,,40:19.9
40:20.0,133,620,930,992,422,1.42,702.16,2.06,20723.87,422,232,20723.94,224,429481504,0,0,0.73,0.67,0.07,-3.56,1.6,5.11,41.77,-45.8,8.67,3.47,-29.32,9.99,1.5,Left Fall while Standing,,,40:20.0
40:20.1,560,619,928.5,992,422,1.42,702.16,2.06,20723.87,422,222,20723.94,224,429481504,4294951044,222,0.67,0.68,0.07,-10.24,0.19,14.05,44.47,-43.08,7.45,3.24,-27.45,8.93,1.39,Left Fall while Standing,,,40:20.1
40:20.3,933,625,937.5,992,421,1.43,699.34,2.06,20723.87,422,224,20723.94,224,429481504,4294935684,446,0.74,0.61,0.08,-17.44,-0.85,22.9,38.9,-48.56,5.32,2.88,-24.47,6.67,0.82,Left Fall while Standing,,,40:20.3
40:20.4,921,631,946.5,992,423,1.42,705,2.07,20723.87,422,223,20723.94,224,429481504,4294919877,669,0.76,0.58,0.17,-20.53,-1.5,22.37,35.96,-50.15,2.79,2.44,-21.53,4.11,0.33,Left Fall while Standing,,,40:20.4
40:20.5,990,638,957,992,422,1.42,702.16,2.06,20723.87,422,223,20723.94,224,429481504,4294904070,892,0.82,0.54,0.14,-15.4,2.02,24.12,32.16,-54.46,0.92,2.44,-18.39,2.17,0.16,Left Fall while Standing,,,40:20.5
40:20.6,516,635,952.5,992,422,1.42,702.16,2.06,20723.87,422,219,20723.94,224,429481504,4294886495,1111,0.87,0.49,0.12,-11.56,2.49,25.36,28.44,-58.37,-0.48,2.5,-15.07,0.68,0.07,Left Fall while Standing,,,40:20.6
40:20.8,243,628,942,992,420,1.44,696.52,2.05,20723.87,422,216,20723.94,224,429481504,4294867615,1327,0.87,0.39,0.16,-8.18,-10.51,32.65,23.2,-62.47,-1.43,0.94,-10.89,-0.45,-1.6,Left Fall while Standing,,,40:20.8
40:20.9,91,619,928.5,992,431,1.37,728.04,2.11,20723.87,422,226,20723.94,224,429481504,4294853155,1553,0.99,0.34,0.13,-9.58,-5.67,27.62,18.01,-68.35,-2.58,-0.04,-7.28,-1.75,-2.77,Left Fall while Standing,,,40:20.9
40:21.0,647,619,928.5,992,387,1.64,608.49,1.89,20723.87,422,213,20723.94,224,429481504,4294832988,1766,0.93,0.28,0.11,-11.5,-3.46,32.89,16.15,-70.38,-3.97,-0.73,-3,-3.16,-3.52,Left Fall while Standing,,,40:21.0
40:21.2,933,625,937.5,992,411,1.49,671.57,2.01,20723.87,422,222,20723.94,224,429481504,4294816736,1988,0.96,0.2,0.09,-14.71,0.38,35.11,10.91,-75.7,-5.78,-0.94,1.59,-5.11,-3.93,Left Fall while Standing,,,40:21.2
40:21.3,908,629,943.5,992,417,1.45,688.12,2.04,20723.93,417,221,20723.9,220,429480000,0,0,0.99,0.11,0.18,-23.75,-6.73,34.95,5.62,-76.22,-8.65,-2.02,6.02,-8.08,-4.99,Left Fall while Standing,,,40:21.3
40:21.4,294,624,936,992,426,1.4,713.57,2.08,20723.93,417,217,20723.9,220,429480000,4294948849,217,1.05,0.02,0.21,-4.9,-24.11,27.5,0.69,-77.07,-9.21,-5.34,9.62,-8.81,-8.21,Left Fall while Standing,,,40:21.4
40:21.5,204,617,925.5,992,420,1.44,696.52,2.05,20723.93,417,222,20723.9,220,429480000,4294932597,439,1.02,-0.01,0.07,14.3,-4.4,15.55,-1.11,-84.31,-7.32,-6.15,11.69,-7.07,-9.28,Left Fall while Standing,,,40:21.5
40:21.7,508,615,922.5,992,455,1.25,801.06,2.22,20723.93,417,221,20723.9,220,429480000,4294915902,660,1.03,-0.05,0.02,14.83,2.36,13.14,-3.41,-85.42,-5.36,-6.1,13.46,-5.29,-9.28,Left Fall while Standing,,,40:21.7
40:21.8,869,619,928.5,992,413,1.48,677.05,2.02,20723.93,417,219,20723.9,220,429480000,4294898327,879,1.03,-0.07,0.01,16.92,28.5,-1.55,-4.58,-84.4,-3.14,-2.74,13.36,-3.2,-6.01,Left Fall while Standing,,,40:21.8
40:21.9,988,625,937.5,992,420,1.44,696.52,2.05,20723.93,417,223,20723.9,220,429480000,4294882520,1102,1.1,-0.07,0.06,-4.03,18.6,1.95,-4.11,-83.71,-3.59,-0.63,13.71,-3.61,-3.95,Left Fall while Standing,,,40:21.9
40:22.0,962,630,945,992,421,1.43,699.34,2.06,20723.93,417,227,20723.9,220,429480000,4294868513,1329,1.03,-0.03,0.15,-1.83,20.23,-6.87,-2.51,-79.85,-3.75,1.68,12.94,-3.7,-1.58,Left Fall while Standing,,,40:22.0
40:22.2,566,629,943.5,992,422,1.42,702.16,2.06,20723.93,417,223,20723.9,220,429480000,4294852706,1552,1.01,-0.01,0.21,-14.75,-3.5,-10.43,-1.3,-76.55,-5.55,0.99,11.72,-5.38,-2.12,Left Fall while Standing,,,40:22.2
40:22.3,68,621,931.5,992,422,1.42,702.16,2.06,20723.93,417,227,20723.9,220,429480000,4294838699,1779,0.95,0.01,0.19,-6.47,-5.69,-7.4,-0.04,-76.88,-6.3,0.01,10.88,-6.05,-3.07,Left Fall while Standing,,,40:22.3
40:22.4,542,620,930,992,434,1.36,736.84,2.12,20723.93,417,225,20723.9,220,429480000,4294823788,2004,1.01,0,0.2,4.05,6.14,-0.69,-0.85,-77.17,-5.71,0.53,10.89,-5.52,-2.57,Left Fall while Standing,,,40:22.4
40:22.6,903,624,936,992,425,1.41,710.7,2.08,20723.94,425,226,20723.92,223,429480928,0,0,0.98,-0.02,0.18,-5.65,0.63,-7.18,-2.02,-78.15,-6.35,0.36,10.09,-6.18,-2.78,Left Fall while Standing,,,40:22.6
40:22.7,727,625,937.5,992,414,1.47,679.8,2.02,20723.94,425,220,20723.92,223,429480928,4294950160,220,0.98,0.02,0.19,-4.08,4.02,-8.02,0.79,-77.53,-6.79,0.62,9.18,-6.49,-2.51,Left Fall while Standing,,,40:22.7
40:22.8,155,618,927,992,416,1.46,685.34,2.03,20723.94,425,227,20723.92,223,429480928,4294936153,447,0.96,0.02,0.19,-4.63,-2.33,-4.69,0.59,-76.98,-7.31,0.07,8.68,-7,-3.02,Left Fall while Standing,,,40:22.8
40:22.9,415,616,924,992,418,1.45,690.91,2.04,20723.94,425,227,20723.92,223,429480928,4294922146,674,0.98,0.02,0.23,0.3,4.15,-5.5,0.73,-75.26,-7.2,0.34,8.09,-6.89,-2.69,Left Fall while Standing,,,40:22.9
40:23.1,991,621,931.5,992,421,1.43,699.34,2.06,20723.94,425,224,20723.92,223,429480928,4294906786,898,0.97,0.04,0.19,-1.56,3.14,-0.1,1.68,-76.9,-7.33,0.48,8.18,-6.97,-2.61,Left Fall while Standing,,,40:23.1
40:27.3,357,357,535.5,357,419,1.44,693.71,2.05,0,0,218,0,0,0,4294929973,433,0.99,-0.08,0.15,0.47,-5.82,16.16,-5.1,-78.52,-0.66,-2.57,4.16,-0.84,-5.61,Right Fall while Standing,,,40:27.3
40:27.4,276,316,474,357,420,1.44,696.52,2.05,0,0,221,0,0,0,4294913278,654,1,-0.11,0.07,-3.88,-4.66,19.64,-7.03,-80.73,-1.07,-3.39,6.67,-1.31,-6.48,Right Fall while Standing,,,40:27.4
40:27.6,622,418,627,622,420,1.44,696.52,2.05,0,0,221,0,0,0,4294896583,875,1.01,-0.17,0.08,-15.18,-6.62,18.34,-9.85,-78.1,-2.88,-4.46,9.04,-3.16,-7.4,Right Fall while Standing,,,40:27.6
40:27.7,298,388,582,622,421,1.43,699.34,2.06,0,0,223,0,0,0,4294880776,1098,1,-0.19,0.1,-10.85,-3.79,10.49,-11.5,-76.12,-4.16,-5.17,10.44,-4.45,-8.01,Right Fall while Standing,,,40:27.7
40:27.8,724,455,682.5,724,422,1.42,702.16,2.06,0,0,227,0,0,0,4294866769,1325,0.97,-0.22,0.05,-6.75,-2.36,15.05,-13.62,-75.05,-4.93,-5.72,12.4,-5.28,-8.49,Right Fall while Standing,,,40:27.8
40:27.9,387,444,666,724,414,1.47,679.8,2.02,0,0,220,0,0,0,4294849633,1545,0.96,-0.28,0.05,-6.72,-7.67,25.14,-16.8,-71.94,-5.69,-6.91,15.62,-6.14,-9.52,Right Fall while Standing,,,40:27.9
40:28.0,277,420,630,724,414,1.47,679.8,2.02,0,0,220,0,0,0,4294832497,1765,1.05,-0.32,0.07,-1.18,4.2,11.24,-17.67,-70.95,-5.77,-6.64,17.11,-6.24,-9.21,Right Fall while Standing,,,40:28.0
40:28.2,779,465,697.5,779,419,1.44,693.71,2.05,0,0,220,0,0,0,4294815361,1985,0.97,-0.34,0.02,2.63,8.49,12.24,-19.86,-69.11,-5.37,-5.84,18.71,-5.95,-8.37,Right Fall while Standing,,,40:28.2
40:28.3,678,488,732,779,420,1.44,696.52,2.05,20723.8,419,225,20723.9,221,429480032,0,0,0.97,-0.37,0.04,-10.48,5.17,12.97,-21.22,-67.67,-6.61,-5.45,20.43,-7.2,-7.94,Right Fall while Standing,,,40:28.3
40:28.4,706,510,765,779,421,1.43,699.34,2.06,20723.8,419,228,20723.9,221,429480032,4294953744,228,0.92,-0.41,0.04,-12.01,2.3,16.99,-24.57,-64.31,-8.07,-5.41,22.69,-8.73,-7.77,Right Fall while Standing,,,40:28.4
40:28.5,0,464,696,779,420,1.44,696.52,2.05,20723.8,419,226,20723.9,221,429480032,4294939284,454,0.94,-0.44,0.06,-7.67,-0.08,17.09,-25.79,-62.99,-8.97,-5.67,24.96,-9.64,-7.97,Right Fall while Standing,,,40:28.5
40:28.7,489,466,699,779,420,1.44,696.52,2.05,20723.8,419,225,20723.9,221,429480032,4294924373,679,0.9,-0.46,0.08,-0.95,7.62,14.15,-27.69,-60.92,-9.02,-4.96,26.86,-9.77,-7.2,Right Fall while Standing,,,40:28.7
40:28.8,943,502,753,943,421,1.43,699.34,2.06,20723.8,419,226,20723.9,221,429480032,4294909913,905,0.92,-0.5,0.04,-4.57,-3.36,9.04,-28.96,-59.95,-9.53,-5.64,28.11,-10.31,-7.81,Right Fall while Standing,,,40:28.8
40:28.9,396,495,742.5,943,420,1.44,696.52,2.05,20723.8,419,220,20723.9,221,429480032,4294892777,1125,0.89,-0.51,0.01,-7.51,-3.06,10.97,-30.18,-58.82,-10.41,-6.28,29.6,-11.2,-8.39,Right Fall while Standing,,,40:28.9
40:29.1,116,469,703.5,943,420,1.44,696.52,2.05,20723.8,419,224,20723.9,221,429480032,4294877417,1349,0.65,-0.54,0.22,-6.59,17.31,12.61,-38.86,-46.55,-11.19,-4.32,31.32,-12.29,-6.01,Right Fall while Standing,,,40:29.1
40:29.2,513,472,708,943,420,1.44,696.52,2.05,20723.8,419,223,20723.9,221,429480032,4294861610,1572,0.84,-0.56,0.05,-0.88,3.97,9.37,-34.07,-54.78,-11.23,-4.07,32.62,-12.14,-6.1,Right Fall while Standing,,,40:29.2
40:29.3,881,496,744,943,421,1.43,699.34,2.06,20723.8,419,226,20723.9,221,429480032,4294847150,1798,0.84,-0.6,0.01,-1.92,8.98,10.18,-36.18,-52.81,-11.4,-3.19,34.01,-12.39,-5.17,Right Fall while Standing,,,40:29.3
40:29.4,859,516,774,943,422,1.42,702.16,2.06,20723.8,419,230,20723.9,221,429480032,4294834514,2028,0.83,-0.6,0.01,-3.44,6.89,11.82,-36.53,-52.46,-11.77,-2.56,35.62,-12.76,-4.56,Right Fall while Standing,,,40:29.4
40:29.6,960,540,810,960,422,1.42,702.16,2.06,20723.83,420,224,20723.95,225,429481920,0,0,0.76,-0.62,0.04,-6.74,2.58,13.03,-39.75,-49.15,-12.54,-2.49,37.35,-13.63,-4.35,Right Fall while Standing,,,40:29.6
40:29.7,0,513,769.5,960,421,1.43,699.34,2.06,20723.83,420,224,20723.95,225,429481920,4294951936,224,0.79,-0.66,0.05,-8.31,1.41,15.16,-40.35,-48.52,-13.53,-2.56,39.38,-14.6,-4.4,Right Fall while Standing,,,40:29.7
40:29.8,464,510,765,960,422,1.42,702.16,2.06,20723.83,420,228,20723.95,225,429481920,4294938384,452,0.75,-0.68,0.06,-7.82,-0.37,10.59,-42.79,-46.01,-14.45,-2.87,40.83,-15.59,-4.59,Right Fall while Standing,,,40:29.8
40:29.9,297,501,751.5,960,422,1.42,702.16,2.06,20723.83,420,231,20723.95,225,429481920,4294926209,683,0.75,-0.72,0.03,-4.63,-4.84,7.89,-44.34,-44.62,-14.97,-3.74,41.93,-16.15,-5.37,Right Fall while Standing,,,40:29.9
40:30.1,603,505,757.5,960,421,1.43,699.34,2.06,20723.83,420,224,20723.95,225,429481920,4294910849,907,0.76,-0.72,-0.04,-7.07,-3.99,6.99,-44.06,-44.87,-15.8,-4.5,42.92,-16.93,-6.11,Right Fall while Standing,,,40:30.1
40:30.2,568,508,762,960,422,1.42,702.16,2.06,20723.83,420,229,20723.95,225,429481920,4294897754,1136,0.73,-0.74,-0.01,-8.74,-1.5,3.69,-45.96,-43.04,-16.85,-4.95,43.5,-18.01,-6.47,Right Fall while Standing,,,40:30.2
40:30.3,350,501,751.5,960,421,1.43,699.34,2.06,20723.83,420,223,20723.95,225,429481920,4294881947,1359,0.71,-0.74,-0.03,-4.49,-2.67,0.63,-46.42,-42.54,-17.35,-5.54,43.68,-18.51,-7.02,Right Fall while Standing,,,40:30.3
40:30.5,877,516,774,960,422,1.42,702.16,2.06,20723.83,420,228,20723.95,225,429481920,4294868395,1587,0.71,-0.73,-0.04,-0.37,-0.3,1.85,-46.35,-42.55,-17.33,-5.84,44.01,-18.49,-7.3,Right Fall while Standing,,,40:30.5
40:30.6,522,516,774,960,422,1.42,702.16,2.06,20723.83,420,232,20723.95,225,429481920,4294856683,1819,0.71,-0.75,-0.05,-2.31,-0.85,2.14,-47.23,-41.62,-17.55,-6.2,44.39,-18.74,-7.62,Right Fall while Standing,,,40:30.6
40:30.7,703,523,784.5,960,421,1.43,699.34,2.06,20723.83,420,228,20723.95,225,429481920,4294843131,2047,0.68,-0.76,-0.05,-3.44,-0.54,3.28,-48.45,-40.4,-17.92,-6.53,44.91,-19.14,-7.88,Right Fall while Standing,,,40:30.7
40:30.8,744,530,795,960,422,1.42,702.16,2.06,20723.85,421,231,20723.98,227,429483104,0,0,0.7,-0.76,-0.05,-4.15,-0.24,2.02,-47.95,-40.93,-18.37,-6.81,45.26,-19.55,-8.17,Right Fall while Standing,,,40:30.8
40:31.0,959,544,816,960,422,1.42,702.16,2.06,20723.85,421,229,20723.98,227,429483104,4294954201,229,0.69,-0.76,-0.02,-0.98,1.53,-0.51,-48.54,-40.44,-18.42,-6.87,45.3,-19.63,-8.21,Right Fall while Standing,,,40:31.0
40:31.1,979,558,837,979,422,1.42,702.16,2.06,20723.85,421,227,20723.98,227,429483104,4294940194,456,0.7,-0.75,-0.04,-0.63,-1.76,-2.18,-47.79,-41.1,-18.43,-7.35,45.12,-19.61,-8.7,Right Fall while Standing,,,40:31.1
40:31.2,991,572,858,991,423,1.42,705,2.07,20723.85,421,228,20723.98,227,429483104,4294926642,684,0.69,-0.77,-0.04,-3.22,-0.18,1.1,-48.93,-39.99,-18.77,-7.63,45.36,-19.98,-8.92,Right Fall while Standing,,,40:31.2
40:31.3,546,571,856.5,991,422,1.42,702.16,2.06,20723.85,421,228,20723.98,227,429483104,4294913090,912,0.69,-0.77,-0.03,0.56,1.5,-3.13,-48.49,-40.46,-18.63,-7.69,45.06,-19.82,-9,Right Fall while Standing,,,40:31.3
40:31.5,241,561,841.5,991,423,1.42,705,2.07,20723.85,421,228,20723.98,227,429483104,4294899538,1140,0.71,-0.77,-0.05,-1.13,-0.47,-1.27,-47.99,-40.88,-18.7,-8,45,-19.87,-9.32,Right Fall while Standing,,,40:31.5
40:31.6,153,550,825,991,422,1.42,702.16,2.06,20723.85,421,228,20723.98,227,429483104,4294885986,1368,0.72,-0.75,-0.06,-1.4,1.41,-0.37,-46.89,-41.93,-18.81,-8.08,45.05,-19.93,-9.43,Right Fall while Standing,,,40:31.6
40:31.7,127,538,807,991,421,1.43,699.34,2.06,20723.85,421,226,20723.98,227,429483104,4294871526,1594,0.68,-0.76,-0.06,0.5,2.38,-1.03,-48.68,-40.12,-18.67,-8.03,45.02,-19.87,-9.31,Right Fall while Standing,,,40:31.7
40:31.9,501,537,805.5,991,422,1.42,702.16,2.06,20723.85,421,229,20723.98,227,429483104,4294858431,1823,0.69,-0.78,-0.05,-3.13,3.06,0.79,-49.06,-39.79,-19,-7.9,45.23,-20.2,-9.17,Right Fall while Standing,,,40:31.9
40:32.0,237,529,793.5,991,422,1.42,702.16,2.06,20723.85,421,230,20723.98,227,429483104,4294845795,2053,0.69,-0.78,-0.02,-4.04,0.61,-1.2,-48.93,-40.04,-19.44,-8.07,45.17,-20.62,-9.35,Right Fall while Standing,,,40:32.0
40:32.1,275,523,784.5,991,422,1.42,702.16,2.06,20723.86,422,228,20723.98,228,429483232,0,0,0.69,-0.76,-0.05,-1.67,1.27,-1.85,-48.53,-40.35,-19.58,-8.16,45.04,-20.74,-9.45,Right Fall while Standing,,,40:32.1
40:32.2,757,528,792,991,422,1.42,702.16,2.06,20723.86,422,234,20723.98,228,429483232,4294956516,234,0.67,-0.76,-0.05,-1.11,1.01,-1.54,-49.09,-39.78,-19.65,-8.29,44.94,-20.83,-9.55,Right Fall while Standing,,,40:32.2
40:32.4,229,521,781.5,991,421,1.43,699.34,2.06,20723.86,422,233,20723.98,228,429483232,4294945269,467,0.7,-0.76,-0.04,-1.42,1.27,-2.55,-47.7,-41.22,-19.76,-8.38,44.72,-20.88,-9.7,Right Fall while Standing,,,40:32.4
40:32.5,533,521,781.5,991,421,1.43,699.34,2.06,20723.86,422,231,20723.98,228,429483232,4294933094,698,0.69,-0.77,-0.05,-0.18,0.25,-1.72,-48.63,-40.22,-19.71,-8.61,44.6,-20.87,-9.87,Right Fall while Standing,,,40:32.5
40:32.6,496,521,781.5,991,422,1.42,702.16,2.06,20723.86,422,234,20723.98,228,429483232,4294922314,932,0.69,-0.77,-0.03,-1.74,0.92,-1.21,-48.79,-40.14,-19.87,-8.74,44.55,-21.02,-10,Right Fall while Standing,,,40:32.6
40:32.8,304,516,774,991,421,1.43,699.34,2.06,20723.86,422,231,20723.98,228,429483232,4294910139,1163,0.7,-0.75,-0.04,-2.02,-0.38,-1.79,-47.7,-41.23,-20.05,-9.05,44.42,-21.16,-10.34,Right Fall while Standing,,,40:32.8
40:32.9,580,517,775.5,991,422,1.42,702.16,2.06,20723.86,422,233,20723.98,228,429483232,4294898892,1396,0.69,-0.76,-0.04,-4.17,-0.09,-2.44,-48.11,-40.79,-20.51,-9.32,44.21,-21.62,-10.58,Right Fall while Standing,,,40:32.9
40:33.0,344,513,769.5,991,421,1.43,699.34,2.06,20723.86,422,228,20723.98,228,429483232,4294885340,1624,0.71,-0.76,-0.03,-0.43,-1.62,-3.1,-47.7,-41.24,-20.5,-9.78,43.91,-21.58,-11.04,Right Fall while Standing,,,40:33.0
40:33.1,306,509,763.5,991,421,1.43,699.34,2.06,20723.86,422,226,20723.98,228,429483232,4294870880,1850,0.69,-0.76,-0.03,5.37,0.01,-6.79,-48.35,-40.59,-19.74,-10.03,43.14,-20.88,-11.26,Right Fall while Standing,,,40:33.1
40:33.3,535,510,765,991,421,1.43,699.34,2.06,20723.86,422,232,20723.98,228,429483232,4294859168,2082,0.71,-0.74,-0.06,2.48,1.97,-8.27,-46.76,-42.07,-19.35,-10.04,42.19,-20.45,-11.32,Right Fall while Standing,,,40:33.3
40:33.4,187,503,754.5,991,421,1.43,699.34,2.06,20723.84,421,229,20724.01,231,429484608,0,0,0.74,-0.72,-0.01,-2.58,3.21,-8.2,-44.79,-44.21,-19.61,-9.89,41.26,-20.61,-11.26,Right Fall while Standing,,,40:33.4
40:33.5,762,508,762,991,421,1.43,699.34,2.06,20723.84,421,229,20724.01,231,429484608,4294954201,229,0.76,-0.71,0.01,4.18,5.52,-14.63,-43.63,-45.36,-19,-9.44,39.49,-19.98,-10.87,Right Fall while Standing,,,40:33.5
40:33.6,538,509,763.5,991,422,1.42,702.16,2.06,20723.84,421,234,20724.01,231,429484608,4294943421,463,0.79,-0.68,0,7.72,7.31,-25.98,-41.12,-47.87,-17.94,-8.76,36.26,-18.87,-10.32,Right Fall while Standing,,,40:33.6
40:33.8,220,503,754.5,991,421,1.43,699.34,2.06,20723.84,421,227,20724.01,231,429484608,4294929414,690,0.81,-0.63,0.03,14.6,6.02,-35.6,-38.35,-50.58,-16.01,-8.25,31.84,-16.91,-9.94,Right Fall while Standing,,,40:33.8
40:33.9,663,506,759,991,422,1.42,702.16,2.06,20723.84,421,230,20724.01,231,429484608,4294916778,920,0.89,-0.55,0.04,15.19,16.19,-48.66,-32.1,-56.81,-14,-6.43,25.71,-14.72,-8.44,Right Fall while Standing,,,40:33.9
40:34.0,347,503,754.5,991,421,1.43,699.34,2.06,20723.84,421,231,20724.01,231,429484608,4294904603,1151,0.89,-0.47,0.12,15.23,8.84,-57.08,-28.07,-60.02,-11.99,-5.56,18.57,-12.64,-7.74,Right Fall while Standing,,,40:34.0
40:34.2,693,507,760.5,991,422,1.42,702.16,2.06,20723.84,421,230,20724.01,231,429484608,4294891967,1381,0.95,-0.33,0.11,4.46,0.48,-49.99,-19.8,-68.08,-11.35,-5.76,12.27,-11.69,-8.25,Right Fall while Standing,,,40:34.2
40:34.3,901,514,771,991,422,1.42,702.16,2.06,20723.84,421,234,20724.01,231,429484608,4294881187,1615,0.97,-0.22,0.15,0.56,7.34,-40.34,-13.19,-73.18,-11.21,-5.07,7.2,-11.29,-7.8,Right Fall while Standing,,,40:34.3
40:34.4,574,515,772.5,991,422,1.42,702.16,2.06,20723.84,421,233,20724.01,231,429484608,4294869940,1848,0.97,-0.14,0.15,0.72,2.66,-38.63,-8.94,-76.21,-11.04,-4.99,2.4,-10.96,-7.84,Right Fall while Standing,,,40:34.4
40:34.5,726,518,777,991,422,1.42,702.16,2.06,20723.84,421,234,20724.01,231,429484608,4294859160,2082,1.01,-0.07,0.14,-2.59,2.73,-40.16,-4.71,-79.71,-11.3,-4.9,-2.6,-11.04,-7.89,Right Fall while Standing,,,40:34.5
40:34.7,566,519,778.5,991,422,1.42,702.16,2.06,20723.85,421,234,20724.02,231,429484832,0,0,0.91,0.07,0.18,10.13,6.41,-33.42,3.96,-76.64,-9.96,-4.34,-6.71,-9.4,-7.23,Right Fall while Standing,,,40:34.7
40:34.8,717,522,783,991,422,1.42,702.16,2.06,20723.85,421,230,20724.02,231,429484832,4294954660,230,0.9,0.09,0.18,4.99,4.47,11.4,5.33,-75.75,-9.26,-4.03,-5.18,-8.67,-6.9,Right Fall while Standing,,,40:34.8
40:34.9,644,524,786,991,421,1.43,699.34,2.06,20723.85,421,228,20724.02,231,429484832,4294941108,458,1,0.01,0.1,-4.21,-11.2,17.67,-0.2,-82.46,-9.72,-5.71,-2.83,-9.34,-8.78,Right Fall while Standing,,,40:34.9
40:35.0,518,524,786,991,421,1.43,699.34,2.06,20723.85,421,228,20724.02,231,429484832,4294927556,686,1.08,-0.04,0.16,-2.11,-8.8,3.38,-2.94,-79.54,-9.92,-7.08,-2.3,-9.64,-9.98,Right Fall while Standing,,,40:35.0
40:35.2,218,519,778.5,991,421,1.43,699.34,2.06,20723.85,421,229,20724.02,231,429484832,4294914461,915,1,0,0.07,-5.15,4.62,-16.27,-0.86,-84.65,-10.5,-6.74,-4.27,-10.11,-9.86,Right Fall while Standing,,,40:35.2
40:35.3,467,519,778.5,991,421,1.43,699.34,2.06,20723.85,421,226,20724.02,231,429484832,4294900001,1141,0.97,0.05,0.05,-10.6,3.25,-4.22,2.65,-83.94,-11.78,-6.59,-4.7,-11.2,-9.68,Right Fall while Standing,,,40:35.3
40:35.4,543,519,778.5,991,422,1.42,702.16,2.06,20723.85,421,234,20724.02,231,429484832,4294889221,1375,1.01,0.03,0.15,-11.73,3.96,4.09,1.35,-79.85,-13.18,-6.34,-4.09,-12.6,-9.28,Right Fall while Standing,,,40:35.4
40:35.6,367,517,775.5,991,421,1.43,699.34,2.06,20723.85,421,228,20724.02,231,429484832,4294875669,1603,1.03,0,0.18,-5.04,11.02,-5.8,-0.43,-78.65,-13.75,-5.19,-4.73,-13.22,-8.13,Right Fall while Standing,,,40:35.6
40:35.7,449,516,774,991,421,1.43,699.34,2.06,20723.85,421,231,20724.02,231,429484832,4294863494,1834,0.97,0.02,0.2,-5.38,-1.49,-5.1,0.6,-76.59,-14.37,-5.64,-5.28,-13.77,-8.48,Right Fall while Standing,,,40:35.7
40:35.8,398,514,771,991,422,1.42,702.16,2.06,20723.85,421,232,20724.02,231,429484832,4294851782,2066,0.98,0.03,0.15,-5.48,0.06,0.39,0.9,-79.31,-14.99,-5.89,-5.13,-14.36,-8.82,Right Fall while Standing,,,40:35.8
40:35.9,312,511,766.5,991,420,1.44,696.52,2.05,20723.84,421,225,20723.99,229,429483680,0,0,0.99,0.01,0.17,-6.85,-9.44,4.73,0.08,-78.58,-15.78,-7.31,-4.44,-15.15,-10.17,Right Fall while Standing,,,40:35.9
40:36.1,547,511,766.5,991,421,1.43,699.34,2.06,20723.84,421,228,20723.99,229,429483680,4294953744,228,1.02,0,0.12,0.82,-6.38,-0.38,-0.62,-81.72,-15.61,-8.38,-4.39,-15.01,-11.31,Right Fall while Standing,,,40:36.1
40:36.2,425,510,765,991,421,1.43,699.34,2.06,20723.84,421,232,20723.99,229,429483680,4294942032,460,1,0,0.07,-3.92,-7.71,0.84,-0.47,-84.39,-16.03,-9.61,-4.18,-15.41,-12.6,Right Fall while Standing,,,40:36.2
40:36.3,352,508,762,991,421,1.43,699.34,2.06,20723.84,421,231,20723.99,229,429483680,4294929857,691,1,0.02,0.08,-3,-2.98,3.15,0.35,-83.82,-16.34,-10.25,-3.68,-15.68,-13.19,Right Fall while Standing,,,40:36.3
40:36.4,476,508,762,991,421,1.43,699.34,2.06,20723.84,421,227,20723.99,229,429483680,4294915850,918,1.01,-0.02,0.08,-1.47,-0.6,0.13,-1.63,-83.67,-16.46,-10.58,-3.56,-15.87,-13.5,Right Fall while Standing,,,40:36.4
40:36.6,382,506,759,991,421,1.43,699.34,2.06,20723.84,421,230,20723.99,229,429483680,4294903214,1148,1.02,-0.02,0.1,-1.34,-0.94,-0.48,-1.45,-82.75,-16.56,-10.95,-3.52,-15.95,-13.82,Right Fall while Standing,,,40:36.6
40:36.7,347,504,756,991,420,1.44,696.52,2.05,20723.84,421,227,20723.99,229,429483680,4294889207,1375,1,-0.01,0.08,-1.34,0.99,-0.98,-1.43,-84.03,-16.66,-11.08,-3.55,-16.05,-14,Right Fall while Standing,,,40:36.7
40:36.8,591,505,757.5,991,421,1.43,699.34,2.06,20723.84,421,228,20723.99,229,429483680,4294875655,1603,1.02,-0.01,0.11,1.54,-0.02,-0.53,-1.22,-82.45,-16.39,-11.34,-3.51,-15.78,-14.18,Right Fall while Standing,,,40:36.8
40:37.0,366,503,754.5,991,420,1.44,696.52,2.05,20723.84,421,228,20723.99,229,429483680,4294862103,1831,0.99,-0.02,0.08,-1.66,0.17,-1.71,-2.01,-83.53,-16.53,-11.57,-3.63,-15.95,-14.45,Right Fall while Standing,,,40:37.0
40:37.1,508,503,754.5,991,421,1.43,699.34,2.06,20723.84,421,228,20723.99,229,429483680,4294848551,2059,1.02,0,0.06,-1.71,6,-0.35,-0.65,-85.06,-16.68,-11.06,-3.57,-16.04,-14.02,Right Fall while Standing,,,40:37.1
40:37.2,436,502,753,991,422,1.42,702.16,2.06,20723.83,420,231,20723.99,229,429483648,0,0,0.99,0,0.08,0.43,9.3,-4.84,-0.86,-83.87,-16.55,-10.14,-4.09,-15.93,-13.09,Right Fall while Standing,,,40:37.2
40:37.3,346,500,750,991,421,1.43,699.34,2.06,20723.83,420,227,20723.99,229,429483648,4294953289,227,1,-0.01,0.15,-0.74,5.46,-2.99,-1.04,-79.65,-16.58,-9.7,-4.36,-15.95,-12.5,Right Fall while Standing,,,40:37.3
40:43.2,419,419,628.5,419,415,1.47,682.57,2.03,0,0,312,0,0,0,1860,630,1.03,-0.01,-0.19,3.84,0.77,-3.72,-1.02,-78.14,0.63,-2.41,0.15,0.57,-5.44,Forward Fall while Standing,,,40:43.2
40:43.3,501,460,690,501,408,1.51,663.41,1.99,0,0,309,0,0,0,31805,939,0.99,-0.01,-0.2,-5.47,-4.32,0.76,-0.94,-77,0.03,-3.19,0.34,-0.01,-6.14,Forward Fall while Standing,,,40:43.3
40:43.4,347,306,459,501,403,1.54,650,1.97,0,0,306,0,0,0,59905,1245,1,-0.01,-0.2,-7.82,-24.19,6.5,-1.13,-77.19,-0.86,-6.38,1.23,-0.87,-9.21,Forward Fall while Standing,,,40:43.4
40:43.6,591,230,345,501,401,1.55,644.69,1.96,0,0,304,0,0,0,86785,1549,1.02,-0.02,-0.27,-5.59,-27.08,3.95,-1.63,-73.63,-1.47,-9.96,1.81,-1.48,-12.5,Forward Fall while Standing,,,40:43.6
40:43.7,366,184,276,501,392,1.61,621.24,1.92,0,0,295,0,0,0,108274,1844,0.99,-0.04,-0.3,-3.68,-22.36,4.79,-2.98,-71.19,-1.86,-12.95,2.5,-1.9,-15.28,Forward Fall while Standing,,,40:43.7
40:43.8,508,153,229.5,501,389,1.63,613.56,1.9,0,0,293,0,0,0,128587,2137,0.97,-0.05,-0.35,-3.09,-31.86,5.65,-3.54,-68.55,-2.17,-17.12,3.29,-2.22,-19.18,Forward Fall while Standing,,,40:43.8
40:43.9,436,131,196.5,501,387,1.64,608.49,1.89,0,0,285,0,0,0,144276,2422,0.95,-0.07,-0.44,0.22,-37.05,6.83,-4.21,-63.37,-2.07,-21.88,4.22,-2.16,-23.54,Forward Fall while Standing,,,40:43.9
40:44.0,346,115,172.5,501,383,1.67,598.44,1.87,0,0,281,0,0,0,157701,2703,0.92,-0.08,-0.56,-3.98,-24.27,2.78,-5.09,-57.09,-2.49,-25.11,4.66,-2.6,-26.39,Forward Fall while Standing,,,40:44.0
40:44.2,419,129,193.5,501,381,1.69,593.46,1.86,86.16,397,281,130.81,298,17111,0,0,0.82,-0.09,-0.51,-3.73,-16.02,4.85,-5.64,-56.1,-2.89,-27.35,5.36,-3,-28.5,Forward Fall while Standing,,,40:44.2
40:44.3,521,168,252,521,381,1.69,593.46,1.86,86.16,397,282,130.81,298,17111,13988,282,0.86,-0.09,-0.63,-2.35,-29.04,9.5,-5.56,-51.9,-3.11,-31.23,6.65,-3.21,-32.06,Forward Fall while Standing,,,40:44.3
40:44.4,509,199,298.5,521,395,1.59,628.98,1.93,86.16,397,290,130.81,298,17111,32552,572,0.86,-0.1,-0.66,-2.62,-16.85,4.28,-5.91,-50.73,-3.37,-33.59,7.28,-3.47,-34.27,Forward Fall while Standing,,,40:44.4
40:44.5,356,212,318,521,405,1.53,655.34,1.98,86.16,397,288,130.81,298,17111,49960,860,0.81,-0.13,-0.68,-3.6,-20.95,4.08,-7.5,-47.99,-3.75,-36.45,7.89,-3.9,-36.92,Forward Fall while Standing,,,40:44.5
40:44.7,700,250,375,700,407,1.51,660.71,1.99,86.16,397,292,130.81,298,17111,69688,1152,0.78,-0.11,-0.71,-4.18,-22.23,6.56,-6.43,-45.96,-4.2,-39.48,8.81,-4.29,-39.74,Forward Fall while Standing,,,40:44.7
40:44.8,874,294,441,874,408,1.51,663.41,1.99,86.16,397,295,130.81,298,17111,91177,1447,0.76,-0.12,-0.76,-4.24,-9.39,3.59,-7.04,-43.05,-4.67,-40.92,9.36,-4.76,-41,Forward Fall while Standing,,,40:44.8
40:44.9,1001,341,511.5,1001,395,1.59,628.98,1.93,86.16,397,261,130.81,298,17111,93762,1708,0.74,-0.13,-0.77,-4.14,-16.89,3.68,-7.59,-41.96,-5.11,-43.28,9.92,-5.21,-43.23,Forward Fall while Standing,,,40:44.9
40:45.0,1000,382,573,1001,388,1.64,611.02,1.9,86.16,397,262,130.81,298,17111,96870,1970,0.72,-0.13,-0.81,-4.79,-17.27,2.28,-7.69,-39.75,-5.65,-45.71,10.31,-5.73,-45.47,Forward Fall while Standing,,,40:45.0
40:45.2,1000,419,628.5,1001,386,1.65,605.97,1.89,86.16,397,257,130.81,298,17111,97383,2227,0.67,-0.12,-0.84,-4.98,-13.81,2.27,-6.92,-36.95,-6.2,-47.68,10.69,-6.23,-47.25,Forward Fall while Standing,,,40:45.2
40:45.3,1001,451,676.5,1001,378,1.71,586.05,1.85,86.16,397,240,130.81,298,17111,89447,2467,0.66,-0.13,-0.86,-3.64,-13.4,3.75,-7.45,-35.59,-6.59,-49.62,11.26,-6.62,-49.06,Forward Fall while Standing,,,40:45.3
40:45.4,1001,480,720,1001,375,1.73,578.7,1.83,53.92,391,237,89.49,270,8007,0,0,0.61,-0.14,-0.88,-5.05,-18.38,5.58,-8.07,-32.98,-7.15,-52.15,12.05,-7.18,-51.38,Forward Fall while Standing,,,40:45.4
40:45.5,938,503,754.5,1001,376,1.72,581.14,1.84,53.92,391,236,89.49,270,8007,4294957456,236,0.61,-0.15,-0.92,-6.15,-21.47,5.76,-8.27,-31.72,-7.84,-55.09,12.87,-7.86,-54.15,Forward Fall while Standing,,,40:45.5
40:45.7,738,514,771,1001,382,1.68,595.94,1.87,53.92,391,247,89.49,270,8007,4294952929,483,0.56,-0.15,-0.94,0.35,-15.24,4.02,-8.2,-28.9,-7.73,-57.26,13.48,-7.75,-56.12,Forward Fall while Standing,,,40:45.7
40:45.8,714,523,784.5,1001,389,1.63,613.56,1.9,53.92,391,253,89.49,270,8007,4294951402,736,0.5,-0.17,-0.94,-3.18,-15.56,4.14,-9.74,-26.24,-8.06,-59.47,14.1,-8.13,-58.14,Forward Fall while Standing,,,40:45.8
40:45.9,645,528,792,1001,383,1.67,598.44,1.87,53.92,391,233,89.49,270,8007,4294940155,969,0.47,-0.16,-0.95,-3.63,-19.63,7.36,-9.01,-24.3,-8.44,-62.17,15.12,-8.47,-60.66,Forward Fall while Standing,,,40:45.9
40:46.0,422,524,786,1001,384,1.66,600.94,1.88,53.92,391,241,89.49,270,8007,4294932700,1210,0.43,-0.18,-0.95,-0.06,-7.08,10.7,-10.14,-22.33,-8.38,-63.32,16.57,-8.45,-61.68,Forward Fall while Standing,,,40:46.0
40:46.2,697,531,796.5,1001,388,1.64,611.02,1.9,53.92,391,189,89.49,270,8007,4294902885,1399,0.45,-0.2,-0.97,-2.66,-14.1,5.88,-11.1,-22.78,-8.65,-65.36,17.41,-8.74,-63.66,Forward Fall while Standing,,,40:46.2
40:46.3,298,522,783,1001,399,1.56,639.42,1.95,53.92,391,282,89.49,270,8007,4294916873,1681,0.4,-0.19,-0.98,-1.56,-17.31,3.77,-10.94,-20.11,-8.77,-67.79,17.99,-8.86,-65.89,Forward Fall while Standing,,,40:46.3
40:46.4,173,509,763.5,1001,399,1.56,639.42,1.95,53.92,391,308,89.49,270,8007,4294946201,1989,0.34,-0.2,-1.02,-1.04,-17.88,2.96,-10.97,-16.7,-8.83,-70.3,18.46,-8.92,-68.15,Forward Fall while Standing,,,40:46.4
40:46.6,266,500,750,1001,409,1.5,666.12,2,53.92,391,304,89.49,270,8007,5785,2293,0.3,-0.21,-1.03,-0.33,-14.12,5.04,-11.74,-14.32,-8.8,-72.31,19.19,-8.92,-69.99,Forward Fall while Standing,,,40:46.6
40:46.7,359,483,724.5,1001,402,1.54,647.34,1.96,124.23,391,323,20724.25,261,429494624,0,0,0.29,-0.23,-1.06,-1.44,-12.02,6.79,-12.34,-13.56,-8.91,-74.08,20.14,-9.05,-71.66,Forward Fall while Standing,,,40:46.7
40:46.8,452,467,700.5,1001,404,1.53,652.67,1.97,124.23,391,311,20724.25,261,429494624,31185,311,0.27,-0.23,-1.03,-0.96,-9.13,1.27,-12.53,-12.84,-8.97,-75.48,20.4,-9.11,-72.98,Forward Fall while Standing,,,40:46.8
40:46.9,545,452,678,1001,406,1.52,658.02,1.98,124.23,391,312,20724.25,261,429494624,62993,623,0.22,-0.23,-1.05,-0.65,-6.69,1.16,-12.49,-10.11,-8.98,-76.58,20.65,-9.12,-73.92,Forward Fall while Standing,,,40:46.9
40:47.1,500,453,679.5,1001,411,1.49,671.57,2.01,124.23,391,321,20724.25,261,429494624,34962,944,0.22,-0.23,-1.03,-1.11,-9.71,2.18,-12.63,-10.32,-9.05,-78.06,21.03,-9.19,-75.36,Forward Fall while Standing,,,40:47.1
40:47.2,267,448,672,1001,409,1.5,666.12,2,124.23,391,312,20724.25,261,429494624,66770,1256,0.2,-0.23,-1.05,-0.34,-9.66,1.89,-12.59,-8.96,-9.02,-79.53,21.36,-9.16,-76.71,Forward Fall while Standing,,,40:47.2
40:47.3,1,434,651,1001,410,1.5,668.84,2,124.23,391,307,20724.25,261,429494624,95483,1563,0.18,-0.23,-1.05,-0.83,-9.07,1.14,-12.7,-7.86,-9.05,-80.94,21.61,-9.2,-78.02,Forward Fall while Standing,,,40:47.3
40:47.4,1001,451,676.5,1001,411,1.49,671.57,2.01,124.23,391,308,20724.25,261,429494624,124811,1871,0.15,-0.23,-1.05,0.07,-7.92,0.56,-12.88,-6.13,-8.97,-82.19,21.78,-9.13,-79.15,Forward Fall while Standing,,,40:47.4
40:47.6,529,453,679.5,1001,412,1.48,674.3,2.01,124.23,391,271,20724.25,261,429494624,132716,2142,-0.07,-0.23,-0.89,0.37,-1.82,-0.59,-15.12,6.25,-8.86,-82.67,21.8,-9.11,-79.12,Forward Fall while Standing,,,40:47.6
40:47.7,513,454,681,1001,412,1.48,674.3,2.01,124.23,391,309,20724.25,261,429494624,162661,2451,0.14,-0.24,-1.08,-2.51,-6.08,0.76,-13.13,-5.42,-9.1,-83.7,22,-9.26,-80.57,Forward Fall while Standing,,,40:47.7
40:47.8,604,458,687,1001,413,1.48,677.05,2.02,124.23,391,311,20724.25,261,429494624,193846,2762,0.1,-0.24,-1.04,1.29,-5.03,0.08,-13.68,-3.56,-8.87,-84.59,22.11,-9.06,-81.35,Forward Fall while Standing,,,40:47.8
40:47.9,384,456,684,1001,411,1.49,671.57,2.01,20723.77,409,308,149.39,307,22316,0,0,0.09,-0.25,-1.06,0.08,-8.31,-1.68,-14.02,-2.89,-8.79,-85.88,22,-9,-82.56,Forward Fall while Standing,,,40:47.9
40:48.1,15,445,667.5,1001,411,1.49,671.57,2.01,20723.77,409,305,149.39,307,22316,27489,305,0.05,-0.25,-1.06,-1.27,-6.89,-0.97,-13.89,-0.9,-8.88,-86.99,21.98,-9.08,-83.54,Forward Fall while Standing,,,40:48.1
40:48.2,6,435,652.5,1001,412,1.48,674.3,2.01,20723.77,409,308,149.39,307,22316,56817,613,0.06,-0.25,-1.05,-0.91,-1.53,1.35,-14.08,-1.72,-8.92,-87.43,22.24,-9.13,-84,Forward Fall while Standing,,,40:48.2
40:48.3,42,425,637.5,1001,413,1.48,677.05,2.02,20723.77,409,311,149.39,307,22316,88002,924,0.05,-0.27,-1.05,-0.59,0.26,-3.83,-14.81,-1.05,-8.93,-87.65,21.86,-9.16,-84.18,Forward Fall while Standing,,,40:48.3
40:48.4,86,417,625.5,1001,412,1.48,674.3,2.01,20723.77,409,306,149.39,307,22316,116102,1230,0.04,-0.25,-1.06,-2.07,4.46,-3.03,-14.07,-0.79,-9.12,-87.34,21.58,-9.32,-83.87,Forward Fall while Standing,,,40:48.4
40:48.6,588,421,631.5,1001,414,1.47,679.8,2.02,20723.77,409,307,149.39,307,22316,144815,1537,0.07,-0.26,-1.07,-2.59,11.27,-3.13,-14.02,-2.33,-9.37,-86.17,21.29,-9.56,-82.82,Forward Fall while Standing,,,40:48.6
40:48.7,671,427,640.5,1001,413,1.48,677.05,2.02,20723.77,409,308,149.39,307,22316,174143,1845,0.15,-0.27,-1.1,-2.44,24.72,-11.71,-14.06,-6.02,-9.61,-83.31,19.91,-9.79,-80.21,Forward Fall while Standing,,,40:48.7
40:48.8,508,428,642,1001,396,1.58,631.58,1.94,20723.77,409,246,149.39,307,22316,169123,2091,0.29,-0.25,-1.17,-8.89,35.34,-16.53,-12.2,-12.11,-10.67,-79.07,17.91,-10.73,-76.39,Forward Fall while Standing,,,40:48.8
40:48.9,93,421,631.5,1001,373,1.74,573.85,1.82,20723.77,409,208,149.39,307,22316,146851,2299,0.26,-0.23,-1.03,-5.43,43.7,-17.89,-12.69,-12.45,-11.28,-73.82,15.76,-11.34,-71.36,Forward Fall while Standing,,,40:48.9
40:49.1,750,428,642,1001,365,1.8,554.71,1.78,20723.77,409,204,149.39,307,22316,122931,2503,0.37,-0.21,-1.02,-7.82,41.12,-18.3,-11.73,-17.88,-12.2,-68.85,13.53,-12.18,-66.81,Forward Fall while Standing,,,40:49.1
40:49.2,455,429,643.5,1001,351,1.91,522.32,1.72,20723.99,396,202,99.09,270,9818,0,0,0.44,-0.16,-0.99,-7.66,39.46,-19.66,-9.08,-22.12,-13.1,-64.13,11.16,-12.94,-62.45,Forward Fall while Standing,,,40:49.2
40:49.3,368,427,640.5,1001,345,1.97,508.85,1.69,20723.99,396,194,99.09,270,9818,4294939396,194,0.54,-0.15,-0.95,-8.56,46.5,-16.92,-8.26,-27.64,-14.1,-58.52,9.12,-13.87,-57.29,Forward Fall while Standing,,,40:49.3
40:49.5,505,429,643.5,1001,336,2.04,489.08,1.64,20723.99,396,193,99.09,270,9818,4294911109,387,0.63,-0.12,-0.9,-9.64,48.31,-17.54,-7.09,-33,-15.26,-52.64,7,-14.93,-51.86,Forward Fall while Standing,,,40:49.5
40:49.6,642,421,631.5,1001,334,2.06,484.76,1.63,20723.99,396,215,99.09,270,9818,4294891798,602,0.67,-0.1,-0.82,-8.67,43.04,-16.13,-5.74,-37.34,-16.28,-47.47,5.06,-15.86,-47.07,Forward Fall while Standing,,,40:49.6
40:49.7,779,414,621,1001,338,2.03,493.43,1.65,20723.99,396,224,99.09,270,9818,4294876438,826,0.72,-0.06,-0.77,-9.93,46.98,-13.5,-3.78,-41.46,-17.47,-41.76,3.45,-16.92,-41.75,Forward Fall while Standing,,,40:49.7
40:49.8,916,406,609,1001,343,1.98,504.41,1.68,20723.99,396,200,99.09,270,9818,4294850902,1026,0.81,-0.02,-0.65,-2.3,60.63,-5.71,-1.7,-49.48,-17.69,-34.31,2.82,-17.05,-34.92,Forward Fall while Standing,,,40:49.8
40:50.0,281,399,598.5,1001,348,1.94,515.56,1.7,20723.99,396,292,99.09,270,9818,4294870630,1318,0.89,-0.03,-0.53,4.37,64.4,-5.21,-2.52,-57.58,-17.07,-26.45,2.27,-16.49,-27.7,Forward Fall while Standing,,,40:50.0
40:50.1,639,392,588,1001,372,1.75,571.43,1.82,20723.99,396,261,99.09,270,9818,4294873215,1579,0.93,-0.03,-0.38,8.51,54.97,-7.04,-2.23,-66.3,-15.93,-19.78,1.48,-15.38,-21.64,Forward Fall while Standing,,,40:50.1
40:50.2,574,385,577.5,1001,372,1.75,571.43,1.82,20723.99,396,266,99.09,270,9818,4294878435,1845,0.97,-0.02,-0.31,5.98,48.41,-5.02,-1.45,-70.84,-15.1,-13.93,0.95,-14.56,-16.2,Forward Fall while Standing,,,40:50.2
40:50.3,996,378,567,1001,380,1.69,590.98,1.86,20723.99,396,277,99.09,270,9818,4294889628,2122,0.99,0,-0.2,2.16,48.05,-4.22,-0.76,-76.91,-14.76,-8.13,0.52,-14.2,-10.88,Forward Fall while Standing,,,40:50.3
40:50.5,281,376,564,1001,380,1.69,590.98,1.86,20724.19,354,273,20724.14,239,429489856,0,0,1,0,-0.11,4.05,41.97,-4.69,-0.52,-82.21,-14.18,-3.09,0.02,-13.63,-6.26,Forward Fall while Standing,,,40:50.5
40:50.6,639,381,571.5,1001,378,1.71,586.05,1.85,20724.19,354,270,20724.14,239,429489856,7364,270,1.03,0,-0.06,10.3,27.06,-4.85,-0.42,-85.27,-12.81,0.07,-0.49,-12.31,-3.35,Forward Fall while Standing,,,40:50.6
40:50.7,574,384,576,1001,379,1.7,588.51,1.85,20724.19,354,277,20724.14,239,429489856,18557,547,1,0,0,8.23,24.45,-7.56,-0.51,-88.24,-11.69,2.92,-1.35,-11.25,-0.73,Forward Fall while Standing,,,40:50.7
40:50.8,968,393,589.5,1001,376,1.72,581.14,1.84,20724.19,354,274,20724.14,239,429489856,28097,821,0.99,0.02,0.03,3.15,14.22,-9.11,0.35,-86.22,-11.23,4.46,-2.4,-10.76,0.83,Forward Fall while Standing,,,40:50.8
40:51.0,996,403,604.5,1001,374,1.74,576.27,1.83,20724.19,354,268,20724.14,239,429489856,34385,1089,1,0.05,0.06,-9,5.57,-9.08,2.29,-83.84,-12.29,4.91,-3.44,-11.71,1.36,Forward Fall while Standing,,,40:51.0
40:51.1,984,412,618,1001,372,1.75,571.43,1.82,20724.19,354,269,20724.14,239,429489856,41210,1358,0.99,0.05,0.03,-16.43,-8.2,-4.41,2.02,-85.24,-14.27,3.63,-3.89,-13.62,0.08,Forward Fall while Standing,,,40:51.1
40:51.2,914,420,630,1001,370,1.76,566.62,1.81,20724.19,354,272,20724.14,239,429489856,49658,1630,0.99,0.03,0.14,-15.87,-14.56,2.1,1.03,-79.97,-16.22,1.53,-3.53,-15.53,-1.73,Forward Fall while Standing,,,40:51.2
40:51.3,994,428,642,1001,370,1.76,566.62,1.81,20724.19,354,265,20724.14,239,429489856,54347,1895,1.04,0.03,0.05,0.7,8.78,-2.31,0.86,-85.08,-16.06,2.38,-3.72,-15.38,-1.11,Forward Fall while Standing,,,40:51.3
40:51.5,843,435,652.5,1001,369,1.77,564.22,1.8,20724.19,354,267,20724.14,239,429489856,60100,2162,1.05,0.06,0.05,5.2,14.6,5.53,2.95,-84.07,-15.33,3.97,-2.92,-14.6,0.45,Forward Fall while Standing,,,40:51.5
40:51.6,653,438,657,1001,370,1.76,566.62,1.81,20724.19,354,272,20724.14,239,429489856,68548,2434,1.05,0.02,0.13,-0.1,-1.16,4.18,0.49,-81.1,-15.28,3.57,-2.3,-14.64,0.19,Forward Fall while Standing,,,40:51.6
40:51.7,901,444,666,1001,365,1.8,554.71,1.78,86.9,372,270,87.13,270,7590,0,0,0.97,0.04,0.07,6.47,13.48,-0.33,1.63,-83.88,-14.41,4.99,-2.24,-13.77,1.43,Forward Fall while Standing,,,40:51.7
40:51.8,920,451,676.5,1001,367,1.79,559.45,1.79,86.9,372,268,87.13,270,7590,6288,268,0.92,0.01,0.09,-9.53,-2.34,13.69,0.17,-82.71,-15.52,4.45,-0.44,-14.89,0.96,Forward Fall while Standing,,,40:51.8
40:52.0,698,455,682.5,1001,366,1.8,557.08,1.79,86.9,372,270,87.13,270,7590,13652,538,1.09,-0.01,0.1,-9.07,15.75,6.27,-0.99,-83.28,-16.58,6.15,0.43,-15.95,2.57,Forward Fall while Standing,,,40:52.0
40:52.1,575,456,684,1001,366,1.8,557.08,1.79,86.9,372,269,87.13,270,7590,20477,807,1.05,-0.06,0.15,-2.57,37.15,-21.26,-3.75,-79.61,-16.83,10.51,-2.11,-16.3,6.91,Forward Fall while Standing,,,40:52.1
40:52.2,585,458,687,1001,364,1.81,552.35,1.78,86.9,372,270,87.13,270,7590,27841,1077,0.98,0.07,0.23,-21.86,-19.95,-12.06,3.28,-74.86,-19.49,7.77,-3.52,-18.58,4.46,Forward Fall while Standing,,,40:52.2
40:52.3,796,463,694.5,1001,362,1.83,547.66,1.77,86.9,372,270,87.13,270,7590,35205,1347,0.95,0.06,0.18,-0.72,-6.15,0.03,2.75,-77.44,-19.51,6.75,-3.41,-18.62,3.38,Forward Fall while Standing,,,40:52.3
40:52.5,711,466,699,1001,362,1.83,547.66,1.77,86.9,372,266,87.13,270,7590,40425,1613,1.02,0.04,0.15,0.95,-17.94,1.75,1.52,-79.9,-19.32,4.28,-3.1,-18.49,0.91,Forward Fall while Standing,,,40:52.5
40:52.6,587,468,702,1001,362,1.83,547.66,1.77,86.9,372,268,87.13,270,7590,46713,1881,1.01,0.03,0.08,7.27,-7.92,-4.17,0.95,-83.84,-18.34,3.04,-3.52,-17.57,-0.44,Forward Fall while Standing,,,40:52.6
40:52.7,443,467,700.5,1001,360,1.84,542.99,1.76,86.9,372,268,87.13,270,7590,53001,2149,1.01,0.02,0.05,0.55,4.48,-4.22,0.68,-85.24,-18.21,3.34,-3.95,-17.45,-0.2,Forward Fall while Standing,,,40:52.7
40:52.8,494,468,702,1001,359,1.85,540.66,1.75,86.9,372,270,87.13,270,7590,60365,2419,1.02,0.04,0.07,-0.76,13.34,-7.33,1.71,-83.63,-18.23,4.74,-4.75,-17.43,1.2,Forward Fall while Standing,,,40:52.8
40:53.0,654,470,705,1001,360,1.84,542.99,1.76,23.64,362,269,81.97,268,6718,0,0,0.97,0.05,0.3,15,31.89,-12.11,2.52,-70.83,-16.32,8.41,-6.14,-15.56,5.24,Forward Fall while Standing,,,40:53.0
40:53.1,476,470,705,1001,376,1.72,581.14,1.84,23.64,362,270,81.97,268,6718,7364,270,0.97,0.09,0.19,4.08,20.47,-7.9,4.48,-76.16,-15.74,10.72,-7.03,-14.93,7.25,Forward Fall while Standing,,,40:53.1
40:59.0,208,208,312,208,408,1.51,663.41,1.99,0,0,302,0,0,0,52548,606,0.97,-0.01,0.17,-2.59,3.1,-0.85,-1.09,-78.35,-0.46,-0.55,-0.67,-0.48,-3.66,Sitting,,,40:59.0
40:59.2,128,168,252,208,409,1.5,666.12,2,0,0,302,0,0,0,78216,908,0.98,-0.02,0.21,-0.82,4.98,-1.04,-1.68,-76.52,-0.49,-0.18,-0.7,-0.54,-3.24,Sitting,,,40:59.2
40:59.3,235,190,285,235,410,1.5,668.84,2,0,0,304,0,0,0,105096,1212,0.98,-0.01,0.21,-2.19,-0.48,-0.54,-1.26,-76.12,-0.69,-0.49,-0.67,-0.71,-3.51,Sitting,,,40:59.3
40:59.4,415,246,369,415,411,1.49,671.57,2.01,0,0,303,0,0,0,131369,1515,0.99,-0.02,0.19,-2.63,-1.6,-1.53,-1.93,-77.45,-0.95,-0.93,-0.76,-0.98,-3.99,Sitting,,,40:59.4
40:59.5,694,336,504,694,411,1.49,671.57,2.01,0,0,303,0,0,0,157642,1818,0.99,-0.02,0.19,-1.45,0.37,-3.33,-1.65,-77.63,-1.05,-1.13,-1.08,-1.08,-4.19,Sitting,,,40:59.5
40:59.6,640,386,579,694,410,1.5,668.84,2,0,0,305,0,0,0,185131,2123,0.99,-0.01,0.19,-3.13,5.81,-0.56,-1.05,-77.61,-1.37,-0.66,-1.05,-1.36,-3.74,Sitting,,,40:59.6
40:59.8,556,410,615,694,409,1.5,666.12,2,0,0,304,0,0,0,212011,2427,0.97,-0.02,0.22,-3.53,1.82,0.45,-1.47,-75.84,-1.73,-0.68,-0.9,-1.72,-3.69,Sitting,,,40:59.8
40:59.9,498,421,631.5,694,410,1.5,668.84,2,0,0,297,0,0,0,234684,2724,0.99,-0.01,0.21,-3.1,-3.82,3.39,-1.35,-76.37,-2.05,-1.4,-0.38,-2.02,-4.4,Sitting,,,40:59.9
41:00.0,349,413,619.5,694,409,1.5,666.12,2,20723.61,409,297,160.42,302,25734,0,0,0.99,-0.03,0.19,-1.68,-4.94,0.84,-2.16,-77.47,-2.18,-2.26,-0.18,-2.18,-5.27,Sitting,,,41:00.0
41:00.1,705,442,663,705,434,1.36,736.84,2.12,20723.61,409,304,160.42,302,25734,26880,304,1,-0.04,0.16,-3.16,-1.3,-0.79,-2.81,-78.98,-2.51,-2.67,-0.18,-2.52,-5.73,Sitting,,,41:00.1
41:00.3,743,470,705,743,402,1.54,647.34,1.96,20723.61,409,304,160.42,302,25734,53760,608,0.98,-0.03,0.19,-2.29,3.72,-2.57,-2.37,-77.42,-2.73,-2.46,-0.41,-2.71,-5.46,Sitting,,,41:00.3
41:00.4,731,491,736.5,743,406,1.52,658.02,1.98,20723.61,409,287,160.42,302,25734,70593,895,0.99,-0.03,0.2,-3.13,0.39,-0.98,-2.15,-77.07,-3.05,-2.66,-0.43,-3.01,-5.63,Sitting,,,41:00.4
41:00.5,551,496,744,743,377,1.71,583.59,1.84,20723.61,409,291,160.42,302,25734,89738,1186,1,-0.03,0.19,-1.34,-0.81,-1.06,-2.21,-77.64,-3.15,-3.01,-0.46,-3.11,-5.99,Sitting,,,41:00.5
41:00.6,770,515,772.5,770,398,1.57,636.8,1.95,20723.61,409,294,160.42,302,25734,110638,1480,0.99,-0.03,0.17,-1.56,-0.28,-1.63,-2.15,-78.28,-3.27,-3.29,-0.57,-3.23,-6.29,Sitting,,,41:00.6
41:00.8,826,536,804,826,403,1.54,650,1.97,20723.61,409,301,160.42,302,25734,135703,1781,0.99,-0.04,0.17,-1.76,2.28,-1.56,-2.63,-78.29,-3.42,-3.26,-0.67,-3.39,-6.26,Sitting,,,41:00.8
41:00.9,731,548,822,826,405,1.53,655.34,1.98,20723.61,409,294,160.42,302,25734,156603,2075,0.98,-0.03,0.17,-2.18,-0.49,-1.2,-2.37,-78.35,-3.63,-3.57,-0.72,-3.58,-6.56,Sitting,,,41:00.9
41:01.0,456,543,814.5,826,403,1.54,650,1.97,20723.61,409,290,160.42,302,25734,175167,2365,0.99,-0.03,0.18,-0.27,1.83,-1.36,-2.12,-78.07,-3.59,-3.59,-0.79,-3.53,-6.57,Sitting,,,41:01.0
41:01.1,791,557,835.5,826,403,1.54,650,1.97,20723.61,409,291,160.42,302,25734,194312,2656,1,-0.02,0.19,-0.53,1.09,-1.32,-1.83,-77.83,-3.59,-3.7,-0.86,-3.52,-6.67,Sitting,,,41:01.1
41:01.3,799,569,853.5,826,403,1.54,650,1.97,110.3,403,297,147.3,295,21697,0,0,0.99,-0.02,0.17,-1.92,1.12,0.4,-1.95,-78.4,-3.75,-3.81,-0.71,-3.68,-6.8,Sitting,,,41:01.3
41:01.4,582,570,855,826,404,1.53,652.67,1.97,110.3,403,300,147.3,295,21697,24464,300,1,-0.04,0.19,-1.51,1.11,-0.81,-2.83,-77.54,-3.87,-3.92,-0.71,-3.83,-6.87,Sitting,,,41:01.4
41:01.5,252,555,832.5,826,407,1.51,660.71,1.99,110.3,403,298,147.3,295,21697,47732,598,0.98,-0.03,0.17,-1.39,0.76,-1.67,-2.21,-78.17,-3.98,-4.08,-0.82,-3.9,-7.04,Sitting,,,41:01.5
41:01.6,588,556,834,826,406,1.52,658.02,1.98,110.3,403,293,147.3,295,21697,68045,891,1,-0.04,0.17,-0.69,4.18,1.34,-2.66,-78.75,-3.99,-3.81,-0.55,-3.94,-6.8,Sitting,,,41:01.6
41:01.8,794,567,850.5,826,404,1.53,652.67,1.97,110.3,403,292,147.3,295,21697,87773,1183,1,-0.05,0.19,-2.56,-0.22,-2.99,-3.4,-77.49,-4.24,-4.08,-0.83,-4.21,-7.02,Sitting,,,41:01.8
41:01.9,725,573,859.5,826,403,1.54,650,1.97,110.3,403,294,147.3,295,21697,108673,1477,0.97,-0.04,0.17,-2.88,1.57,-1.37,-2.63,-78.06,-4.53,-4.13,-0.9,-4.46,-7.09,Sitting,,,41:01.9
41:02.0,418,567,850.5,826,402,1.54,647.34,1.96,110.3,403,290,147.3,295,21697,127237,1767,0.99,-0.03,0.19,-2.73,1.45,-0.77,-2.5,-77.17,-4.8,-4.2,-0.9,-4.71,-7.12,Sitting,,,41:02.0
41:02.1,454,563,844.5,826,404,1.53,652.67,1.97,110.3,403,293,147.3,295,21697,147550,2060,0.99,-0.03,0.19,-2.65,0.11,-0.03,-2.39,-77.63,-5.06,-4.44,-0.8,-4.96,-7.37,Sitting,,,41:02.1
41:02.3,648,566,849,826,406,1.52,658.02,1.98,110.3,403,299,147.3,295,21697,171415,2359,0.99,-0.04,0.18,-2.65,-0.72,-1.34,-2.64,-78.1,-5.33,-4.78,-0.87,-5.22,-7.71,Sitting,,,41:02.3
41:02.4,623,568,852,826,408,1.51,663.41,1.99,110.3,403,300,147.3,295,21697,195879,2659,0.99,-0.03,0.17,-0.37,4.89,-3.76,-2.44,-78.64,-5.3,-4.42,-1.24,-5.19,-7.39,Sitting,,,41:02.4
41:02.5,295,558,837,826,408,1.51,663.41,1.99,18.73,405,296,147.63,295,21794,0,0,0.99,-0.03,0.2,-3.63,1.4,-0.76,-2.49,-77.06,-5.68,-4.49,-1.24,-5.55,-7.39,Sitting,,,41:02.5
41:02.6,287,549,823.5,826,408,1.51,663.41,1.99,18.73,405,297,147.63,295,21794,22673,297,0.98,-0.02,0.19,-1.82,0.83,-1.54,-1.85,-77.24,-5.84,-4.64,-1.33,-5.68,-7.54,Sitting,,,41:02.6
41:02.8,591,551,826.5,826,408,1.51,663.41,1.99,18.73,405,297,147.63,295,21794,45346,594,0.98,-0.03,0.17,-0.7,-0.68,0.11,-2.47,-78.25,-5.85,-4.97,-1.22,-5.72,-7.9,Sitting,,,41:02.8
41:02.9,767,557,835.5,826,408,1.51,663.41,1.99,18.73,405,300,147.63,295,21794,69810,894,0.99,-0.03,0.18,-0.61,0.34,-0.32,-2.56,-77.97,-5.86,-5.18,-1.16,-5.73,-8.09,Sitting,,,41:02.9
41:03.0,597,559,838.5,826,409,1.5,666.12,2,18.73,405,299,147.63,295,21794,93675,1193,0.99,-0.03,0.16,-2.27,0.33,-1.43,-2.51,-78.84,-6.07,-5.39,-1.24,-5.93,-8.32,Sitting,,,41:03.0
41:03.1,455,555,832.5,826,407,1.51,660.71,1.99,18.73,405,289,147.63,295,21794,111660,1482,0.98,-0.03,0.19,-2.04,1.26,-1.24,-2.5,-77.14,-6.26,-5.48,-1.3,-6.11,-8.34,Sitting,,,41:03.1
41:03.3,808,563,844.5,826,404,1.53,652.67,1.97,18.73,405,291,147.63,295,21794,130805,1773,0.99,-0.02,0.18,-0.99,1.19,-1.59,-1.96,-77.89,-6.31,-5.58,-1.4,-6.14,-8.47,Sitting,,,41:03.3
41:03.4,826,570,855,826,403,1.54,650,1.97,18.73,405,294,147.63,295,21794,151705,2067,0.99,-0.03,0.18,-3.21,-0.53,-0.89,-2.35,-78.23,-6.64,-5.9,-1.41,-6.47,-8.79,Sitting,,,41:03.4
41:03.5,472,567,850.5,826,405,1.53,655.34,1.98,18.73,405,296,147.63,295,21794,173785,2363,0.99,-0.03,0.18,-0.83,3.17,-0.21,-2.35,-78.15,-6.68,-5.75,-1.34,-6.5,-8.65,Sitting,,,41:03.5
41:03.6,425,564,846,826,407,1.51,660.71,1.99,18.73,405,295,147.63,295,21794,195274,2658,0.99,-0.04,0.18,-1.02,1.66,-0.69,-2.64,-77.89,-6.73,-5.79,-1.32,-6.57,-8.68,Sitting,,,41:03.6
41:03.8,664,566,849,826,406,1.52,658.02,1.98,20723.86,406,297,147.63,295,21793,0,0,0.99,-0.04,0.18,-1.95,0.45,-0.5,-2.8,-77.88,-6.91,-5.98,-1.29,-6.74,-8.86,Sitting,,,41:03.8
41:03.9,706,570,855,826,407,1.51,660.71,1.99,20723.86,406,296,147.63,295,21793,22080,296,0.99,-0.04,0.17,-1.4,0.77,-2.74,-3.07,-78.3,-7.01,-6.14,-1.53,-6.85,-9.02,Sitting,,,41:03.9
41:04.0,554,569,853.5,826,406,1.52,658.02,1.98,20723.86,406,298,147.63,295,21793,45348,594,0.97,-0.03,0.19,-2.89,0.79,1.43,-2.6,-77.43,-7.3,-6.29,-1.26,-7.11,-9.13,Sitting,,,41:04.0
41:04.1,381,565,847.5,826,407,1.51,660.71,1.99,20723.86,406,295,147.63,295,21793,66837,889,1,-0.05,0.18,-1.02,0.55,-0.49,-3.25,-77.72,-7.36,-6.47,-1.22,-7.19,-9.32,Sitting,,,41:04.1
41:04.3,428,562,843,826,406,1.52,658.02,1.98,20723.86,406,296,147.63,295,21793,88917,1185,0.98,-0.04,0.17,-2.38,-0.76,-1.47,-2.65,-78.31,-7.59,-6.81,-1.3,-7.39,-9.67,Sitting,,,41:04.3
41:04.4,537,561,841.5,826,407,1.51,660.71,1.99,20723.86,406,298,147.63,295,21793,112185,1483,0.98,-0.05,0.18,-2.85,-1.08,0.5,-3.48,-77.84,-7.88,-7.2,-1.14,-7.7,-10.03,Sitting,,,41:04.4
41:04.5,791,566,849,826,406,1.52,658.02,1.98,20723.86,406,291,147.63,295,21793,131330,1774,0.98,-0.04,0.17,-0.04,2.96,-0.34,-3.04,-78.33,-7.81,-7.08,-1.08,-7.62,-9.93,Sitting,,,41:04.5
41:04.6,533,565,847.5,826,402,1.54,647.34,1.96,20723.86,406,287,147.63,295,21793,148163,2061,1,-0.04,0.18,-2.77,-0.89,0.9,-3.07,-77.95,-8.09,-7.44,-0.87,-7.89,-10.26,Sitting,,,41:04.6
41:04.8,446,563,844.5,826,402,1.54,647.34,1.96,20723.86,406,294,147.63,295,21793,169063,2355,0.99,-0.05,0.16,-3.56,-0.1,-0.73,-3.4,-78.68,-8.46,-7.71,-0.86,-8.26,-10.54,Sitting,,,41:04.8
41:04.9,687,565,847.5,826,405,1.53,655.34,1.98,20723.86,406,297,147.63,295,21793,191736,2652,0.99,-0.05,0.18,-3.37,0.25,-2.53,-3.68,-77.56,-8.82,-7.93,-1.08,-8.61,-10.71,Sitting,,,41:04.9
41:05.0,718,568,852,826,406,1.52,658.02,1.98,20723.84,405,298,146.63,295,21499,0,0,0.98,-0.04,0.18,-4.88,1.61,-1.77,-3.12,-77.94,-9.35,-7.97,-1.2,-9.1,-10.77,Sitting,,,41:05.0
41:05.1,449,566,849,826,407,1.51,660.71,1.99,20723.84,405,297,146.63,295,21499,22673,297,1,-0.05,0.18,-2.76,4.99,-1.82,-3.41,-77.66,-9.63,-7.6,-1.33,-9.38,-10.4,Sitting,,,41:05.1
41:05.3,615,567,850.5,826,408,1.51,663.41,1.99,20723.84,405,297,146.63,295,21499,45346,594,0.99,-0.04,0.2,-2.64,1.03,-2.26,-2.58,-76.82,-9.89,-7.72,-1.52,-9.6,-10.49,Sitting,,,41:05.3
41:05.4,764,571,856.5,826,407,1.51,660.71,1.99,20723.84,405,295,146.63,295,21499,66835,889,0.98,-0.04,0.17,-2.06,0.49,-0.17,-2.7,-78.52,-10.08,-7.91,-1.44,-9.78,-10.74,Sitting,,,41:05.4
41:05.5,761,574,861,826,406,1.52,658.02,1.98,20723.84,405,297,146.63,295,21499,89508,1186,1,-0.05,0.19,-2.03,1.24,-1.17,-3.28,-77.41,-10.26,-8.01,-1.49,-9.98,-10.78,Sitting,,,41:05.5
41:05.6,463,572,858,826,407,1.51,660.71,1.99,20723.84,405,295,146.63,295,21499,110997,1481,0.98,-0.04,0.2,-1.76,0.01,-2.47,-3.07,-76.66,-10.41,-8.26,-1.7,-10.12,-10.99,Sitting,,,41:05.6
41:05.8,440,570,855,826,408,1.51,663.41,1.99,20723.84,405,298,146.63,295,21499,134265,1779,0.98,-0.03,0.19,-1.24,1.79,-0.47,-2.31,-77.35,-10.5,-8.28,-1.66,-10.17,-11.05,Sitting,,,41:05.8
41:05.9,753,573,859.5,826,409,1.5,666.12,2,20723.84,405,301,146.63,295,21499,159330,2080,1,-0.05,0.18,-2.73,0.03,-0.44,-3.58,-77.59,-10.77,-8.53,-1.61,-10.48,-11.3,Sitting,,,41:05.9
41:06.0,560,573,859.5,826,409,1.5,666.12,2,20723.84,405,299,146.63,295,21499,183195,2379,0.98,-0.04,0.19,-0.33,2.33,-1.89,-2.92,-77.5,-10.74,-8.49,-1.75,-10.43,-11.25,Sitting,,,41:06.0
41:06.1,405,570,855,826,409,1.5,666.12,2,20723.84,405,297,146.63,295,21499,205868,2676,1,-0.04,0.19,-2.74,0.82,-1.36,-2.81,-77.25,-11.01,-8.64,-1.82,-10.68,-11.38,Sitting,,,41:06.1
41:06.3,706,572,858,826,409,1.5,666.12,2,20723.58,407,299,151.57,297,22972,0,0,0.97,-0.04,0.19,-1.89,1.4,-0.47,-2.7,-77.43,-11.18,-8.71,-1.78,-10.84,-11.46,Sitting,,,41:06.3
41:06.4,841,577,865.5,841,409,1.5,666.12,2,20723.58,407,298,151.57,297,22972,23268,298,1,-0.05,0.19,-2.26,-0.63,2,-3.23,-77.53,-11.39,-9.04,-1.43,-11.07,-11.78,Sitting,,,41:06.4
41:06.5,473,575,862.5,841,407,1.51,660.71,1.99,20723.58,407,294,151.57,297,22972,44168,592,0.98,-0.05,0.18,-1.21,0.66,-2.47,-3.51,-77.49,-11.47,-9.21,-1.65,-11.16,-11.94,Sitting,,,41:06.5
41:06.6,545,575,862.5,841,406,1.52,658.02,1.98,20723.58,407,296,151.57,297,22972,66248,888,0.98,-0.04,0.18,-2.45,1.6,1.32,-3.17,-77.85,-11.71,-9.26,-1.38,-11.37,-12,Sitting,,,41:06.6
41:06.8,720,577,865.5,841,408,1.51,663.41,1.99,20723.58,407,299,151.57,297,22972,90113,1187,1,-0.06,0.18,-1.69,-0.58,-0.68,-3.88,-77.5,-11.85,-9.58,-1.37,-11.53,-12.3,Sitting,,,41:06.8
41:06.9,690,579,868.5,841,409,1.5,666.12,2,20723.58,407,300,151.57,297,22972,114577,1487,0.98,-0.05,0.19,-3.5,1.63,-2.83,-3.59,-76.83,-12.22,-9.63,-1.62,-11.88,-12.32,Sitting,,,41:06.9
41:07.0,375,575,862.5,841,408,1.51,663.41,1.99,20723.58,407,290,151.57,297,22972,133141,1777,0.99,-0.05,0.2,-4.03,1.83,-1.92,-3.23,-76.38,-12.66,-9.65,-1.77,-12.28,-12.32,Sitting,,,41:07.0
41:07.1,726,578,867,841,405,1.53,655.34,1.98,20723.58,407,291,151.57,297,22972,152286,2068,0.98,-0.04,0.19,-0.73,1.35,-1.71,-2.98,-77.31,-12.68,-9.73,-1.88,-12.29,-12.43,Sitting,,,41:07.1
41:07.3,909,583,874.5,909,404,1.53,652.67,1.97,20723.58,407,293,151.57,297,22972,172599,2361,0.99,-0.05,0.18,-0.92,-0.3,-0.24,-3.3,-77.92,-12.73,-10.02,-1.81,-12.35,-12.74,Sitting,,,41:07.3
41:07.4,424,580,870,909,402,1.54,647.34,1.96,20723.58,407,288,151.57,297,22972,190007,2649,0.98,-0.05,0.18,-1.35,1.51,-1.69,-3.56,-77.68,-12.83,-10.08,-1.93,-12.46,-12.79,Sitting,,,41:07.4
41:07.5,617,581,871.5,909,402,1.54,647.34,1.96,20724.01,406,287,143.82,293,20683,0,0,0.99,-0.05,0.19,-1.39,2.05,-1.27,-3.28,-77.34,-12.93,-10.07,-1.99,-12.54,-12.77,Sitting,,,41:07.5
41:07.6,841,585,877.5,909,401,1.55,644.69,1.96,20724.01,406,287,143.82,293,20683,16833,287,0.98,-0.04,0.17,-2.18,-1.01,-0.85,-3.05,-78.04,-13.13,-10.45,-2,-12.73,-13.15,Sitting,,,41:07.6
41:07.8,823,588,882,909,400,1.56,642.05,1.96,20724.01,406,288,143.82,293,20683,34241,575,0.98,-0.05,0.17,-1.47,-0.37,0.39,-3.67,-77.93,-13.25,-10.75,-1.85,-12.86,-13.44,Sitting,,,41:07.8
41:07.9,331,584,876,909,400,1.56,642.05,1.96,20724.01,406,284,143.82,293,20683,49361,859,0.99,-0.06,0.16,-1.56,1.3,-1.36,-4.17,-78.42,-13.37,-10.84,-1.92,-13.01,-13.54,Sitting,,,41:07.9
41:08.0,635,585,877.5,909,401,1.55,644.69,1.96,20724.01,406,288,143.82,293,20683,66769,1147,0.99,-0.05,0.17,-1.28,2.79,-2.66,-3.4,-78.14,-13.47,-10.74,-2.15,-13.06,-13.43,Sitting,,,41:08.0
41:08.2,727,587,880.5,909,401,1.55,644.69,1.96,20724.01,406,290,143.82,293,20683,85333,1437,0.99,-0.05,0.19,-2.98,1.36,-0.88,-3.19,-77.1,-13.77,-10.82,-2.17,-13.35,-13.47,Sitting,,,41:08.2
41:08.3,485,586,879,909,401,1.55,644.69,1.96,20724.01,406,290,143.82,293,20683,103897,1727,0.99,-0.05,0.2,-1.4,-0.82,-1.38,-3.27,-76.43,-13.88,-11.17,-2.24,-13.45,-13.78,Sitting,,,41:08.3
41:08.4,364,583,874.5,909,403,1.54,650,1.97,20724.01,406,291,143.82,293,20683,123042,2018,0.98,-0.05,0.17,-1.93,-0.94,0.05,-3.44,-78.17,-14.05,-11.54,-2.13,-13.62,-14.21,Sitting,,,41:08.4
41:08.5,648,584,876,909,406,1.52,658.02,1.98,20724.01,406,297,143.82,293,20683,145715,2315,1,-0.05,0.16,-1.86,2.43,-0.98,-3.44,-79.13,-14.21,-11.49,-2.16,-13.78,-14.2,Sitting,,,41:08.5
41:08.7,574,583,874.5,909,406,1.52,658.02,1.98,20724.01,406,294,143.82,293,20683,166615,2609,0.99,-0.05,0.18,-2.83,2.78,-2.73,-3.41,-77.77,-14.5,-11.39,-2.4,-14.06,-14.05,Sitting,,,41:08.7
41:08.8,214,579,868.5,909,404,1.53,652.67,1.97,132.93,402,291,136.29,290,18575,0,0,0.98,-0.04,0.16,-3.93,2.13,-0.86,-2.83,-78.9,-14.92,-11.38,-2.41,-14.43,-14.08,Sitting,,,41:08.8
41:08.9,532,578,867,909,406,1.52,658.02,1.98,132.93,402,294,136.29,290,18575,20900,294,0.98,-0.04,0.18,-0.76,0.12,-0.64,-2.95,-77.59,-14.94,-11.61,-2.39,-14.46,-14.25,Sitting,,,41:08.9
41:09.0,488,577,865.5,909,412,1.48,674.3,2.01,132.93,402,308,136.29,290,18575,50228,602,0.99,-0.06,0.16,-5.21,-3.79,1.33,-3.73,-78.58,-15.52,-12.33,-2.13,-15.05,-14.98,Sitting,,,41:09.0
41:09.2,446,575,862.5,909,415,1.47,682.57,2.03,132.93,402,306,136.29,290,18575,78328,908,0.99,-0.06,0.16,-1.95,0.8,-1.06,-3.95,-78.65,-15.69,-12.48,-2.16,-15.22,-15.13,Sitting,,,41:09.2
41:09.3,296,572,858,909,415,1.47,682.57,2.03,132.93,402,303,136.29,290,18575,104601,1211,0.99,-0.06,0.16,-1.44,2.34,-4.44,-3.75,-78.71,-15.8,-12.44,-2.62,-15.32,-15.09,Sitting,,,41:09.3
41:09.4,772,574,861,909,414,1.47,679.8,2.02,132.93,402,302,136.29,290,18575,130269,1513,0.98,-0.04,0.18,-2.19,2.08,-2.55,-3.09,-77.9,-16.01,-12.43,-2.84,-15.49,-15.05,Sitting,,,41:09.4
41:09.5,717,576,864,909,413,1.48,677.05,2.02,132.93,402,305,136.29,290,18575,157758,1818,0.98,-0.04,0.18,-2.08,-0.75,1.2,-3.18,-77.91,-16.2,-12.77,-2.6,-15.68,-15.38,Sitting,,,41:09.5
41:09.7,536,576,864,909,410,1.5,668.84,2,132.93,402,298,136.29,290,18575,181026,2116,0.99,-0.06,0.18,-0.11,-0.33,1.2,-3.96,-77.45,-16.14,-13.07,-2.35,-15.65,-15.64,Sitting,,,41:09.7
41:09.8,531,575,862.5,909,409,1.5,666.12,2,132.93,402,298,136.29,290,18575,204294,2414,1,-0.06,0.17,-0.77,1.26,-2.11,-3.85,-78.44,-16.17,-13.16,-2.51,-15.67,-15.77,Sitting,,,41:09.8
41:09.9,856,578,867,909,410,1.5,668.84,2,132.93,402,303,136.29,290,18575,230567,2717,0.99,-0.04,0.17,-2.25,4.15,-2.76,-2.85,-78.68,-16.38,-12.89,-2.76,-15.84,-15.52,Sitting,,,41:09.9
41:10.0,621,579,868.5,909,410,1.5,668.84,2,20723.64,411,302,160.07,301,25622,0,0,0.99,-0.04,0.19,-2.31,1.92,-1.27,-3,-77.38,-16.6,-12.9,-2.82,-16.05,-15.48,Sitting,,,41:10.0
41:10.2,400,577,865.5,909,411,1.49,671.57,2.01,20723.64,411,298,160.07,301,25622,23268,298,0.97,-0.04,0.18,-0.82,-1.48,-0.48,-3.14,-77.74,-16.63,-13.34,-2.78,-16.09,-15.92,Sitting,,,41:10.2
41:10.3,613,577,865.5,909,410,1.5,668.84,2,20723.64,411,301,160.07,301,25622,48333,599,1,-0.06,0.16,-1.53,-0.79,1.59,-3.96,-78.48,-16.75,-13.69,-2.48,-16.24,-16.28,Sitting,,,41:10.3
41:10.4,866,580,870,909,410,1.5,668.84,2,20723.64,411,302,160.07,301,25622,74001,901,1,-0.06,0.16,-1.24,1.65,-2.47,-3.98,-78.66,-16.84,-13.74,-2.69,-16.33,-16.33,Sitting,,,41:10.4
41:10.5,535,580,870,909,409,1.5,666.12,2,20723.64,411,299,160.07,301,25622,97866,1200,0.98,-0.05,0.16,-2.98,4.15,-2.34,-3.43,-78.68,-17.15,-13.46,-2.89,-16.6,-16.07,Sitting,,,41:10.5
41:10.7,407,578,867,909,410,1.5,668.84,2,20723.64,411,300,160.07,301,25622,122330,1500,0.99,-0.05,0.19,-2.33,1.19,-1.34,-3.42,-77.38,-17.37,-13.57,-2.96,-16.81,-16.12,Sitting,,,41:10.7
41:10.8,809,580,870,909,411,1.49,671.57,2.01,20723.64,411,304,160.07,301,25622,149210,1804,0.98,-0.06,0.18,-1.32,-2.63,-0.23,-4,-77.72,-17.46,-14.15,-2.88,-16.93,-16.69,Sitting,,,41:10.8
41:10.9,566,580,870,909,412,1.48,674.3,2.01,20723.64,411,305,160.07,301,25622,176699,2109,1,-0.06,0.15,-2.09,-0.15,1.02,-4.07,-79.3,-17.66,-14.42,-2.66,-17.11,-17.02,Sitting,,,41:10.9
41:11.0,364,578,867,909,412,1.48,674.3,2.01,20723.64,411,296,160.07,301,25622,198779,2405,1,-0.06,0.16,-3.02,2.26,-3.39,-3.99,-78.62,-17.97,-14.39,-2.98,-17.41,-16.96,Sitting,,,41:11.0
41:11.2,625,578,867,909,411,1.49,671.57,2.01,20723.64,411,300,160.07,301,25622,223243,2705,0.98,-0.05,0.18,-3.34,4.41,-2.54,-3.19,-77.48,-18.32,-14.08,-3.2,-17.71,-16.62,Sitting,,,41:11.2
41:11.3,791,581,871.5,909,412,1.48,674.3,2.01,20723.63,410,305,158.34,301,25072,0,0,0.99,-0.04,0.19,-2.13,0.71,-0.32,-3.14,-77.36,-18.51,-14.24,-3.15,-17.9,-16.77,Sitting,,,41:11.3
41:11.4,481,580,870,909,412,1.48,674.3,2.01,20723.63,410,300,158.34,301,25072,24464,300,0.99,-0.05,0.18,-1.29,-1.8,0.33,-3.57,-77.71,-18.6,-14.72,-3.01,-18,-17.24,Sitting,,,41:11.4
41:11.5,504,583,874.5,909,412,1.48,674.3,2.01,20723.63,410,297,158.34,301,25072,47137,597,1,-0.06,0.16,-2.2,0.03,-1.52,-3.92,-78.86,-18.81,-14.97,-3.1,-18.21,-17.53,Sitting,,,41:11.5
41:11.7,830,590,885,909,410,1.5,668.84,2,20723.63,410,300,158.34,301,25072,71601,897,0.99,-0.05,0.16,-1.81,1.9,-2.01,-3.16,-79.05,-18.97,-14.98,-3.25,-18.33,-17.55,Sitting,,,41:11.7
41:11.8,703,594,891,909,411,1.49,671.57,2.01,20723.63,410,302,158.34,301,25072,97269,1199,0.98,-0.04,0.17,-1.18,-1.41,-0.63,-3.04,-78.1,-19.04,-15.41,-3.23,-18.4,-17.92,Sitting,,,41:11.8
41:11.9,263,593,889.5,909,412,1.48,674.3,2.01,20723.63,410,300,158.34,301,25072,121733,1499,0.99,-0.06,0.17,-0.28,-0.28,1.02,-4,-78.28,-19.01,-15.7,-3,-18.41,-18.2,Sitting,,,41:11.9
41:12.0,624,592,888,909,412,1.48,674.3,2.01,20723.63,410,302,158.34,301,25072,147401,1801,1.01,-0.06,0.13,-2.31,-1.11,-1.24,-4.02,-80.18,-19.23,-16.1,-3.06,-18.62,-18.66,Sitting,,,41:12.0
41:19.0,199,199,298.5,199,413,1.48,677.05,2.02,0,0,303,0,0,0,52546,606,1.01,-0.02,0.12,5.26,17.82,-9.17,-1.48,-81.74,0.67,1.66,-0.75,0.58,-1.68,Left Fall while Sitting,,,41:19.0
41:19.2,439,319,478.5,439,414,1.47,679.8,2.02,0,0,303,0,0,0,78819,909,0.97,0.01,0.14,-5.74,-0.66,-5.13,-0.28,-80.11,0.04,1.33,-1.28,0.02,-1.92,Left Fall while Sitting,,,41:19.2
41:19.3,612,416,624,612,413,1.48,677.05,2.02,0,0,304,0,0,0,105699,1213,0.99,0.01,0.17,-0.56,8.76,-9.78,-0.09,-78.52,0.04,2.17,-2.39,0.03,-1.06,Left Fall while Sitting,,,41:19.3
41:19.4,533,445,667.5,612,412,1.48,674.3,2.01,0,0,303,0,0,0,131972,1516,1.01,0.04,0.21,7.16,15.05,-14.31,1.46,-76.5,0.98,3.76,-4.04,1,0.55,Left Fall while Sitting,,,41:19.4
41:19.5,473,451,676.5,612,411,1.49,671.57,2.01,0,0,303,0,0,0,158245,1819,0.97,0.08,0.2,13.19,21.56,-23.62,4.18,-75.88,2.66,6.15,-6.82,2.72,2.86,Left Fall while Sitting,,,41:19.5
41:19.6,362,436,654,612,411,1.49,671.57,2.01,0,0,301,0,0,0,183310,2120,0.92,0.14,0.2,-1.5,16.43,-15.48,8.03,-73.62,2.54,7.91,-8.61,2.76,4.64,Left Fall while Sitting,,,41:19.6
41:19.8,285,414,621,612,411,1.49,671.57,2.01,0,0,300,0,0,0,207774,2420,0.93,0.15,0.29,-8.47,11.4,-0.73,8.4,-68.92,1.58,9.05,-8.6,1.85,5.93,Left Fall while Sitting,,,41:19.8
41:19.9,229,391,586.5,612,411,1.49,671.57,2.01,0,0,302,0,0,0,233442,2722,0.96,0.13,0.35,-2.64,4.11,1.32,6.58,-67,1.32,9.31,-8.35,1.53,6.26,Left Fall while Sitting,,,41:19.9
41:20.0,389,391,586.5,612,411,1.49,671.57,2.01,20723.66,412,303,161.16,302,25970,0,0,0.93,0.13,0.33,5.07,-1.14,-4.24,6.92,-67.53,2.01,8.92,-8.77,2.21,5.87,Left Fall while Sitting,,,41:20.0
41:20.1,608,412,618,612,412,1.48,674.3,2.01,20723.66,412,303,161.16,302,25970,26273,303,0.93,0.16,0.3,14.89,5.07,-7.7,8.46,-68.14,3.93,9.31,-9.63,4.11,6.21,Left Fall while Sitting,,,41:20.1
41:20.3,788,447,670.5,788,412,1.48,674.3,2.01,20723.66,412,306,161.16,302,25970,54373,609,0.95,0.17,0.26,6.47,1.88,-4.92,9.38,-70.09,4.8,9.29,-10.14,4.98,6.11,Left Fall while Sitting,,,41:20.3
41:20.4,564,456,684,788,411,1.49,671.57,2.01,20723.66,412,304,161.16,302,25970,81253,913,0.93,0.18,0.28,5.04,2.47,-3.76,10.16,-68.55,5.5,9.35,-10.51,5.68,6.23,Left Fall while Sitting,,,41:20.4
41:20.5,423,454,681,788,411,1.49,671.57,2.01,20723.66,412,301,161.16,302,25970,106318,1214,0.92,0.19,0.31,-6.41,-3.98,0.22,10.74,-66.64,4.76,8.6,-10.38,5,5.59,Left Fall while Sitting,,,41:20.5
41:20.6,585,463,694.5,788,412,1.48,674.3,2.01,20723.66,412,303,161.16,302,25970,132591,1517,0.92,0.21,0.28,2.53,-1.43,-1.37,11.68,-67.81,5.15,8.17,-10.45,5.41,5.14,Left Fall while Sitting,,,41:20.6
41:20.8,844,488,732,844,412,1.48,674.3,2.01,20723.66,412,303,161.16,302,25970,158864,1820,0.95,0.18,0.27,0.82,2.05,0.99,9.93,-69.53,5.32,8.18,-10.23,5.5,5.07,Left Fall while Sitting,,,41:20.8
41:20.9,740,504,756,844,412,1.48,674.3,2.01,20723.66,412,305,161.16,302,25970,186353,2125,0.92,0.19,0.28,2.98,-2.73,-5.57,10.58,-68.44,5.76,7.6,-10.82,5.95,4.56,Left Fall while Sitting,,,41:20.9
41:21.0,523,505,757.5,844,412,1.48,674.3,2.01,20723.66,412,301,161.16,302,25970,211418,2426,0.94,0.22,0.29,9.9,13.21,-14.18,12.26,-67.08,7.06,9,-12.49,7.27,5.96,Left Fall while Sitting,,,41:21.0
41:21.1,490,504,756,844,413,1.48,677.05,2.02,20723.66,412,302,161.16,302,25970,237086,2728,0.91,0.25,0.26,12.23,19.76,-17.27,14.47,-66.74,8.66,11.22,-14.55,8.89,8.1,Left Fall while Sitting,,,41:21.1
41:21.3,470,502,753,844,414,1.47,679.8,2.02,20723.66,412,303,162.28,303,26334,0,0,0.9,0.3,0.35,3.07,5.19,-14.77,16.49,-61.14,9.11,11.62,-16.29,9.41,8.7,Left Fall while Sitting,,,41:21.3
41:21.4,547,505,757.5,844,412,1.48,674.3,2.01,20723.66,412,306,162.28,303,26334,28100,306,0.88,0.32,0.3,3.33,13.6,-19.22,18.53,-62.01,9.59,13.05,-18.57,9.95,10.05,Left Fall while Sitting,,,41:21.4
41:21.5,480,503,754.5,844,412,1.48,674.3,2.01,20723.66,412,306,162.28,303,26334,56200,612,0.83,0.38,0.33,-1.02,8.92,-17.91,22.51,-57.18,9.54,13.92,-20.71,10.05,11.07,Left Fall while Sitting,,,41:21.5
41:21.6,504,503,754.5,844,411,1.49,671.57,2.01,20723.66,412,300,162.28,303,26334,80664,912,0.81,0.39,0.36,2.39,11.56,-20.7,23.15,-55.17,9.9,15.11,-23.2,10.43,12.3,Left Fall while Sitting,,,41:21.6
41:21.8,683,511,766.5,844,411,1.49,671.57,2.01,20723.66,412,302,162.28,303,26334,106332,1214,0.77,0.45,0.35,1.57,4.49,-18.56,27.41,-51.9,10.17,15.42,-25.42,10.86,12.73,Left Fall while Sitting,,,41:21.8
41:21.9,507,511,766.5,844,399,1.56,639.42,1.95,20723.66,412,295,162.28,303,26334,127821,1509,0.97,0.5,0.36,-2.82,-2.91,-13.68,25.42,-55.78,9.89,14.81,-27.05,10.51,11.98,Left Fall while Sitting,,,41:21.9
41:22.0,572,513,769.5,844,400,1.56,642.05,1.96,20723.66,412,299,162.28,303,26334,151686,1808,0.75,0.51,0.38,3.05,-0.22,-11.53,30.41,-48.47,10.34,14.53,-28.39,11.14,12.01,Left Fall while Sitting,,,41:22.0
41:22.1,355,507,760.5,844,404,1.53,652.67,1.97,20723.66,412,295,162.28,303,26334,173175,2103,0.76,0.52,0.3,-3.92,-0.5,-7.08,31.66,-50.18,9.91,14.21,-29.18,10.78,11.64,Left Fall while Sitting,,,41:22.1
41:22.3,630,512,768,844,404,1.53,652.67,1.97,20723.66,412,300,162.28,303,26334,197639,2403,0.75,0.52,0.36,-5.66,6.46,-7.18,31.62,-48.23,9.28,14.77,-29.98,10.17,12.25,Left Fall while Sitting,,,41:22.3
41:22.4,640,516,774,844,406,1.52,658.02,1.98,20723.66,412,302,162.28,303,26334,223307,2705,0.71,0.52,0.36,-6.15,9.51,-8.69,32.35,-46.76,8.58,15.71,-30.97,9.53,13.21,Left Fall while Sitting,,,41:22.4
41:22.5,545,517,775.5,844,403,1.54,650,1.97,34.35,406,297,156.84,300,24597,0,0,0.75,0.54,0.33,-7.99,16.04,-7.39,32.89,-48.04,7.66,17.44,-31.78,8.67,14.82,Left Fall while Sitting,,,41:22.5
41:22.6,405,514,771,844,404,1.53,652.67,1.97,34.35,406,296,156.84,300,24597,22080,296,0.76,0.55,0.39,-2.11,9.99,-5.57,32.08,-46.7,7.47,18.43,-32.37,8.46,15.82,Left Fall while Sitting,,,41:22.6
41:22.7,510,514,771,844,406,1.52,658.02,1.98,34.35,406,300,156.84,300,24597,46544,596,0.64,0.56,0.49,7.86,7.29,-9.29,34.2,-39.1,8.52,19.08,-33.43,9.54,16.76,Left Fall while Sitting,,,41:22.7
41:22.9,814,523,784.5,844,406,1.52,658.02,1.98,34.35,406,298,156.84,300,24597,69812,894,0.54,0.57,0.46,15.03,-1.36,-6.26,38.35,-34.64,10.45,18.67,-34.1,11.56,16.53,Left Fall while Sitting,,,41:22.9
41:23.0,713,529,793.5,844,405,1.53,655.34,1.98,34.35,406,302,156.84,300,24597,95480,1196,0.62,0.58,0.39,1.75,3.19,-3.23,37.82,-39.9,10.74,18.82,-34.41,11.82,16.47,Left Fall while Sitting,,,41:23.0
41:23.1,623,531,796.5,844,405,1.53,655.34,1.98,34.35,406,299,156.84,300,24597,119345,1495,0.64,0.58,0.4,-6.89,3.21,2.02,36.82,-40.76,9.95,18.97,-34.06,11.02,16.58,Left Fall while Sitting,,,41:23.1
41:23.2,414,528,792,844,407,1.51,660.71,1.99,34.35,406,298,156.84,300,24597,142613,1793,0.67,0.59,0.41,-6.98,-0.77,5.08,36.39,-41.29,9.15,18.62,-33.33,10.24,16.23,Left Fall while Sitting,,,41:23.2
41:23.4,788,535,802.5,844,408,1.51,663.41,1.99,34.35,406,299,156.84,300,24597,166478,2092,0.68,0.56,0.4,-4.27,-2.75,7.7,34.86,-43.31,8.69,18.03,-32.27,9.73,15.58,Left Fall while Sitting,,,41:23.4
41:23.5,718,540,810,844,407,1.51,660.71,1.99,34.35,406,302,156.84,300,24597,192146,2394,0.7,0.55,0.4,-2.31,0.58,4.93,33.93,-44.08,8.47,17.85,-31.55,9.49,15.37,Left Fall while Sitting,,,41:23.5
41:23.6,648,543,814.5,844,408,1.51,663.41,1.99,34.35,406,302,156.84,300,24597,217814,2696,0.71,0.57,0.41,-6.78,0.34,7.53,34.15,-43.96,7.7,17.65,-30.52,8.75,15.18,Left Fall while Sitting,,,41:23.6
41:23.7,422,540,810,844,408,1.51,663.41,1.99,20723.7,406,299,155.46,299,24166,0,0,0.72,0.49,0.4,-8.69,-7.69,10.81,30.29,-46.91,6.7,16.45,-29.09,7.64,13.92,Left Fall while Sitting,,,41:23.7
41:23.9,399,536,804,844,410,1.5,668.84,2,20723.7,406,304,155.46,299,24166,26880,304,0.78,0.5,0.39,-2.63,0.4,1.53,29.35,-49.42,6.44,16.25,-28.8,7.35,13.63,Left Fall while Sitting,,,41:23.9
41:24.0,618,538,807,844,412,1.48,674.3,2.01,20723.7,406,303,155.46,299,24166,53153,607,0.78,0.49,0.37,-5,1.4,0.38,29.03,-49.97,5.89,16.18,-28.66,6.81,13.53,Left Fall while Sitting,,,41:24.0
41:24.1,634,541,811.5,844,413,1.48,677.05,2.02,20723.7,406,306,155.46,299,24166,81253,913,0.75,0.49,0.41,-6.22,1.81,-1.4,29.36,-47.8,5.18,16.16,-28.73,6.15,13.6,Left Fall while Sitting,,,41:24.1
41:24.2,590,542,813,844,410,1.5,668.84,2,20723.7,406,302,155.46,299,24166,106921,1215,0.73,0.49,0.43,-3.73,7.6,-1.6,29.08,-46.92,4.79,16.85,-28.84,5.76,14.3,Left Fall while Sitting,,,41:24.2
41:24.4,425,539,808.5,844,410,1.5,668.84,2,20723.7,406,299,155.46,299,24166,130786,1514,0.71,0.5,0.43,-4.21,1.96,-2.86,30.56,-45.68,4.33,16.85,-29.09,5.38,14.35,Left Fall while Sitting,,,41:24.4
41:24.5,688,542,813,844,410,1.5,668.84,2,20723.7,406,302,155.46,299,24166,156454,1816,0.72,0.48,0.44,-1.98,2.98,-4.11,29.22,-46.08,4.15,16.97,-29.51,5.16,14.45,Left Fall while Sitting,,,41:24.5
41:24.6,806,548,822,844,409,1.5,666.12,2,20723.7,406,304,155.46,299,24166,183334,2120,0.72,0.5,0.44,3,2.23,-3.89,30.08,-45.59,4.6,17,-29.9,5.62,14.5,Left Fall while Sitting,,,41:24.6
41:24.7,630,550,825,844,409,1.5,666.12,2,20723.7,406,303,155.46,299,24166,209607,2423,0.73,0.51,0.39,0.54,1.32,-3.63,31.16,-47.11,4.74,16.92,-30.25,5.8,14.36,Left Fall while Sitting,,,41:24.7
41:24.9,423,547,820.5,844,410,1.5,668.84,2,20723.7,406,298,155.46,299,24166,232875,2721,0.7,0.52,0.41,-3.56,2.05,-3.1,32.04,-44.86,4.37,16.92,-30.54,5.47,14.45,Left Fall while Sitting,,,41:24.9
41:25.0,643,549,823.5,844,410,1.5,668.84,2,20723.62,410,300,160.42,302,25732,0,0,0.71,0.52,0.42,-2.85,3.13,-4.44,31.51,-45.22,4.08,17.06,-30.99,5.18,14.57,Left Fall while Sitting,,,41:25.0
41:25.1,745,553,829.5,844,409,1.5,666.12,2,20723.62,410,301,160.42,302,25732,25065,301,0.68,0.52,0.43,-0.89,3.69,-5.66,32.11,-43.89,4.04,17.28,-31.6,5.16,14.83,Left Fall while Sitting,,,41:25.1
41:25.2,726,556,834,844,408,1.51,663.41,1.99,20723.62,410,303,160.42,302,25732,51338,604,0.69,0.51,0.43,-2.44,3.46,-1.42,31.55,-44.63,3.81,17.46,-31.68,4.92,14.97,Left Fall while Sitting,,,41:25.2
41:25.4,365,553,829.5,844,407,1.51,660.71,1.99,20723.62,410,295,160.42,302,25732,72827,899,0.71,0.54,0.42,0.53,2.19,-1.16,32.72,-44.58,3.94,17.48,-31.73,5.09,15,Left Fall while Sitting,,,41:25.4
41:25.5,601,554,831,844,407,1.51,660.71,1.99,20723.62,410,296,160.42,302,25732,94907,1195,0.68,0.53,0.43,-1.97,6.24,-4.27,32.96,-43.33,3.77,18.01,-32.16,4.93,15.56,Left Fall while Sitting,,,41:25.5
41:25.6,689,556,834,844,405,1.53,655.34,1.98,20723.62,410,298,160.42,302,25732,118175,1493,0.68,0.54,0.43,-2.38,6.8,-4.6,32.89,-43.27,3.54,18.61,-32.63,4.72,16.13,Left Fall while Sitting,,,41:25.6
41:25.7,815,561,841.5,844,405,1.53,655.34,1.98,20723.62,410,301,160.42,302,25732,143240,1794,0.65,0.55,0.45,-3.05,5.73,-3.69,34.07,-40.81,3.23,19.07,-33,4.46,16.68,Left Fall while Sitting,,,41:25.7
41:25.9,437,559,838.5,844,405,1.53,655.34,1.98,20723.62,410,295,160.42,302,25732,164729,2089,0.65,0.54,0.45,-4.79,5.17,-2.98,33.77,-41.11,2.7,19.47,-33.27,3.94,17.05,Left Fall while Sitting,,,41:25.9
41:26.0,507,558,837,844,405,1.53,655.34,1.98,20723.62,410,296,160.42,302,25732,186809,2385,0.66,0.54,0.47,-4.51,5.62,-3.02,33.1,-41.1,2.21,19.92,-33.55,3.44,17.48,Left Fall while Sitting,,,41:26.0
41:26.1,626,559,838.5,844,406,1.52,658.02,1.98,20723.62,410,297,160.42,302,25732,209482,2682,0.64,0.54,0.47,-4.86,5.98,-1.83,33.58,-40.23,1.67,20.42,-33.68,2.95,17.99,Left Fall while Sitting,,,41:26.1
41:26.2,791,563,844.5,844,406,1.52,658.02,1.98,20723.54,406,302,153.35,298,23514,0,0,0.64,0.54,0.51,-2.15,1.31,-1.97,33,-39.23,1.47,20.33,-33.83,2.73,17.95,Left Fall while Sitting,,,41:26.2
41:26.4,538,562,843,844,405,1.53,655.34,1.98,20723.54,406,298,153.35,298,23514,23268,298,0.63,0.54,0.49,1.14,-0.68,-2.31,33.52,-39.37,1.68,20,-34.02,2.96,17.62,Left Fall while Sitting,,,41:26.4
41:26.5,422,560,840,844,405,1.53,655.34,1.98,20723.54,406,294,153.35,298,23514,44168,592,0.64,0.54,0.46,0.45,-1.15,-0.3,33.64,-40.44,1.81,19.61,-33.95,3.08,17.2,Left Fall while Sitting,,,41:26.5
41:26.6,493,559,838.5,844,405,1.53,655.34,1.98,20723.54,406,296,153.35,298,23514,66248,888,0.65,0.54,0.45,-3.34,1.73,1.42,33.73,-40.94,1.46,19.57,-33.68,2.75,17.15,Left Fall while Sitting,,,41:26.6
41:26.7,785,563,844.5,844,406,1.52,658.02,1.98,20723.54,406,299,153.35,298,23514,90113,1187,0.65,0.53,0.48,-5.73,0.34,6.53,32.6,-40.53,0.82,19.37,-32.77,2.09,16.97,Left Fall while Sitting,,,41:26.7
41:26.9,670,564,846,844,405,1.53,655.34,1.98,20723.54,406,298,153.35,298,23514,113381,1485,0.66,0.53,0.51,1.97,-7.45,12.23,31.94,-40.16,1.14,18.18,-31.14,2.37,15.85,Left Fall while Sitting,,,41:26.9
41:27.0,382,561,841.5,844,405,1.53,655.34,1.98,20723.54,406,295,153.35,298,23514,134870,1780,0.71,0.51,0.46,6.06,-9.66,5.16,30.64,-44.39,1.96,16.73,-30.4,3.11,14.28,Left Fall while Sitting,,,41:27.0
41:27.1,513,561,841.5,844,405,1.53,655.34,1.98,20723.54,406,295,153.35,298,23514,156359,2075,0.67,0.5,0.39,-0.03,-4.27,8.32,32.01,-45.01,2.03,15.94,-29.26,3.23,13.5,Left Fall while Sitting,,,41:27.1
41:27.2,774,564,846,844,406,1.52,658.02,1.98,20723.54,406,298,153.35,298,23514,179627,2373,0.7,0.49,0.4,-8.93,-12.04,15.47,30.39,-46.48,0.99,14.2,-27.24,2.17,11.77,Left Fall while Sitting,,,41:27.2
41:27.4,764,567,850.5,844,406,1.52,658.02,1.98,20723.54,406,300,153.35,298,23514,204091,2673,0.78,0.46,0.37,-10.61,-9.15,13.35,27.25,-51.52,-0.27,12.8,-25.46,0.83,10.23,Left Fall while Sitting,,,41:27.4
41:27.5,446,565,847.5,844,406,1.52,658.02,1.98,20723.53,405,296,150.39,296,22616,0,0,0.74,0.4,0.39,-21.75,-4.54,18.35,25.02,-51.3,-2.9,11.99,-23.09,-1.79,9.46,Left Fall while Sitting,,,41:27.5
41:27.6,462,564,846,844,408,1.51,663.41,1.99,20723.53,405,299,150.39,296,22616,23865,299,0.78,0.33,0.44,-28.71,-6.64,31.21,19.74,-53.15,-6.42,10.91,-19.09,-5.37,8.34,Left Fall while Sitting,,,41:27.6
41:27.7,695,565,847.5,844,409,1.5,666.12,2,20723.53,405,300,150.39,296,22616,48329,599,0.88,0.25,0.48,-10.47,-15.7,29.98,13.56,-56.6,-7.66,8.69,-15.24,-6.81,6.08,Left Fall while Sitting,,,41:27.7
41:27.9,632,566,849,844,408,1.51,663.41,1.99,20723.53,405,300,150.39,296,22616,72793,899,0.88,0.2,0.41,-3.38,-17.44,20.73,10.91,-61.11,-8.01,6.26,-12.55,-7.26,3.57,Left Fall while Sitting,,,41:27.9
41:28.0,368,564,846,844,408,1.51,663.41,1.99,20723.53,405,298,150.39,296,22616,96061,1197,0.94,0.18,0.36,2.92,-10.92,11.48,9.72,-65.3,-7.57,4.64,-11.01,-6.88,1.84,Left Fall while Sitting,,,41:28.0
41:28.1,464,562,843,844,408,1.51,663.41,1.99,20723.53,405,299,150.39,296,22616,119926,1496,0.91,0.14,0.3,2.83,-9.23,5.97,7.86,-68.51,-7.15,3.23,-10.16,-6.55,0.36,Left Fall while Sitting,,,41:28.1
41:28.2,669,564,846,844,408,1.51,663.41,1.99,20723.53,405,298,150.39,296,22616,143194,1794,0.94,0.14,0.28,-4.85,-6.44,6.35,7.37,-69.91,-7.68,2.19,-9.28,-7.08,-0.7,Left Fall while Sitting,,,41:28.2
41:28.4,677,565,847.5,844,409,1.5,666.12,2,20723.53,405,301,150.39,296,22616,168259,2095,0.95,0.12,0.29,-4.47,-7.27,3.05,6.29,-70.03,-8.17,1.03,-8.79,-7.59,-1.82,Left Fall while Sitting,,,41:28.4
41:28.5,306,562,843,844,409,1.5,666.12,2,20723.53,405,298,150.39,296,22616,191527,2393,0.97,0.13,0.29,-5.1,-6.28,3.71,7.03,-70.18,-8.74,-0.01,-8.23,-8.11,-2.82,Left Fall while Sitting,,,41:28.5
41:28.6,700,564,846,844,409,1.5,666.12,2,20723.53,405,299,150.39,296,22616,215392,2692,0.98,0.11,0.28,-3.46,-10.96,-3.86,5.61,-71.17,-9.1,-1.63,-8.62,-8.51,-4.41,Left Fall while Sitting,,,41:28.6
41:28.7,629,564,846,844,409,1.5,666.12,2,20723.59,408,299,154.68,299,23924,0,0,0.94,0.13,0.29,-1.24,-1.71,-12.61,6.98,-69.49,-9.19,-2.09,-10.08,-8.54,-4.79,Left Fall while Sitting,,,41:28.7
41:28.9,599,565,847.5,844,409,1.5,666.12,2,20723.59,408,299,154.68,299,23924,23865,299,1,0.18,0.24,19.77,15.3,-19.99,9.39,-71.69,-6.66,-0.44,-12.46,-6.02,-3.29,Left Fall while Sitting,,,41:28.9
41:29.0,458,563,844.5,844,409,1.5,666.12,2,20723.59,408,301,154.68,299,23924,48930,600,0.92,0.21,0.22,11.11,26.91,-23.85,11.73,-70.21,-5.2,2.67,-15.35,-4.53,-0.24,Left Fall while Sitting,,,41:29.0
41:29.1,461,562,843,844,410,1.5,668.84,2,20723.59,408,299,154.68,299,23924,72795,899,0.87,0.21,0.31,-35.66,-24.16,7.83,11.93,-65.48,-9.63,-0.62,-14.26,-8.76,-3.22,Left Fall while Sitting,,,41:29.1
41:29.2,545,562,843,844,408,1.51,663.41,1.99,20723.59,408,297,154.68,299,23924,95468,1196,0.94,0.23,0.34,-9.94,16.79,-8.76,12.31,-64.89,-10.8,1.23,-15.26,-9.88,-1.42,Left Fall while Sitting,,,41:29.2
41:29.4,353,559,838.5,844,408,1.51,663.41,1.99,20723.59,408,298,154.68,299,23924,118736,1494,0.88,0.22,0.26,-14.29,-10.23,6.08,12.74,-67.18,-12.53,-0.32,-14.39,-11.52,-2.99,Left Fall while Sitting,,,41:29.4
41:29.5,500,559,838.5,844,408,1.51,663.41,1.99,20723.59,408,296,154.68,299,23924,140816,1790,0.94,0.19,0.27,-10.08,-12.54,10.55,10.53,-68.79,-13.73,-2.15,-12.96,-12.76,-4.81,Left Fall while Sitting,,,41:29.5
41:29.6,509,558,837,844,412,1.48,674.3,2.01,20723.59,408,302,154.68,299,23924,166484,2092,0.91,0.14,0.23,-20.82,-4.25,23.6,7.8,-71.98,-16.28,-2.94,-9.89,-15.32,-5.7,Left Fall while Sitting,,,41:29.6
41:29.7,643,559,838.5,844,413,1.48,677.05,2.02,20723.59,408,301,154.68,299,23924,191549,2393,0.91,0.06,0.27,-16.5,3.6,25.8,2.88,-71.45,-18.29,-2.73,-6.54,-17.44,-5.48,Left Fall while Sitting,,,41:29.7
41:29.9,479,558,837,844,412,1.48,674.3,2.01,20723.59,408,300,154.68,299,23924,216013,2693,0.95,0.01,0.25,-21.93,-13.09,24.44,0.12,-73.42,-20.96,-4.62,-3.38,-20.12,-7.37,Left Fall while Sitting,,,41:29.9
41:30.0,606,559,838.5,844,414,1.47,679.8,2.02,20723.62,410,301,155.26,299,24106,0,0,0.99,-0.07,0.31,-11.46,-7.06,25.35,-4.24,-70.77,-22.32,-5.75,-0.12,-21.6,-8.35,Left Fall while Sitting,,,41:30.0
41:30.1,648,560,840,844,414,1.47,679.8,2.02,20723.62,410,302,155.26,299,24106,25668,302,1.02,-0.1,0.25,13,13.11,5.52,-6.03,-73.65,-20.63,-4.37,0.67,-20.04,-7.14,Left Fall while Sitting,,,41:30.1
41:30.2,670,561,841.5,844,414,1.47,679.8,2.02,20723.62,410,303,155.26,299,24106,51941,605,0.96,-0.15,0.2,-2.57,15.13,-1.98,-9.21,-74.04,-20.88,-2.71,0.52,-20.41,-5.56,Left Fall while Sitting,,,41:30.2
41:30.4,607,561,841.5,844,410,1.5,668.84,2,20723.62,410,297,155.26,299,24106,74614,902,0.99,-0.12,0.3,-14.84,10.65,-5.42,-7.2,-70.26,-22.67,-1.63,-0.06,-22.05,-4.38,Left Fall while Sitting,,,41:30.4
