Datetime, ECGRaw , AvgECG , ampECG , MAX , GSRRaw , Resistance , GSR(kohm) , SCL , GSRRMS , GSRMAV , EMGRaw , EMGRMS , EMGMAV , EMGVAR , EMGSSI , IEMG , AccX , AccY, AccZ , GyroX , GyroY , GyroZ , Aroll , Apitch , Groll , Gpitch, Gyaw , Combroll , Combpitch,Features
58:09.3,613,613,919.5,613,228,3.49,286.79,1.11,0,0,277,0,0,0,22941,555,1.01,-0.03,0.04,-1.51,-0.23,-3.02,-2.52,-85.58,-0.31,-0.61,-0.45,-0.39,-4.01,Standing
58:09.5,418,515,772.5,613,229,3.47,288.41,1.12,0,0,277,0,0,0,34134,832,1.01,-0.02,0.02,-3.68,-2.25,-0.95,-1.99,-86.74,-0.69,-1.14,-0.47,-0.74,-4.56,Standing
58:09.6,317,449,673.5,613,230,3.45,290.04,1.12,0,0,277,0,0,0,45327,1109,1.01,-0.03,0,-2.16,-0.99,-0.3,-2.46,-86.54,-0.89,-1.5,-0.41,-0.95,-4.91,Standing
58:09.7,467,453,679.5,613,231,3.43,291.67,1.13,0,0,277,0,0,0,56520,1386,1.02,-0.04,0.02,-0.98,-0.87,-1.39,-2.62,-86.19,-0.94,-1.86,-0.48,-1,-5.23,Standing
58:09.8,424,447,670.5,613,232,3.41,293.3,1.13,0,0,277,0,0,0,67713,1663,1.02,-0.05,0.02,-2.28,2.01,-1.14,-3.27,-85.47,-1.15,-1.86,-0.52,-1.23,-5.2,Standing
58:10.0,605,474,711,613,234,3.37,296.58,1.14,0,0,277,0,0,0,78906,1940,1.01,-0.04,0.02,-1.95,3.31,-1.05,-2.75,-86.04,-1.32,-1.7,-0.56,-1.38,-5.07,Standing
58:10.1,699,506,759,699,234,3.37,296.58,1.14,0,0,276,0,0,0,89546,2216,1.03,-0.03,0.02,-2.08,0.69,-1.24,-2.2,-86.55,-1.51,-1.86,-0.61,-1.53,-5.24,Standing
58:10.2,567,513,769.5,699,235,3.35,298.22,1.15,0,0,277,0,0,0,100739,2493,1.02,-0.03,0.03,1.56,4.46,-2.13,-2.49,-85.98,-1.24,-1.55,-0.78,-1.29,-4.93,Standing
58:10.3,431,504,756,699,236,3.33,299.87,1.15,20724.02,231,277,105.8,277,11192,0,0,1.02,-0.03,0.02,-1.72,4.44,-2.4,-2.08,-86.43,-1.39,-1.25,-0.97,-1.42,-4.66,Standing
58:10.5,301,484,726,699,237,3.32,301.53,1.16,20724.02,231,275,105.8,277,11192,10089,275,1.02,-0.03,0.05,-2.79,-2.76,-2.44,-2.34,-85.26,-1.67,-1.85,-1.18,-1.69,-5.18,Standing
58:10.6,421,478,717,699,237,3.32,301.53,1.16,20724.02,231,275,105.8,277,11192,20178,550,1.01,-0.03,0.04,0.09,1.69,-2.23,-2.33,-85.32,-1.59,-1.88,-1.36,-1.62,-5.22,Standing
58:10.7,678,495,742.5,699,238,3.3,303.18,1.16,20724.02,231,276,105.8,277,11192,30818,826,1.02,-0.03,0.05,0,-0.73,0.12,-2.54,-84.92,-1.52,-2.23,-1.25,-1.56,-5.53,Standing
58:10.8,693,510,765,699,238,3.3,303.18,1.16,20724.02,231,276,105.8,277,11192,41458,1102,1.03,-0.04,0.02,0.08,-2.66,-0.24,-2.84,-85.86,-1.44,-2.81,-1.18,-1.49,-6.13,Standing
58:11.0,363,499,748.5,699,239,3.28,304.85,1.17,20724.02,231,275,105.8,277,11192,51547,1377,1.02,-0.04,0.01,-0.43,0.08,-2.1,-2.71,-86.2,-1.42,-3.05,-1.34,-1.47,-6.37,Standing
58:11.1,480,498,747,699,239,3.28,304.85,1.17,20724.02,231,275,105.8,277,11192,61636,1652,1.01,-0.03,0.01,-1.79,-0.54,-1.31,-2.22,-86.74,-1.57,-3.36,-1.41,-1.6,-6.7,Standing
58:11.2,704,511,766.5,704,240,3.26,306.51,1.17,20724.02,231,275,105.8,277,11192,71725,1927,1.02,-0.04,0.01,0.85,-0.21,-0.11,-2.74,-86.22,-1.4,-3.64,-1.32,-1.45,-6.95,Standing
58:11.3,659,520,780,704,241,3.24,308.18,1.18,20724.02,231,274,105.8,277,11192,81265,2201,1.02,-0.03,0.01,-2.42,-1.08,-2.08,-2.51,-86.41,-1.63,-4.03,-1.48,-1.66,-7.32,Standing
58:11.5,388,512,768,704,241,3.24,308.18,1.18,20724.02,231,274,105.8,277,11192,90805,2475,1.02,-0.03,0.02,-0.86,4.97,-2.61,-2.38,-86.26,-1.67,-3.66,-1.71,-1.69,-6.96,Standing
58:11.6,391,506,759,704,241,3.24,308.18,1.18,20724.1,239,274,100.17,274,10033,0,0,1.01,-0.02,0.03,-2.37,-0.63,-2.48,-1.97,-86.36,-1.89,-3.98,-1.92,-1.89,-7.28,Standing
58:11.7,662,514,771,704,241,3.24,308.18,1.18,20724.1,239,273,100.17,274,10033,8993,273,1.02,-0.02,0.03,-0.96,2.19,-1.69,-1.49,-86.67,-1.94,-3.96,-2.03,-1.92,-7.26,Standing
58:11.8,712,523,784.5,712,242,3.23,309.86,1.18,20724.1,239,274,100.17,274,10033,18533,547,1.02,-0.03,0.02,-1.04,-1.59,0.91,-2.18,-86.49,-2,-4.4,-1.82,-2.01,-7.69,Standing
58:12.0,413,518,777,712,241,3.24,308.18,1.18,20724.1,239,273,100.17,274,10033,27526,820,1.02,-0.02,0,-0.43,-1.69,-1.73,-1.87,-87.13,-1.98,-4.87,-1.94,-1.98,-8.16,Standing
58:12.1,318,509,763.5,712,242,3.23,309.86,1.18,20724.1,239,273,100.17,274,10033,36519,1093,1.01,-0.03,0,-1.15,1.78,-2.08,-2.13,-86.87,-2.06,-4.89,-2.1,-2.06,-8.17,Standing
58:12.2,576,512,768,712,242,3.23,309.86,1.18,20724.1,239,273,100.17,274,10033,45512,1366,1.01,-0.02,0,-1.06,0.92,-0.89,-1.93,-87.05,-2.12,-5.03,-2.11,-2.11,-8.31,Standing
58:12.3,632,517,775.5,712,242,3.23,309.86,1.18,20724.1,239,272,100.17,274,10033,53960,1638,1.02,-0.02,0.02,-1.35,-0.65,-0.67,-1.73,-86.92,-2.22,-5.36,-2.09,-2.2,-8.62,Standing
58:12.5,301,508,762,712,242,3.23,309.86,1.18,20724.1,239,272,100.17,274,10033,62408,1910,1.02,-0.02,0.01,-1.56,-2.08,-1.92,-1.91,-87.06,-2.34,-5.87,-2.24,-2.33,-9.12,Standing
58:12.6,292,500,750,712,242,3.23,309.86,1.18,20724.1,239,272,100.17,274,10033,70856,2182,1.02,-0.02,-0.01,-0.92,-0.26,-0.19,-1.87,-86.97,-2.39,-6.16,-2.16,-2.37,-9.39,Standing
58:12.7,634,505,757.5,712,243,3.21,311.54,1.19,20724.1,239,272,100.17,274,10033,79304,2454,1.02,-0.02,-0.02,-1.1,0.68,-2.21,-1.94,-86.56,-2.46,-6.32,-2.34,-2.44,-9.53,Standing
58:12.8,631,510,765,712,243,3.21,311.54,1.19,20724.14,242,272,93.67,272,8774,0,0,1.01,-0.03,-0.02,-1.73,-0.92,-0.69,-2.26,-86.44,-2.6,-6.68,-2.33,-2.59,-9.87,Standing
58:13.0,381,505,757.5,712,243,3.21,311.54,1.19,20724.14,242,271,93.67,272,8774,7905,271,1.02,-0.03,0,-1.69,6.82,-0.21,-2.49,-86.5,-2.74,-6.08,-2.26,-2.73,-9.3,Standing
58:13.1,276,498,747,712,243,3.21,311.54,1.19,20724.14,242,271,93.67,272,8774,15810,542,1.02,-0.01,-0.02,-2.73,0.18,-0.21,-0.88,-87.26,-3.01,-6.31,-2.18,-2.93,-9.55,Standing
58:13.2,479,497,745.5,712,244,3.19,313.22,1.19,20724.14,242,272,93.67,272,8774,24258,814,1.01,-0.02,0,-2.46,-3.89,-4.12,-1.82,-87.17,-3.25,-7.04,-2.6,-3.19,-10.25,Standing
58:13.3,717,504,756,717,244,3.19,313.22,1.19,20724.14,242,272,93.67,272,8774,32706,1086,1.01,-0.01,0,1.77,4.62,-2.32,-1.26,-87.74,-2.96,-6.72,-2.79,-2.89,-9.96,Standing
58:13.5,536,505,757.5,717,244,3.19,313.22,1.19,20724.14,242,271,93.67,272,8774,40611,1357,1.01,0,-0.01,1.32,-1.74,0.89,-0.82,-87.71,-2.73,-7.18,-2.58,-2.65,-10.4,Standing
58:13.6,281,498,747,717,245,3.18,314.91,1.2,20724.14,242,272,93.67,272,8774,49059,1629,1.02,-0.02,-0.03,0.71,-3.53,1.05,-1.95,-86.1,-2.57,-7.87,-2.35,-2.54,-11,Standing
58:13.7,477,498,747,717,245,3.18,314.91,1.2,20724.14,242,271,93.67,272,8774,56964,1900,1.04,-0.03,-0.02,0.07,2.55,-0.29,-2.17,-86.5,-2.49,-7.8,-2.29,-2.48,-10.95,Standing
58:13.8,774,505,757.5,774,246,3.16,316.6,1.2,20724.14,242,271,93.67,272,8774,64869,2171,1.02,-0.03,-0.02,-0.57,2.82,-2.27,-2.5,-86.18,-2.49,-7.7,-2.47,-2.49,-10.84,Standing
58:14.0,612,508,762,774,247,3.14,318.3,1.21,20724.14,242,272,93.67,272,8774,73317,2443,1.01,-0.02,-0.02,-0.92,2.66,-3.38,-1.55,-86.8,-2.54,-7.62,-2.8,-2.5,-10.79,Standing
58:14.1,356,504,756,774,246,3.16,316.6,1.2,20724.17,244,271,90.12,271,8121,0,0,1.01,0,-0.01,-0.38,1.42,0.47,-0.68,-87.6,-2.51,-7.69,-2.64,-2.44,-10.89,Standing
58:14.2,495,504,756,774,247,3.14,318.3,1.21,20724.17,244,272,90.12,271,8121,8448,272,1.03,-0.02,0,-0.46,2.71,-0.85,-1.72,-87.26,-2.5,-7.6,-2.65,-2.47,-10.79,Standing
58:14.3,709,509,763.5,774,248,3.13,320,1.21,20724.17,244,272,90.12,271,8121,16896,544,1.02,-0.01,0,-1.57,1.43,-2.4,-0.94,-88.03,-2.63,-7.67,-2.85,-2.56,-10.89,Standing
58:14.5,737,514,771,774,248,3.13,320,1.21,20724.17,244,271,90.12,271,8121,24801,815,1.02,-0.01,0,-0.6,-1.11,-0.25,-1.38,-87.62,-2.63,-8.06,-2.78,-2.58,-11.24,Standing
58:14.6,310,510,765,774,248,3.13,320,1.21,20724.17,244,272,90.12,271,8121,33249,1087,1.02,-0.02,0,-0.02,1.36,-0.51,-1.79,-87.21,-2.56,-8.14,-2.75,-2.53,-11.31,Standing
58:14.7,381,507,760.5,774,248,3.13,320,1.21,20724.17,244,272,90.12,271,8121,41697,1359,1.02,-0.02,0,-1.99,-0.1,-1.08,-1.96,-87.04,-2.74,-8.41,-2.79,-2.71,-11.55,Standing
58:14.8,591,508,762,774,249,3.11,321.71,1.22,20724.17,244,272,90.12,271,8121,50145,1631,1.02,-0.02,-0.01,-0.67,2.77,-1.87,-1.74,-87.18,-2.76,-8.31,-2.92,-2.72,-11.46,Standing
58:15.0,661,512,768,774,249,3.11,321.71,1.22,20724.17,244,272,90.12,271,8121,58593,1903,1.02,-0.01,0,-1.85,1.31,-0.84,-1.33,-87.65,-2.92,-8.4,-2.93,-2.85,-11.57,Standing
58:15.1,259,506,759,774,249,3.11,321.71,1.22,20724.17,244,272,90.12,271,8121,67041,2175,1.02,-0.01,0,-1.79,0.63,-2.27,-1.41,-87.59,-3.07,-8.56,-3.11,-3.01,-11.73,Standing
58:15.2,292,502,753,774,249,3.11,321.71,1.22,20724.17,244,272,90.12,271,8121,75489,2447,1.02,-0.01,0,-0.68,0.24,-2.08,-1.42,-87.56,-3.09,-8.78,-3.27,-3.02,-11.94,Standing
58:15.3,551,503,754.5,774,249,3.11,321.71,1.22,20724.21,248,272,91.61,271,8392,0,0,1.01,-0.02,-0.01,-1.16,0.28,-1.37,-1.51,-87.21,-3.16,-9,-3.34,-3.09,-12.13,Standing
58:15.5,697,507,760.5,774,249,3.11,321.71,1.22,20724.21,248,272,91.61,271,8392,8448,272,1.02,-0.02,-0.02,-0.91,0.6,0.02,-1.71,-86.97,-3.2,-9.17,-3.24,-3.14,-12.28,Standing
58:15.6,458,506,759,774,249,3.11,321.71,1.22,20724.21,248,272,91.61,271,8392,16896,544,1.03,-0.02,-0.01,-0.54,-0.03,-1.11,-1.61,-87.24,-3.2,-9.43,-3.28,-3.14,-12.54,Standing
58:15.7,216,500,750,774,249,3.11,321.71,1.22,20724.21,248,272,91.61,271,8392,25344,816,1.01,-0.02,-0.02,-1.89,2.06,-3.37,-1.59,-87.06,-3.37,-9.42,-3.61,-3.3,-12.52,Standing
58:15.8,425,499,748.5,774,249,3.11,321.71,1.22,20724.21,248,272,91.61,271,8392,33792,1088,1.01,-0.01,0,-2.1,0.57,-0.45,-1.09,-87.91,-3.56,-9.6,-3.56,-3.46,-12.73,Standing
58:16.0,694,502,753,774,249,3.11,321.71,1.22,20724.21,248,272,91.61,271,8392,42240,1360,1.01,-0.01,0,-1.71,0.56,-0.68,-1.42,-87.53,-3.71,-9.78,-3.55,-3.61,-12.89,Standing
58:16.1,484,502,753,774,249,3.11,321.71,1.22,20724.21,248,272,91.61,271,8392,50688,1632,1.02,-0.01,-0.01,-1.58,1.24,-0.88,-1,-87.86,-3.83,-9.87,-3.56,-3.72,-12.99,Standing
58:16.2,268,498,747,774,250,3.09,323.42,1.22,20724.21,248,272,91.61,271,8392,59136,1904,1.03,-0.02,-0.01,-2.43,0.44,-1.28,-1.68,-87.17,-4.07,-10.07,-3.62,-3.97,-13.15,Standing
58:16.3,485,498,747,774,250,3.09,323.42,1.22,20724.21,248,272,91.61,271,8392,67584,2176,1.02,-0.01,-0.02,-3.27,0.68,-3.54,-1.4,-87.11,-4.4,-10.23,-3.97,-4.28,-13.31,Standing
58:16.5,701,501,751.5,774,250,3.09,323.42,1.22,20724.21,248,272,91.61,271,8392,76032,2448,1.01,-0.01,-0.01,-2.68,2.39,-2.89,-1.14,-87.45,-4.67,-10.18,-4.23,-4.53,-13.27,Standing
58:16.6,481,501,751.5,774,251,3.08,325.13,1.23,20724.22,249,272,91.91,272,8447,0,0,1.02,-0.01,0,-1.39,2.37,-0.41,-0.88,-88.1,-4.77,-10.14,-4.18,-4.62,-13.26,Standing
58:16.7,278,497,745.5,774,251,3.08,325.13,1.23,20724.22,249,272,91.91,272,8447,8448,272,1.02,-0.01,0,-1.18,-0.75,0.05,-1.22,-87.73,-4.85,-10.48,-4.08,-4.71,-13.57,Standing
58:16.8,454,496,744,774,251,3.08,325.13,1.23,20724.22,249,272,91.91,272,8447,16896,544,1.03,-0.01,-0.01,-0.38,1.98,-0.91,-1.26,-87.66,-4.83,-10.48,-4.09,-4.69,-13.57,Standing
58:17.0,711,500,750,774,252,3.06,326.85,1.23,20724.22,249,272,91.91,272,8447,25344,816,1.01,0,-0.01,-0.13,1.17,-3.18,-0.81,-87.7,-4.78,-10.59,-4.39,-4.62,-13.67,Standing
58:17.1,658,502,753,774,252,3.06,326.85,1.23,20724.22,249,272,91.91,272,8447,33792,1088,1.01,0.01,0,-0.03,-0.57,-0.63,0.1,-87.74,-4.71,-10.91,-4.37,-4.52,-13.98,Standing
58:17.2,372,500,750,774,252,3.06,326.85,1.23,20724.22,249,272,91.91,272,8447,42240,1360,1.02,-0.01,-0.01,-1.94,-1.05,-1.18,-1.24,-87.51,-4.88,-11.29,-4.42,-4.74,-14.34,Standing
58:17.3,422,499,748.5,774,252,3.06,326.85,1.23,20724.22,249,272,91.91,272,8447,50688,1632,1.01,0,-0.01,-1.03,1.76,-0.34,-0.7,-87.83,-4.94,-11.32,-4.36,-4.77,-14.38,Standing
58:17.5,688,502,753,774,252,3.06,326.85,1.23,20724.22,249,272,91.91,272,8447,59136,1904,1.03,-0.01,-0.01,-1.54,1.6,-1.6,-1.1,-87.63,-5.07,-11.37,-4.47,-4.91,-14.42,Standing
58:17.6,528,502,753,774,253,3.04,328.57,1.24,20724.22,249,272,91.91,272,8447,67584,2176,1.03,-0.01,0,-2.61,-0.59,-1.98,-0.87,-88.02,-5.32,-11.7,-4.61,-5.14,-14.75,Standing
58:17.7,407,501,751.5,774,252,3.06,326.85,1.23,20724.22,249,272,91.91,272,8447,76032,2448,1.02,0,-0.01,-2.2,1.56,-0.97,-0.8,-88,-5.53,-11.75,-4.64,-5.34,-14.8,Standing
58:17.8,393,499,748.5,774,252,3.06,326.85,1.23,20724.25,251,272,91.91,272,8447,0,0,1.01,-0.01,-0.01,-2.01,-0.39,-0.07,-1.35,-87.39,-5.71,-12.05,-4.55,-5.53,-15.06,Standing
58:18.0,644,501,751.5,774,252,3.06,326.85,1.23,20724.25,251,272,91.91,272,8447,8448,272,1.02,-0.02,-0.02,-2.98,1,0.53,-1.54,-87.14,-6.01,-12.17,-4.38,-5.83,-15.17,Standing
58:18.1,542,502,753,774,252,3.06,326.85,1.23,20724.25,251,272,91.91,272,8447,16896,544,1.02,-0.01,-0.01,-4.27,6.02,-2.72,-1.05,-87.87,-6.47,-11.67,-4.62,-6.26,-14.72,Standing
58:18.2,307,499,748.5,774,252,3.06,326.85,1.23,20724.25,251,272,91.91,272,8447,25344,816,1.03,0,-0.01,-5.47,1.66,-0.56,-0.32,-87.96,-7.09,-11.72,-4.59,-6.82,-14.76,Standing
58:18.3,304,497,745.5,774,251,3.08,325.13,1.23,20724.25,251,272,91.91,272,8447,33792,1088,1.03,-0.01,0.01,-4.55,-0.85,-2.21,-1.34,-87.46,-7.59,-12.07,-4.77,-7.34,-15.09,Standing
58:18.5,682,499,748.5,774,251,3.08,325.13,1.23,20724.25,251,272,91.91,272,8447,42240,1360,1.01,-0.01,0.02,-2.12,1.56,-2.56,-0.91,-87.42,-7.78,-12.13,-4.99,-7.51,-15.14,Standing
58:18.6,654,501,751.5,774,251,3.08,325.13,1.23,20724.25,251,272,91.91,272,8447,50688,1632,1.01,0.01,0,-0.3,0.28,0.01,-0.15,-87.98,-7.75,-12.34,-4.89,-7.45,-15.37,Standing
58:18.7,317,499,748.5,774,250,3.09,323.42,1.22,20724.25,251,271,91.91,272,8447,58593,1903,1.03,-0.02,-0.01,-2.42,2.55,2.08,-1.78,-87.18,-7.98,-12.27,-4.54,-7.73,-15.27,Standing
58:18.8,372,497,745.5,774,250,3.09,323.42,1.22,20724.25,251,271,91.91,272,8447,66498,2174,1.02,-0.02,-0.01,-3.79,1.77,-1.47,-1.69,-87.12,-8.38,-12.3,-4.62,-8.12,-15.3,Standing
58:19.0,649,499,748.5,774,251,3.08,325.13,1.23,20724.25,251,271,91.91,272,8447,74403,2445,1.03,-0.01,0.01,-3.85,3.57,-2.18,-1.1,-87.72,-8.8,-12.11,-4.8,-8.49,-15.13,Standing
58:19.1,608,500,750,774,251,3.08,325.13,1.23,20724.24,251,271,90.72,271,8229,0,0,1.02,-0.01,0.02,-2.7,5.43,-2.48,-1.03,-87.27,-9.06,-11.68,-5.01,-8.74,-14.7,Standing
58:19.2,377,499,748.5,774,251,3.08,325.13,1.23,20724.24,251,271,90.72,271,8229,7905,271,1,-0.02,0.03,-2.98,0.62,-0.85,-1.5,-86.44,-9.36,-11.85,-5.01,-9.05,-14.84,Standing
58:19.3,331,497,745.5,774,251,3.08,325.13,1.23,20724.24,251,271,90.72,271,8229,15810,542,1.01,-0.02,0.02,-2.69,1.83,0.69,-1.47,-87.13,-9.63,-11.88,-4.83,-9.3,-14.89,Standing
58:19.5,549,497,745.5,774,251,3.08,325.13,1.23,20724.24,251,271,90.72,271,8229,23715,813,1.03,-0.02,0.03,-2.75,1.65,1.07,-1.82,-86.48,-9.9,-11.92,-4.6,-9.58,-14.9,Standing
58:19.6,702,500,750,774,252,3.06,326.85,1.23,20724.24,251,271,90.72,271,8229,31620,1084,1.03,-0.02,0.02,-0.72,1.92,-1.24,-1.74,-86.8,-9.92,-11.93,-4.65,-9.6,-14.92,Standing
58:19.7,434,499,748.5,774,252,3.06,326.85,1.23,20724.24,251,271,90.72,271,8229,39525,1355,1.02,-0.02,0.02,-1.38,1.65,-3.65,-1.55,-86.97,-10.03,-11.97,-5.01,-9.69,-14.97,Standing
58:19.8,312,497,745.5,774,252,3.06,326.85,1.23,20724.24,251,271,90.72,271,8229,47430,1626,1,0,0.02,-2.67,-0.98,0.5,-0.85,-87.32,-10.29,-12.35,-4.85,-9.91,-15.35,Standing
58:20.0,527,497,745.5,774,252,3.06,326.85,1.23,20724.24,251,271,90.72,271,8229,55335,1897,1.01,-0.02,0.02,-0.73,0.31,3.53,-1.49,-87.05,-10.31,-12.56,-4.31,-9.96,-15.54,Standing
58:20.1,704,500,750,774,252,3.06,326.85,1.23,20724.24,251,271,90.72,271,8229,63240,2168,1.04,-0.04,0.02,-2.49,-0.65,0.1,-2.58,-86.24,-10.56,-12.89,-4.2,-10.24,-15.82,Standing
58:20.2,429,499,748.5,774,251,3.08,325.13,1.23,20724.24,251,271,90.72,271,8229,71145,2439,1.03,-0.03,0.02,-1.59,3.26,-4.53,-2.12,-86.56,-10.68,-12.73,-4.67,-10.34,-15.68,Standing
58:20.3,266,496,744,774,251,3.08,325.13,1.23,20724.25,251,271,88.91,271,7904,0,0,1,-0.02,0.01,-3.04,-0.76,-2.69,-1.46,-87.25,-10.99,-13.07,-4.91,-10.61,-16.04,Standing
58:20.5,510,496,744,774,250,3.09,323.42,1.22,20724.25,251,271,88.91,271,7904,7905,271,1.01,-0.03,0.03,-1.94,1.66,0.72,-2.08,-86.27,-11.16,-13.12,-4.72,-10.8,-16.04,Standing
58:20.6,705,499,748.5,774,250,3.09,323.42,1.22,20724.25,251,271,88.91,271,7904,15810,542,1.03,-0.02,0.03,-1.99,1.64,-0.78,-1.73,-86.42,-11.34,-13.16,-4.72,-10.96,-16.09,Standing
58:20.7,440,498,747,774,249,3.11,321.71,1.22,20724.25,251,271,88.91,271,7904,23715,813,1.03,-0.02,0.02,-2.33,-0.42,-1.82,-1.69,-86.74,-11.56,-13.46,-4.85,-11.17,-16.39,Standing
58:20.8,481,498,747,774,250,3.09,323.42,1.22,20724.25,251,270,88.91,271,7904,31079,1083,1.01,-0.02,0.01,-1.4,1.15,-3.06,-1.81,-87.03,-11.67,-13.57,-5.13,-11.28,-16.51,Standing
58:21.0,551,498,747,774,249,3.11,321.71,1.22,20724.25,251,270,88.91,271,7904,38443,1353,1.01,-0.02,0.02,-3.05,0.4,-1.79,-1.72,-86.71,-11.98,-13.77,-5.26,-11.57,-16.69,Standing
58:21.1,691,500,750,774,250,3.09,323.42,1.22,20724.25,251,270,88.91,271,7904,45807,1623,1.02,-0.01,0.02,-3.32,3.4,-1.37,-1.27,-87.26,-12.33,-13.59,-5.33,-11.89,-16.54,Standing
58:21.2,410,499,748.5,774,249,3.11,321.71,1.22,20724.25,251,270,88.91,271,7904,53171,1893,1.02,-0.02,0.03,-3.14,2.65,-1.47,-1.58,-86.32,-12.65,-13.51,-5.42,-12.21,-16.42,Standing
58:21.3,378,498,747,774,250,3.09,323.42,1.22,20724.25,251,270,88.91,271,7904,60535,2163,1.01,-0.02,0.04,-2.85,0.92,-0.7,-1.57,-86.05,-12.94,-13.65,-5.41,-12.49,-16.54,Standing
58:21.5,605,499,748.5,774,250,3.09,323.42,1.22,20724.25,251,270,88.91,271,7904,67899,2433,1.02,-0.03,0.03,-1.61,1.62,-0.76,-2,-86.32,-13.07,-13.7,-5.4,-12.63,-16.6,Standing
58:21.6,613,500,750,774,250,3.09,323.42,1.22,20724.23,249,270,86.75,270,7525,0,0,1.02,-0.02,0.03,-2.06,0.69,-1.98,-1.57,-86.61,-13.26,-13.86,-5.55,-12.79,-16.77,Standing
58:21.7,352,499,748.5,774,251,3.08,325.13,1.23,20724.23,249,271,86.75,270,7525,7905,271,1.01,-0.01,0.02,-2.05,-0.63,-0.6,-1.22,-87.11,-13.45,-14.19,-5.53,-12.96,-17.1,Standing
58:21.8,397,497,745.5,774,251,3.08,325.13,1.23,20724.23,249,270,86.75,270,7525,15269,541,1.01,-0.02,0.01,-0.96,1.76,0.12,-1.73,-87.02,-13.5,-14.22,-5.41,-13.03,-17.13,Standing
58:22.0,629,499,748.5,774,252,3.06,326.85,1.23,20724.23,249,270,86.75,270,7525,22633,811,1.01,-0.03,0.02,-2.58,-2.91,0.08,-2.17,-86.59,-13.75,-14.84,-5.3,-13.29,-17.71,Standing
58:22.1,682,502,753,774,252,3.06,326.85,1.23,20724.23,249,270,86.75,270,7525,29997,1081,1.02,-0.02,0.02,-2.15,3.66,-1.51,-1.74,-86.84,-13.95,-14.63,-5.39,-13.46,-17.52,Standing
58:22.2,330,501,751.5,774,252,3.06,326.85,1.23,20724.23,249,271,86.75,270,7525,37902,1352,1.05,-0.02,0.02,-0.5,1.2,-0.4,-1.57,-86.86,-13.94,-14.73,-5.34,-13.45,-17.61,Standing
58:22.3,392,501,751.5,774,253,3.04,328.57,1.24,20724.23,249,270,86.75,270,7525,45266,1622,1.03,-0.03,0.01,-2.07,1.18,-3.85,-2.18,-86.7,-14.13,-14.83,-5.72,-13.65,-17.71,Standing
58:22.5,947,504,756,947,254,3.03,330.3,1.24,20724.23,249,271,86.75,270,7525,53171,1893,1,-0.02,0.02,-5.82,7.35,-4.6,-1.83,-86.65,-14.79,-14.16,-6.2,-14.27,-17.06,Standing
58:22.6,553,503,754.5,947,254,3.03,330.3,1.24,20724.23,249,270,86.75,270,7525,60535,2163,1,0,0.04,-5.2,1.82,-4.46,-0.86,-86.05,-15.37,-14.18,-6.66,-14.79,-17.06,Standing
58:22.7,247,499,748.5,947,254,3.03,330.3,1.24,20724.23,249,270,86.75,270,7525,67899,2433,1.02,-0.01,0.07,-3.11,0.67,-2.04,-1.09,-84.4,-15.69,-14.35,-6.82,-15.1,-17.15,Standing
58:22.8,441,500,750,947,254,3.03,330.3,1.24,20724.26,252,271,87.06,270,7579,0,0,1.01,0.01,0.04,3.52,6.57,-3.24,0.1,-85.81,-15.18,-13.78,-7.12,-14.57,-16.67,Standing
58:23.0,742,504,756,947,255,3.01,332.03,1.25,20724.26,252,271,87.06,270,7579,7905,271,1,0.02,0.05,-2.34,-4.18,-0.15,0.4,-85.66,-15.4,-14.56,-7.04,-14.77,-17.4,Standing
58:23.1,640,506,759,947,255,3.01,332.03,1.25,20724.26,252,271,87.06,270,7579,15810,542,1,0.01,0.05,-0.63,0.67,0.44,0.08,-85.65,-15.41,-14.72,-6.89,-14.79,-17.56,Standing
58:23.2,290,502,753,947,254,3.03,330.3,1.24,20724.26,252,270,87.06,270,7579,23174,812,1.01,0,0.03,-3.03,-1.57,3.3,-0.82,-86.56,-15.72,-15.17,-6.37,-15.13,-18.02,Standing
58:23.3,337,499,748.5,947,254,3.03,330.3,1.24,20724.26,252,270,87.06,270,7579,30538,1082,1.03,-0.02,0.03,-1.05,-2.72,2.23,-1.76,-86.52,-15.78,-15.76,-5.99,-15.22,-18.59,Standing
58:23.5,707,502,753,947,253,3.04,328.57,1.24,20724.26,252,270,87.06,270,7579,37902,1352,1.03,-0.02,0.04,-0.62,4.56,-2.9,-1.88,-85.79,-15.79,-15.44,-6.26,-15.23,-18.26,Standing
58:23.6,566,503,754.5,947,253,3.04,328.57,1.24,20724.26,252,270,87.06,270,7579,45266,1622,0.99,0.03,0.03,-1.08,-2.13,-3.73,0.9,-85.96,-15.86,-15.96,-6.63,-15.19,-18.76,Standing
58:23.7,300,499,748.5,947,252,3.06,326.85,1.23,20724.26,252,269,87.06,270,7579,52091,1891,1,-0.06,0.03,1.89,-7.05,4.1,-3.73,-84.7,-15.55,-17.09,-6.02,-15.08,-19.8,Standing
58:23.8,401,496,744,947,251,3.08,325.13,1.23,20724.26,252,269,87.06,270,7579,58916,2160,1.01,0.02,0,0.38,7.1,0.77,0.62,-87.19,-15.43,-16.45,-5.82,-14.79,-19.28,Standing
58:24.0,771,500,750,771,251,3.08,325.13,1.23,20724.26,252,269,87.06,270,7579,65741,2429,1.04,-0.02,0.01,-3.99,-6.03,-3.48,-1.85,-87,-15.86,-17.46,-6.16,-15.3,-20.24,Standing
58:24.1,524,502,753,771,250,3.09,323.42,1.22,20724.26,252,269,85.18,269,7255,0,0,1.02,-0.03,0.01,-0.68,1.16,-1.3,-2.25,-86.64,-15.88,-17.56,-6.22,-15.33,-20.32,Standing
58:24.2,247,497,745.5,771,250,3.09,323.42,1.22,20724.26,252,269,85.18,269,7255,6825,269,1.01,0.01,0.01,-3.03,5.82,-3.95,-0.22,-87.87,-16.18,-17.08,-6.62,-15.55,-19.91,Standing
58:24.3,327,494,741,771,249,3.11,321.71,1.22,20724.26,252,269,85.18,269,7255,13650,538,1.01,0,0.01,-3.35,-3.69,-0.05,-0.82,-87.85,-16.53,-17.79,-6.52,-15.9,-20.6,Standing
58:24.5,746,497,745.5,746,249,3.11,321.71,1.22,20724.26,252,269,85.18,269,7255,20475,807,1.02,-0.02,0.03,0.76,6.16,-1.05,-1.62,-86.37,-16.37,-17.27,-6.56,-15.78,-20.04,Standing
58:24.6,618,500,750,746,249,3.11,321.71,1.22,20724.26,252,269,85.18,269,7255,27300,1076,1.02,-0.01,0.01,-3.5,-3.05,-0.52,-0.89,-87.56,-16.74,-17.9,-6.52,-16.1,-20.69,Standing
58:24.7,215,496,744,746,248,3.13,320,1.21,20724.26,252,268,85.18,269,7255,33588,1344,1.01,-0.01,0.01,0.32,2.04,-0.31,-1.27,-87.42,-16.62,-17.9,-6.46,-16.01,-20.68,Standing
58:24.8,362,494,741,746,248,3.13,320,1.21,20724.26,252,268,85.18,269,7255,39876,1612,1.02,-0.02,0.04,-1.3,2.31,-0.48,-1.76,-85.92,-16.72,-17.86,-6.42,-16.12,-20.58,Standing
58:25.0,756,498,747,756,248,3.13,320,1.21,20724.26,252,268,85.18,269,7255,46164,1880,1.01,-0.02,0.01,-3.13,-2.27,1.23,-1.56,-87.36,-17.04,-18.39,-6.17,-16.42,-21.15,Standing
58:25.1,448,500,750,756,248,3.13,320,1.21,20724.26,252,268,85.18,269,7255,52452,2148,1.02,-0.02,0.01,-1.24,1.85,-2.13,-1.74,-87.2,-17.12,-18.41,-6.34,-16.51,-21.16,Standing
58:25.2,277,496,744,756,248,3.13,320,1.21,20724.26,252,268,85.18,269,7255,58740,2416,1.02,-0.03,0,-4.97,0.27,-0.59,-2.48,-86.51,-17.68,-18.63,-6.31,-17.07,-21.34,Standing
58:25.3,602,496,744,756,248,3.13,320,1.21,20724.21,248,268,80.63,268,6501,0,0,1.01,-0.01,0.02,-2.87,4.13,-0.84,-1.12,-87.26,-17.96,-18.36,-6.32,-17.29,-21.12,Standing
58:25.5,892,501,751.5,892,248,3.13,320,1.21,20724.21,248,268,80.63,268,6501,6288,268,1.02,-0.02,0.02,-2.64,1.47,-1.58,-1.43,-86.85,-18.22,-18.43,-6.42,-17.55,-21.17,Standing
58:25.6,599,504,756,892,248,3.13,320,1.21,20724.21,248,268,80.63,268,6501,12576,536,1.01,-0.04,0.04,-2.77,0.34,-0.56,-2.63,-85.32,-18.5,-18.64,-6.39,-17.87,-21.3,Standing
58:25.7,555,505,757.5,892,248,3.13,320,1.21,20724.21,248,267,80.63,268,6501,18329,803,1.03,0,0.01,-6.58,-5.21,-1.56,-0.63,-87.94,-19.26,-19.55,-6.49,-18.51,-22.28,Standing
58:25.8,614,504,756,892,248,3.13,320,1.21,20724.21,248,268,80.63,268,6501,24617,1071,1.01,-0.03,-0.01,2.1,-2.61,-2.5,-2.44,-86.47,-18.93,-20.12,-6.7,-18.27,-22.78,Standing
58:26.0,914,508,762,914,249,3.11,321.71,1.22,20724.21,248,268,80.63,268,6501,30905,1339,1.01,-0.02,-0.02,-3.88,-6.62,3.06,-1.62,-86.97,-19.35,-21.21,-6.22,-18.64,-23.84,Standing
58:26.1,416,509,763.5,914,249,3.11,321.71,1.22,20724.21,248,268,80.63,268,6501,37193,1607,1.01,-0.03,-0.03,2.33,6.61,-1.08,-2.07,-86.16,-18.98,-20.63,-6.25,-18.3,-23.25,Standing
58:26.2,319,507,760.5,914,249,3.11,321.71,1.22,20724.21,248,268,80.63,268,6501,43481,1875,1.04,-0.04,0,-2.57,-3.52,0.53,-2.64,-86.35,-19.23,-21.32,-6.09,-18.57,-23.92,Standing
58:26.4,779,508,762,779,249,3.11,321.71,1.22,20724.21,248,268,80.63,268,6501,49769,2143,1.02,-0.04,-0.04,-2.45,-0.58,-3.4,-2.87,-85.27,-19.47,-21.64,-6.42,-18.81,-24.18,Standing
58:26.5,702,508,762,779,249,3.11,321.71,1.22,20724.21,248,268,80.63,268,6501,56057,2411,1.01,-0.03,-0.03,-3.72,4.49,-2.82,-2.15,-86.25,-19.87,-21.33,-6.67,-19.16,-23.92,Standing
58:26.6,315,508,762,779,249,3.11,321.71,1.22,20724.21,248,268,78.96,267,6233,0,0,1.01,-0.01,-0.01,-3.13,1.51,-1.01,-1.4,-87.38,-20.19,-21.39,-6.7,-19.44,-24.03,Standing
58:26.7,313,506,759,779,250,3.09,323.42,1.22,20724.21,248,268,78.96,267,6233,6288,268,1.03,-0.02,-0.01,-2.06,-0.95,0.3,-1.84,-86.97,-20.38,-21.76,-6.56,-19.63,-24.36,Standing
58:26.9,721,506,759,779,250,3.09,323.42,1.22,20724.21,248,268,78.96,267,6233,12576,536,1.02,-0.03,-0.02,-2.93,0.63,-3.3,-2.08,-86.5,-20.67,-21.93,-6.88,-19.93,-24.51,Standing
58:27.0,657,506,759,779,250,3.09,323.42,1.22,20724.21,248,268,78.96,267,6233,18864,804,1.01,-0.02,-0.01,-3.42,1.28,-0.48,-1.65,-87.3,-21.03,-22.02,-6.84,-20.26,-24.63,Standing
58:27.1,81,503,754.5,779,251,3.08,325.13,1.23,20724.21,248,268,78.96,267,6233,25152,1072,1.02,-0.04,-0.03,-3.44,-2.55,-1.1,-2.75,-85.83,-21.39,-22.59,-6.88,-20.65,-25.12,Standing
58:27.2,340,503,754.5,779,251,3.08,325.13,1.23,20724.21,248,268,78.96,267,6233,31440,1340,1.02,-0.03,0,-5.05,4.69,-0.56,-2.3,-86.7,-21.96,-22.25,-6.85,-21.17,-24.83,Standing
58:27.4,757,504,756,757,251,3.08,325.13,1.23,20724.21,248,268,78.96,267,6233,37728,1608,1.05,-0.03,0.01,-1.9,3.79,-0.69,-2.19,-86.65,-22.13,-22.03,-6.84,-21.33,-24.61,Standing
58:27.5,396,502,753,757,251,3.08,325.13,1.23,20724.21,248,267,78.96,267,6233,43481,1875,1.03,-0.01,-0.02,1.56,4.63,-6.57,-0.88,-87.46,-21.86,-21.7,-7.57,-21.02,-24.33,Standing
58:27.6,192,501,751.5,757,251,3.08,325.13,1.23,20724.21,248,267,78.96,267,6233,49234,2142,0.98,-0.02,-0.02,-4.17,-7.11,-2.23,-1.58,-86.94,-22.31,-22.84,-7.75,-21.48,-25.4,Standing
58:27.7,592,504,756,757,252,3.06,326.85,1.23,20724.21,248,267,78.96,267,6233,54987,2409,1.03,0,-0.02,-4.05,3.28,0.15,-0.72,-87.37,-22.75,-22.67,-7.63,-21.87,-25.26,Standing
58:27.9,827,507,760.5,827,252,3.06,326.85,1.23,20724.24,250,268,78.28,267,6126,0,0,1.03,-0.03,-0.01,-1.78,2.62,0.31,-2.33,-86.63,-22.9,-22.6,-7.49,-22.08,-25.16,Standing
58:28.0,389,504,756,827,252,3.06,326.85,1.23,20724.24,250,268,78.28,267,6126,6288,268,1.02,-0.01,0,-5.79,-0.36,-2.46,-0.91,-88.08,-23.56,-22.9,-7.7,-22.66,-25.5,Standing
58:28.1,186,501,751.5,827,253,3.04,328.57,1.24,20724.24,250,268,78.28,267,6126,12576,536,1.01,-0.03,-0.01,-0.48,2.63,0.64,-2.54,-86.36,-23.55,-22.82,-7.52,-22.71,-25.36,Standing
58:28.2,666,506,759,827,254,3.03,330.3,1.24,20724.24,250,269,78.28,267,6126,19401,805,1.02,-0.02,-0.01,-2.31,1.16,1.7,-1.7,-87.07,-23.77,-22.92,-7.21,-22.89,-25.49,Standing
58:28.4,809,509,763.5,809,254,3.03,330.3,1.24,20724.24,250,269,78.28,267,6126,26226,1074,1.04,-0.05,0,-4.36,-1.09,-1.05,-3.14,-85.86,-24.25,-23.31,-7.24,-23.4,-25.81,Standing
58:28.5,437,507,760.5,809,254,3.03,330.3,1.24,20724.24,250,269,78.28,267,6126,33051,1343,1.02,-0.03,-0.01,-1.79,3.88,-4.37,-2.09,-86.84,-24.4,-23.07,-7.69,-23.51,-25.62,Standing
58:28.6,403,506,759,809,254,3.03,330.3,1.24,20724.24,250,268,78.28,267,6126,39339,1611,1.01,-0.02,-0.01,-3.95,-1.22,-3.98,-1.5,-87.19,-24.83,-23.48,-8.09,-23.89,-26.03,Standing
58:28.7,803,511,766.5,803,254,3.03,330.3,1.24,20724.24,250,269,78.28,267,6126,46164,1880,1,0,0,-1.85,4.21,-1.96,-0.79,-88.15,-24.99,-23.2,-8.24,-24.02,-25.8,Standing
58:28.9,671,513,769.5,803,255,3.01,332.03,1.25,20724.24,250,269,78.28,267,6126,52989,2149,1.02,0,0.01,-1.19,-0.3,-1.05,-0.72,-87.71,-25.07,-23.49,-8.27,-24.09,-26.06,Standing
58:29.0,244,509,763.5,803,255,3.01,332.03,1.25,20724.24,250,269,78.28,267,6126,59814,2418,1.03,-0.03,0,-1.73,-2.61,0.44,-2.44,-86.55,-25.21,-24.07,-8.12,-24.3,-26.57,Standing
58:29.1,389,508,762,803,254,3.03,330.3,1.24,20724.28,253,269,81.63,268,6662,0,0,1.02,-0.03,0,0.27,3.48,-1.57,-2.34,-86.65,-25.11,-23.88,-8.21,-24.2,-26.4,Standing
58:29.2,744,512,768,803,254,3.03,330.3,1.24,20724.28,253,269,81.63,268,6662,6825,269,1.01,0.01,-0.01,0.15,1.22,-1.13,-0.15,-87.55,-25.02,-23.98,-8.26,-24.03,-26.52,Standing
58:29.4,673,515,772.5,803,254,3.03,330.3,1.24,20724.28,253,269,81.63,268,6662,13650,538,1.02,-0.03,-0.02,-3.67,-5.79,0.28,-2.51,-86.12,-25.41,-24.96,-8.12,-24.5,-27.4,Standing
58:29.5,234,510,765,803,254,3.03,330.3,1.24,20724.28,253,269,81.63,268,6662,20475,807,1.02,-0.02,-0.02,-0.79,7.11,-2.73,-1.84,-86.88,-25.44,-24.31,-8.37,-24.5,-26.81,Standing
58:29.6,351,507,760.5,803,254,3.03,330.3,1.24,20724.28,253,269,81.63,268,6662,27300,1076,1.02,-0.02,0,-4.21,-5.13,-2.16,-1.82,-87.16,-25.9,-25.21,-8.54,-24.94,-27.69,Standing
58:29.7,730,510,765,803,254,3.03,330.3,1.24,20724.28,253,269,81.63,268,6662,34125,1345,1.02,-0.01,-0.01,-2.4,2.55,-2.08,-1.13,-87.71,-26.13,-25.14,-8.7,-25.13,-27.64,Standing
58:29.9,475,511,766.5,803,254,3.03,330.3,1.24,20724.28,253,269,81.63,268,6662,40950,1614,1.01,-0.02,-0.04,-0.71,3.1,2.95,-1.77,-86.08,-26.15,-25,-8.23,-25.18,-27.45,Standing
58:30.0,391,508,762,803,254,3.03,330.3,1.24,20724.28,253,268,81.63,268,6662,47238,1882,1.02,-0.02,-0.01,-2.17,-1.45,-0.68,-1.51,-87.33,-26.35,-25.44,-8.22,-25.36,-27.91,Standing
58:30.1,629,509,763.5,803,254,3.03,330.3,1.24,20724.28,253,269,81.63,268,6662,54063,2151,1.03,-0.02,-0.02,3.46,4.79,2.6,-1.66,-87.02,-25.85,-25.09,-7.79,-24.88,-27.56,Standing
58:30.2,912,514,771,912,254,3.03,330.3,1.24,20724.28,253,269,81.63,268,6662,60888,2420,1.01,-0.04,-0.04,-7.43,-14.73,-3.36,-2.69,-85.37,-26.71,-27.18,-8.11,-25.74,-29.5,Standing
58:30.4,361,514,771,912,254,3.03,330.3,1.24,20724.28,254,269,82.29,268,6770,0,0,1.01,-0.03,-0.04,0.31,12.06,2.68,-2.38,-85.6,-26.6,-25.92,-7.68,-25.63,-28.31,Standing
58:30.5,256,510,765,912,254,3.03,330.3,1.24,20724.28,254,269,82.29,268,6770,6825,269,1.03,-0.03,-0.02,0.92,-3.81,1.2,-2.23,-86.51,-26.41,-26.64,-7.43,-25.45,-29.03,Standing
58:30.6,592,510,765,912,254,3.03,330.3,1.24,20724.28,254,269,82.29,268,6770,13650,538,1.04,-0.03,-0.02,2.7,-0.18,-0.69,-2.31,-86.29,-26,-26.91,-7.42,-25.06,-29.29,Standing
58:30.7,838,516,774,838,254,3.03,330.3,1.24,20724.28,254,269,82.29,268,6770,20475,807,1.02,-0.04,-0.04,2.56,3.38,-3.69,-2.85,-85.29,-25.61,-26.74,-7.78,-24.7,-29.08,Standing
58:30.9,350,516,774,838,254,3.03,330.3,1.24,20724.28,254,269,82.29,268,6770,27300,1076,1.02,-0.03,-0.04,-0.76,1.4,-3.95,-2.02,-85.77,-25.64,-26.82,-8.18,-24.69,-29.18,Standing
58:40.0,113,113,169.5,113,250,3.09,323.42,1.22,0,0,266,0,0,0,10973,533,1.02,0.07,0.07,-1.47,-1.94,4.92,3.34,-83.03,-0.53,-1.08,1.05,-0.38,-4.36,Left Fall while Standing
58:40.1,117,115,172.5,117,250,3.09,323.42,1.22,0,0,266,0,0,0,16193,799,1.04,0.08,0.04,-0.12,2.18,-4.14,4.1,-83.15,-0.48,-1.06,0.64,-0.3,-4.34,Left Fall while Standing
58:40.2,239,156,234,239,250,3.09,323.42,1.22,0,0,266,0,0,0,21413,1065,1,0.1,0.04,3.3,1.69,-13.68,5.15,-82.29,-0.01,-1.1,-0.93,0.2,-4.35,Left Fall while Standing
58:40.3,415,221,331.5,415,250,3.09,323.42,1.22,0,0,266,0,0,0,26633,1331,0.96,0.14,0.05,0.05,4.98,-12.55,7.4,-79.84,0.07,-0.73,-2.37,0.36,-3.9,Left Fall while Standing
58:40.5,659,308,462,659,251,3.08,325.13,1.23,0,0,267,0,0,0,32386,1598,0.98,0.14,0.06,-0.59,4.82,-8.22,7.36,-79.63,0.06,-0.39,-3.28,0.35,-3.56,Left Fall while Standing
58:40.6,842,397,595.5,842,251,3.08,325.13,1.23,0,0,267,0,0,0,38139,1865,1.02,0.13,0.09,-5.19,-2.15,-11.11,6.94,-79.31,-0.5,-0.89,-4.53,-0.2,-4.02,Left Fall while Standing
58:40.7,888,467,700.5,888,251,3.08,325.13,1.23,0,0,267,0,0,0,43892,2132,1,0.18,0.09,9.49,6.76,-22.88,9.34,-77.26,0.74,-0.3,-7.25,1.08,-3.38,Left Fall while Standing
58:40.8,733,500,750,888,251,3.08,325.13,1.23,0,0,267,0,0,0,49645,2399,0.97,0.23,0.07,-1.58,-1.82,-21.24,12.46,-74.73,0.61,-0.77,-9.74,1.09,-3.73,Left Fall while Standing
58:41.0,511,501,751.5,888,250,3.09,323.42,1.22,20724.24,250,267,74.42,266,5538,0,0,0.95,0.26,0.06,-2.87,-1.49,-12.78,14.73,-72.67,0.33,-1.2,-11.22,0.91,-4.06,Left Fall while Standing
58:41.1,282,479,718.5,888,249,3.11,321.71,1.22,20724.24,250,266,74.42,266,5538,5220,266,0.94,0.29,0.06,-0.24,1.27,-8.18,16.74,-70.69,0.37,-1.29,-12.14,1.02,-4.06,Left Fall while Standing
58:41.2,389,471,706.5,888,249,3.11,321.71,1.22,20724.24,250,266,74.42,266,5538,10440,532,0.95,0.3,0.08,-0.91,6.24,-9.39,16.93,-70.23,0.33,-0.76,-13.21,0.99,-3.54,Left Fall while Standing
58:41.3,658,487,730.5,888,248,3.13,320,1.21,20724.24,250,266,74.42,266,5538,15660,798,0.93,0.33,0.09,-1.19,1,-10.76,19.05,-68.06,0.25,-0.89,-14.45,1,-3.57,Left Fall while Standing
58:41.5,778,509,763.5,888,248,3.13,320,1.21,20724.24,250,267,74.42,266,5538,21413,1065,0.93,0.34,0.06,4.46,0.76,-8.56,19.53,-68.01,0.87,-1.04,-15.42,1.62,-3.72,Left Fall while Standing
58:41.6,398,501,751.5,888,248,3.13,320,1.21,20724.24,250,266,74.42,266,5538,26633,1331,0.93,0.35,0.07,0.95,4.02,-12.66,20.13,-67.26,1.06,-0.79,-16.9,1.82,-3.45,Left Fall while Standing
58:41.7,237,483,724.5,888,248,3.13,320,1.21,20724.24,250,266,74.42,266,5538,31853,1597,0.92,0.38,0.08,0.66,-0.89,-11.44,21.81,-65.52,1.21,-1.15,-18.22,2.03,-3.72,Left Fall while Standing
58:41.8,428,480,720,888,248,3.13,320,1.21,20724.24,250,266,74.42,266,5538,37073,1863,0.92,0.39,0.09,-1.51,-2.3,-11.25,22.3,-64.89,1.09,-1.68,-19.52,1.94,-4.21,Left Fall while Standing
58:42.0,795,498,747,888,248,3.13,320,1.21,20724.24,250,266,74.42,266,5538,42293,2129,0.92,0.42,0.08,3.29,-0.73,-13.28,23.69,-63.71,1.57,-2.02,-21.08,2.46,-4.49,Left Fall while Standing
58:42.1,616,505,757.5,888,248,3.13,320,1.21,20724.24,250,266,74.42,266,5538,47513,2395,0.89,0.45,0.06,2.24,0.62,-12.32,26.03,-61.59,1.92,-2.19,-22.52,2.89,-4.57,Left Fall while Standing
58:42.2,265,492,738,888,248,3.13,320,1.21,20724.21,248,266,72.62,266,5272,0,0,0.89,0.46,0.05,0.69,-4.21,-11.77,26.95,-60.7,2.08,-2.96,-23.87,3.07,-5.27,Left Fall while Standing
58:42.3,257,481,721.5,888,248,3.13,320,1.21,20724.21,248,266,72.62,266,5272,5220,266,0.87,0.48,0.03,1.49,-4.56,-12.49,28.33,-59.47,2.33,-3.77,-25.32,3.37,-6,Left Fall while Standing
58:42.4,480,480,720,888,248,3.13,320,1.21,20724.21,248,266,72.62,266,5272,10440,532,0.84,0.51,0.03,-1.04,-1.86,-13.26,30.61,-57.14,2.27,-4.25,-26.88,3.41,-6.37,Left Fall while Standing
58:42.6,801,495,742.5,888,248,3.13,320,1.21,20724.21,248,266,72.62,266,5272,15660,798,0.85,0.53,0.02,-1.44,-1.05,-12.57,31.51,-56.31,2.16,-4.63,-28.35,3.34,-6.7,Left Fall while Standing
58:42.7,436,492,738,888,247,3.14,318.3,1.21,20724.21,248,266,72.62,266,5272,20880,1064,0.82,0.55,0.03,0.3,-2.09,-10.43,33.12,-54.67,2.27,-5.14,-29.55,3.5,-7.12,Left Fall while Standing
58:42.8,207,481,721.5,888,247,3.14,318.3,1.21,20724.21,248,266,72.62,266,5272,26100,1330,0.81,0.56,0.02,-1.54,-0.17,-4.43,34.24,-53.57,2.15,-5.41,-30,3.43,-7.34,Left Fall while Standing
58:43.0,419,478,717,888,247,3.14,318.3,1.21,20724.21,248,266,72.62,266,5272,31320,1596,0.82,0.56,0.02,0.07,1.89,-2.71,33.88,-53.95,2.23,-5.43,-30.24,3.49,-7.37,Left Fall while Standing
58:43.1,698,486,729,888,247,3.14,318.3,1.21,20724.21,248,266,72.62,266,5272,36540,1862,0.84,0.57,0,4.07,-2.6,-5.37,33.64,-54.2,2.8,-6,-30.81,4.03,-7.92,Left Fall while Standing
58:43.2,743,496,744,888,246,3.16,316.6,1.2,20724.21,248,266,72.62,266,5272,41760,2128,0.82,0.58,-0.01,0.28,-2.85,-3.59,34.81,-53.03,2.9,-6.6,-31.16,4.18,-8.46,Left Fall while Standing
58:43.3,332,490,735,888,246,3.16,316.6,1.2,20724.21,248,266,72.62,266,5272,46980,2394,0.82,0.58,-0.01,-2.73,1.63,-1.02,34.98,-52.85,2.64,-6.65,-31.19,3.93,-8.5,Left Fall while Standing
58:43.4,287,483,724.5,888,246,3.16,316.6,1.2,20724.19,247,266,72.25,266,5219,0,0,0.82,0.56,0.01,-1.6,3.4,0.32,33.75,-54.08,2.51,-6.47,-31.05,3.76,-8.38,Left Fall while Standing
58:43.6,343,478,717,888,246,3.16,316.6,1.2,20724.19,247,266,72.25,266,5219,5220,266,0.82,0.57,-0.01,0.11,-1.45,-3.81,34.26,-53.57,2.59,-6.9,-31.43,3.86,-8.77,Left Fall while Standing
58:43.7,729,486,729,888,247,3.14,318.3,1.21,20724.19,247,266,72.25,266,5219,10440,532,0.82,0.59,-0.04,-1.89,-0.5,-2.85,35.2,-52.55,2.43,-7.21,-31.68,3.74,-9.03,Left Fall while Standing
58:43.8,629,491,736.5,888,247,3.14,318.3,1.21,20724.19,247,266,72.25,266,5219,15660,798,0.81,0.58,0,-5.47,0.31,-1.98,35.09,-52.75,1.81,-7.42,-31.83,3.14,-9.24,Left Fall while Standing
58:43.9,265,484,726,888,247,3.14,318.3,1.21,20724.19,247,266,72.25,266,5219,20880,1064,0.81,0.58,-0.01,0.52,-0.15,-2.43,34.71,-53.13,1.95,-7.69,-32.03,3.26,-9.51,Left Fall while Standing
58:44.1,252,477,715.5,888,247,3.14,318.3,1.21,20724.19,247,266,72.25,266,5219,26100,1330,0.82,0.6,-0.02,-0.85,-0.53,-1.61,35.55,-52.27,1.91,-8.01,-32.14,3.26,-9.78,Left Fall while Standing
58:44.2,551,479,718.5,888,247,3.14,318.3,1.21,20724.19,247,266,72.25,266,5219,31320,1596,0.82,0.58,-0.03,-3.9,1.27,-1.96,34.43,-53.37,1.49,-8.1,-32.28,2.81,-9.91,Left Fall while Standing
58:44.3,791,488,732,888,248,3.13,320,1.21,20724.19,247,266,72.25,266,5219,36540,1862,0.8,0.6,-0.01,-2.3,0.25,-3.94,36.28,-51.55,1.28,-8.31,-32.68,2.68,-10.04,Left Fall while Standing
58:44.4,367,485,727.5,888,248,3.13,320,1.21,20724.19,247,266,72.25,266,5219,41760,2128,0.81,0.59,-0.03,0.23,3.52,-1.66,35.69,-52.1,1.37,-8.12,-32.79,2.75,-9.88,Left Fall while Standing
58:44.6,216,478,717,888,249,3.11,321.71,1.22,20724.19,247,266,72.25,266,5219,46980,2394,0.8,0.59,-0.04,-6.31,-0.11,-5.89,35.81,-51.93,0.66,-8.39,-33.42,2.07,-10.13,Left Fall while Standing
58:44.7,458,477,715.5,888,248,3.13,320,1.21,20724.2,247,266,72.25,266,5219,0,0,0.78,0.6,0.01,-2.33,0.23,-3.6,37.19,-50.64,0.44,-8.61,-33.76,1.91,-10.29,Left Fall while Standing
58:44.8,719,483,724.5,888,249,3.11,321.71,1.22,20724.2,247,266,72.25,266,5219,5220,266,0.8,0.61,-0.01,-1.52,-0.5,-1.24,36.87,-50.96,0.32,-8.92,-33.82,1.79,-10.6,Left Fall while Standing
58:44.9,602,486,729,888,247,3.14,318.3,1.21,20724.2,247,262,72.25,266,5219,8328,528,0.79,0.61,-0.02,-4.17,0.19,1.72,36.78,-51.03,-0.12,-9.14,-33.51,1.35,-10.82,Left Fall while Standing
58:45.1,212,479,718.5,888,248,3.13,320,1.21,20724.2,247,261,72.25,266,5219,10913,789,0.63,0.58,-0.04,-0.59,-24.69,7.89,41.81,-45.92,-0.13,-12.48,-32.42,1.55,-13.81,Left Fall while Standing
58:45.2,0,468,702,888,237,3.32,301.53,1.16,20724.2,247,190,72.25,266,5219,4294948773,979,0.85,0.57,-0.06,-10.7,7.69,20.2,33.43,-54.23,-1.41,-11.76,-29.78,-0.01,-13.46,Left Fall while Standing
58:45.3,0,458,687,888,229,3.47,288.41,1.12,20724.2,247,191,72.25,266,5219,4294919718,1170,0.83,0.52,0.04,-8.74,9.99,21.48,31.53,-56.22,-2.44,-10.75,-26.97,-1.08,-12.57,Left Fall while Standing
58:45.4,0,447,670.5,888,224,3.57,280.35,1.09,20724.2,247,192,72.25,266,5219,4294891046,1362,0.84,0.48,0.05,-0.5,10.86,22.98,29,-58.65,-2.43,-9.64,-24,-1.17,-11.6,Left Fall while Standing
58:45.6,0,438,657,888,219,3.67,272.39,1.07,20724.2,247,193,72.25,266,5219,4294862759,1555,0.88,0.45,0.05,-7.42,15.33,31.72,26.59,-61.1,-3.29,-7.96,-19.91,-2.1,-10.09,Left Fall while Standing
58:45.7,63,430,645,888,216,3.74,267.66,1.06,20724.2,247,193,72.25,266,5219,4294834472,1748,0.93,0.32,0.1,-15.65,9.55,36.11,18.55,-68.37,-5.19,-7.01,-15.26,-4.24,-9.47,Left Fall while Standing
58:45.8,565,433,649.5,888,213,3.8,262.96,1.04,20724.2,247,199,72.25,266,5219,4294808537,1947,0.97,0.29,0.17,-10.29,0.15,23.82,16,-69.09,-6.42,-7.25,-12.16,-5.52,-9.72,Left Fall while Standing
58:45.9,383,432,648,888,214,3.78,264.52,1.05,20724,229,207,20723.87,215,429478592,0,0,0.96,0.24,0.15,-2.98,0.37,18.15,13.21,-71.93,-6.72,-7.45,-9.79,-5.92,-10.03,Left Fall while Standing
58:46.1,310,429,643.5,888,212,3.83,261.41,1.04,20724,229,211,20723.87,215,429478592,4294946281,211,0.98,0.19,0.1,-5.69,-4.02,26.78,10.37,-75.96,-7.37,-8.22,-6.29,-6.66,-10.93,Left Fall while Standing
58:46.2,843,437,655.5,888,210,3.87,258.3,1.03,20724,229,213,20723.87,215,429478592,4294926114,424,1.02,0.11,0.1,-17.95,-10.37,20.78,5.61,-80.21,-9.58,-9.79,-3.55,-8.97,-12.6,Left Fall while Standing
58:46.3,556,439,658.5,888,208,3.92,255.21,1.02,20724,229,215,20723.87,215,429478592,4294906803,639,1.02,0.07,0.15,-5,-7.86,12.91,3.51,-79.04,-10.14,-11.04,-1.81,-9.6,-13.76,Left Fall while Standing
58:46.4,411,439,658.5,888,207,3.94,253.68,1.01,20724,229,215,20723.87,215,429478592,4294887492,854,1,0.05,0.09,-9.02,-8.37,12.53,2.53,-82.61,-11.22,-12.36,-0.12,-10.67,-15.17,Left Fall while Standing
58:46.6,916,448,672,916,207,3.94,253.68,1.01,20724,229,217,20723.87,215,429478592,4294869045,1071,1.06,0.03,0.07,-6.43,-14.06,6.72,1.08,-84.2,-11.97,-14.41,0.84,-11.45,-17.21,Left Fall while Standing
58:46.7,366,446,669,916,206,3.97,252.14,1.01,20724,229,217,20723.87,215,429478592,4294850598,1288,1,0.02,0.02,-7.47,8.15,6.76,0.57,-86.64,-12.85,-13.63,1.8,-12.31,-16.55,Left Fall while Standing
58:46.8,395,445,667.5,916,205,3.99,250.61,1,20724,229,217,20723.87,215,429478592,4294832151,1505,0.95,-0.01,0.03,-16.17,3.89,18.3,-0.92,-86.65,-14.83,-13.39,4.23,-14.27,-16.32,Left Fall while Standing
58:47.0,852,452,678,916,205,3.99,250.61,1,20724,229,219,20723.87,215,429478592,4294814576,1724,1.03,-0.07,0.08,-23.69,-18.71,14.02,-4.68,-82.56,-17.79,-16.04,6.12,-17.27,-18.7,Left Fall while Standing
58:47.1,357,451,676.5,916,204,4.01,249.08,1,20724,229,219,20723.87,215,429478592,4294797001,1943,1.05,-0.04,0.05,-5.56,-1.25,-8.38,-2.95,-84.77,-18.43,-16.46,5.15,-17.81,-19.19,Left Fall while Standing
58:47.2,682,455,682.5,916,204,4.01,249.08,1,20723.75,206,220,20723.85,216,429477984,0,0,1.04,-0.05,-0.05,6.18,23.11,-13.22,-3.08,-84.82,-17.58,-13.8,3.58,-17,-16.64,Left Fall while Standing
58:47.3,794,460,690,916,204,4.01,249.08,1,20723.75,206,220,20723.85,216,429477984,4294950160,220,0.99,-0.03,0.04,-13.03,2.69,-1.02,-2.36,-85.3,-19.17,-13.71,3.55,-18.5,-16.57,Left Fall while Standing
58:47.5,294,458,687,916,203,4.04,247.56,0.99,20723.75,206,221,20723.85,216,429477984,4294933465,441,1.01,-0.05,0.04,-7.39,-7.28,-3.63,-3.46,-84.85,-20.04,-14.9,3.19,-19.38,-17.7,Left Fall while Standing
58:47.6,682,461,691.5,916,203,4.04,247.56,0.99,20723.75,206,221,20723.85,216,429477984,4294916770,662,1.02,-0.05,0.05,0.49,-1.72,-5.27,-3.62,-84.33,-19.91,-15.37,2.62,-19.26,-18.13,Left Fall while Standing
58:47.7,534,462,693,916,203,4.04,247.56,0.99,20723.75,206,222,20723.85,216,429477984,4294900518,884,1.02,-0.04,0.02,2.63,-0.97,1.18,-2.74,-86.09,-19.5,-15.75,2.88,-18.83,-18.57,Left Fall while Standing
58:47.9,278,459,688.5,916,203,4.04,247.56,0.99,20723.75,206,222,20723.85,216,429477984,4294884266,1106,1.01,-0.03,0.04,-1.78,7.74,-3.39,-2.2,-85.65,-19.66,-15.02,2.55,-18.96,-17.85,Left Fall while Standing
58:48.0,819,465,697.5,916,203,4.04,247.56,0.99,20723.75,206,223,20723.85,216,429477984,4294868459,1329,1.01,-0.02,0.05,0.07,2.6,0.79,-1.58,-85.41,-19.58,-14.95,2.75,-18.86,-17.76,Left Fall while Standing
58:48.1,363,463,694.5,916,203,4.04,247.56,0.99,20723.75,206,223,20723.85,216,429477984,4294852652,1552,1.02,-0.04,0.06,-3.19,-7.5,1.9,-2.92,-84.17,-19.91,-16.15,3.09,-19.23,-18.87,Left Fall while Standing
58:48.2,382,462,693,916,203,4.04,247.56,0.99,20723.75,206,223,20723.85,216,429477984,4294836845,1775,1.03,-0.04,0.05,5.55,2.83,-2.66,-3.03,-84.7,-19.13,-16.05,2.85,-18.49,-18.79,Left Fall while Standing
58:48.4,918,469,703.5,918,203,4.04,247.56,0.99,20723.75,206,224,20723.85,216,429477984,4294821485,1999,0.98,-0.04,0.04,3.66,0.65,0.4,-2.92,-84.96,-18.59,-16.22,3,-17.97,-18.97,Left Fall while Standing
58:51.2,747,747,1120.5,747,205,3.99,250.61,1,0,0,226,0,0,0,4294938376,452,1,0,0.05,-0.75,6.63,-2.17,-0.48,-85.8,-0.15,0.73,-0.18,-0.16,-2.73,Right Fall while Standing
58:51.3,390,568,852,747,205,3.99,250.61,1,0,0,226,0,0,0,4294923916,678,1.02,0,0.07,-4.27,4.15,-2.6,-0.31,-84.45,-0.61,1,-0.4,-0.59,-2.42,Right Fall while Standing
58:51.5,275,470,705,747,205,3.99,250.61,1,0,0,226,0,0,0,4294909456,904,1,0.01,0.1,-8.42,8.59,6.33,-0.27,-82.95,-1.57,1.81,0.47,-1.52,-1.58,Right Fall while Standing
58:51.6,433,461,691.5,747,205,3.99,250.61,1,0,0,226,0,0,0,4294894996,1130,0.97,0.01,0.09,-10.27,9.7,18.69,-0.27,-82.94,-2.77,2.75,2.87,-2.67,-0.67,Right Fall while Standing
58:51.7,372,443,664.5,747,205,3.99,250.61,1,0,0,225,0,0,0,4294880085,1355,0.99,-0.07,0.17,-2.68,10.89,24.11,-4.58,-77.97,-3.03,3.85,5.93,-3.09,0.58,Right Fall while Standing
58:51.8,651,478,717,747,204,4.01,249.08,1,0,0,225,0,0,0,4294865174,1580,0.99,-0.13,0.19,6.41,23.69,21.24,-7.84,-75.52,-2.16,6.54,8.66,-2.39,3.26,Right Fall while Standing
58:52.0,745,516,774,747,204,4.01,249.08,1,0,0,225,0,0,0,4294850263,1805,0.95,-0.17,0.17,2.24,16.96,21.02,-10.84,-74.01,-1.82,8.36,11.32,-2.18,5.07,Right Fall while Standing
58:52.1,485,512,768,747,203,4.04,247.56,0.99,0,0,224,0,0,0,4294834903,2029,0.94,-0.21,0.23,-6.75,4.74,29.75,-12.64,-70.33,-2.58,8.7,15.08,-2.98,5.54,Right Fall while Standing
58:52.2,179,475,712.5,747,203,4.04,247.56,0.99,20723.73,204,224,20723.95,225,429481952,0,0,0.95,-0.32,0.24,1.64,2.11,30.07,-18.64,-65.68,-2.31,8.71,18.94,-2.96,5.74,Right Fall while Standing
58:52.3,244,452,678,747,202,4.06,246.04,0.99,20723.73,204,224,20723.95,225,429481952,4294951936,224,0.92,-0.36,0.22,0.34,-1.92,19.12,-21.41,-63.69,-2.19,8.22,21.47,-2.96,5.34,Right Fall while Standing
58:52.5,671,472,708,747,201,4.09,244.53,0.98,20723.73,204,224,20723.95,225,429481952,4294936576,448,0.92,-0.41,0.23,-8.68,-9.89,17.52,-23.77,-61.66,-3.22,6.71,23.79,-4.05,3.97,Right Fall while Standing
58:52.6,340,461,691.5,747,200,4.11,243.01,0.98,20723.73,204,224,20723.95,225,429481952,4294921216,672,0.92,-0.45,0.23,-1.54,-8.24,14.83,-26.02,-59.51,-3.35,5.42,25.76,-4.25,2.82,Right Fall while Standing
58:52.7,99,433,649.5,747,200,4.11,243.01,0.98,20723.73,204,223,20723.95,225,429481952,4294905409,895,0.92,-0.44,0.19,-0.96,-1.93,14.4,-25.56,-61.12,-3.4,4.92,27.69,-4.29,2.28,Right Fall while Standing
58:52.8,673,450,675,747,198,4.17,240,0.97,20723.73,204,223,20723.95,225,429481952,4294889602,1118,0.9,-0.47,0.19,3.2,3.98,7.44,-27.8,-58.94,-2.92,5.17,28.74,-3.92,2.6,Right Fall while Standing
58:53.0,315,441,661.5,747,197,4.19,238.5,0.96,20723.73,204,222,20723.95,225,429481952,4294873350,1340,0.85,-0.47,0.17,-3.18,-0.25,5.95,-28.76,-58.27,-3.25,4.88,29.59,-4.27,2.36,Right Fall while Standing
58:53.1,139,422,633,747,195,4.25,235.51,0.95,20723.73,204,222,20723.95,225,429481952,4294857098,1562,0.89,-0.5,0.18,-7.83,-1.5,6.93,-29.33,-57.56,-4.17,4.44,30.57,-5.18,1.96,Right Fall while Standing
58:53.2,705,439,658.5,747,194,4.27,234.02,0.95,20723.73,204,222,20723.95,225,429481952,4294840846,1784,0.87,-0.52,0.2,-0.05,2.45,-1.18,-30.71,-55.97,-4.11,4.5,30.52,-5.17,2.08,Right Fall while Standing
58:53.4,498,442,663,747,194,4.27,234.02,0.95,20723.73,204,222,20723.95,225,429481952,4294824594,2006,0.85,-0.51,0.16,-5.02,1.92,0.39,-31.25,-56.14,-4.67,4.49,30.67,-5.74,2.06,Right Fall while Standing
58:53.5,426,441,661.5,747,196,4.22,237,0.96,20723.66,197,223,20723.92,222,429480864,0,0,0.86,-0.53,0.19,-9.37,1.87,0.22,-31.59,-55.31,-5.77,4.47,30.79,-6.81,2.08,Right Fall while Standing
58:53.6,711,454,681,747,196,4.22,237,0.96,20723.66,197,223,20723.92,222,429480864,4294951489,223,0.84,-0.52,0.17,-5.98,1.94,-0.46,-31.63,-55.59,-6.46,4.46,30.83,-7.46,2.06,Right Fall while Standing
58:53.7,776,470,705,776,197,4.19,238.5,0.96,20723.66,197,223,20723.92,222,429480864,4294935682,446,0.85,-0.54,0.19,-5.24,-0.56,1.02,-32.39,-54.5,-7.05,4.14,31.06,-8.07,1.79,Right Fall while Standing
58:53.9,252,460,690,776,198,4.17,240,0.97,20723.66,197,223,20723.92,222,429480864,4294919875,669,0.84,-0.54,0.19,-4.61,2.24,-2.59,-32.64,-54.24,-7.57,4.17,30.84,-8.57,1.83,Right Fall while Standing
58:54.0,564,464,696,776,198,4.17,240,0.97,20723.66,197,223,20723.92,222,429480864,4294904068,892,0.85,-0.52,0.19,-1.13,-0.12,-0.04,-31.58,-55.26,-7.64,3.9,30.93,-8.6,1.54,Right Fall while Standing
58:54.1,738,476,714,776,199,4.14,241.5,0.97,20723.66,197,224,20723.92,222,429480864,4294888708,1116,0.85,-0.5,0.16,-5.09,-0.14,-1.05,-30.91,-56.5,-8.21,3.63,30.9,-9.12,1.23,Right Fall while Standing
58:54.2,346,470,705,776,199,4.14,241.5,0.97,20723.66,197,223,20723.92,222,429480864,4294872901,1339,0.85,-0.54,0.15,-3.21,-2.69,1.11,-32.69,-54.88,-8.55,3.03,31.14,-9.52,0.71,Right Fall while Standing
58:54.4,778,482,723,778,199,4.14,241.5,0.97,20723.66,197,224,20723.92,222,429480864,4294857541,1563,0.87,-0.54,0.17,-1.34,1.53,-1.5,-32.26,-55.07,-8.65,2.97,31.05,-9.6,0.65,Right Fall while Standing
58:54.5,767,493,739.5,778,200,4.11,243.01,0.98,20723.66,197,224,20723.92,222,429480864,4294842181,1787,0.86,-0.53,0.14,-2.95,2.09,-3.82,-32.09,-55.71,-8.96,2.98,30.67,-9.88,0.64,Right Fall while Standing
58:54.6,282,485,727.5,778,201,4.09,244.53,0.98,20723.66,197,224,20723.92,222,429480864,4294826821,2011,0.85,-0.52,0.17,-0.55,1.85,-2.3,-31.83,-55.45,-8.95,2.96,30.48,-9.87,0.63,Right Fall while Standing
58:54.7,738,494,741,778,202,4.06,246.04,0.99,20723.68,198,225,20723.93,223,429481184,0,0,0.86,-0.53,0.15,-1.07,1.33,-2.23,-31.7,-55.93,-9.02,2.88,30.3,-9.93,0.53,Right Fall while Standing
58:54.9,788,504,756,788,203,4.04,247.56,0.99,20723.68,198,226,20723.93,223,429481184,4294952836,226,0.85,-0.53,0.17,-1.98,1.43,0.3,-32.03,-55.25,-9.2,2.81,30.43,-10.11,0.49,Right Fall while Standing
58:55.0,323,498,747,788,203,4.04,247.56,0.99,20723.68,198,226,20723.93,223,429481184,4294938376,452,0.85,-0.53,0.16,-0.32,2.61,-2.73,-32.09,-55.43,-9.17,2.89,30.19,-10.09,0.55,Right Fall while Standing
58:55.1,677,503,754.5,788,204,4.01,249.08,1,20723.68,198,227,20723.93,223,429481184,4294924369,679,0.84,-0.51,0.16,-3.38,1.34,1.39,-31.48,-55.93,-9.53,2.8,30.47,-10.41,0.45,Right Fall while Standing
58:55.2,757,511,766.5,788,204,4.01,249.08,1,20723.68,198,227,20723.93,223,429481184,4294910362,906,0.86,-0.52,0.16,0.76,3.15,-1.34,-31.39,-56.05,-9.36,2.95,30.4,-10.24,0.59,Right Fall while Standing
58:55.4,212,502,753,788,203,4.04,247.56,0.99,20723.68,198,225,20723.93,223,429481184,4294895451,1131,0.87,-0.53,0.16,-4.76,-2.31,-3.79,-31.77,-55.77,-9.89,2.4,30.02,-10.76,0.08,Right Fall while Standing
58:55.5,349,498,747,788,203,4.04,247.56,0.99,20723.68,198,226,20723.93,223,429481184,4294880991,1357,0.87,-0.53,0.16,-4.58,-2.48,-11.54,-31.33,-56.15,-10.4,1.83,28.65,-11.24,-0.48,Right Fall while Standing
58:55.6,612,501,751.5,788,203,4.04,247.56,0.99,20723.68,198,225,20723.93,223,429481184,4294866080,1582,0.87,-0.49,0.13,-5.63,-5.71,-15.95,-29.39,-58.44,-11.05,0.85,26.71,-11.78,-1.52,Right Fall while Standing
58:55.8,114,491,736.5,788,203,4.04,247.56,0.99,20723.68,198,226,20723.93,223,429481184,4294851620,1808,0.91,-0.46,0.12,-6.17,-3.13,-20.12,-27.18,-60.81,-11.76,0.2,24.26,-12.38,-2.24,Right Fall while Standing
58:55.9,700,496,744,788,203,4.04,247.56,0.99,20723.68,198,227,20723.93,223,429481184,4294837613,2035,0.92,-0.42,0.12,-9.33,-2.46,-21.84,-25.02,-62.96,-12.88,-0.37,21.56,-13.37,-2.88,Right Fall while Standing
58:56.0,347,492,738,788,202,4.06,246.04,0.99,20723.72,203,227,20723.96,226,429482368,0,0,0.95,-0.38,0.1,-4.93,-9.49,-28.37,-22.41,-65.75,-13.43,-1.82,18.09,-13.79,-4.38,Right Fall while Standing
58:56.1,203,485,727.5,788,203,4.04,247.56,0.99,20723.72,203,227,20723.96,226,429482368,4294953289,227,0.95,-0.33,0.09,0.56,-1.96,-26.89,-19.91,-68.31,-13.29,-2.33,14.75,-13.56,-4.97,Right Fall while Standing
58:56.3,766,492,738,788,202,4.06,246.04,0.99,20723.72,203,228,20723.96,226,429482368,4294939737,455,1.06,-0.3,0.01,-2.15,-0.08,-26.78,-16.61,-72.37,-13.49,-2.59,11.45,-13.62,-5.38,Right Fall while Standing
58:56.4,330,488,732,788,202,4.06,246.04,0.99,20723.72,203,227,20723.96,226,429482368,4294925730,682,0.99,-0.24,0.07,-5.04,3.37,-34.52,-14.28,-74.12,-14.07,-2.42,7.13,-14.07,-5.29,Right Fall while Standing
58:56.5,504,488,732,788,202,4.06,246.04,0.99,20723.72,203,230,20723.96,226,429482368,4294913094,912,0.98,-0.14,0.12,-8,-9.92,-26.55,-8.68,-77.65,-15.01,-3.93,3.86,-14.76,-6.88,Right Fall while Standing
58:56.7,789,495,742.5,789,202,4.06,246.04,0.99,20723.72,203,228,20723.96,226,429482368,4294899542,1140,1,-0.1,0.09,5.19,1.15,-25.48,-6.11,-80.87,-14.27,-4.04,0.7,-13.95,-7.11,Right Fall while Standing
58:56.8,162,488,732,789,201,4.09,244.53,0.98,20723.72,203,227,20723.96,226,429482368,4294885535,1367,1.02,-0.05,0.07,2.39,-2.24,-20.92,-3.54,-83.31,-13.9,-4.58,-1.86,-13.49,-7.73,Right Fall while Standing
58:56.9,390,486,729,789,201,4.09,244.53,0.98,20723.72,203,228,20723.96,226,429482368,4294871983,1595,0.99,-0.03,0.08,-2.16,3.55,-18.01,-2.1,-83.3,-14.1,-4.38,-4.05,-13.62,-7.54,Right Fall while Standing
58:57.0,613,488,732,789,200,4.11,243.01,0.98,20723.72,203,227,20723.96,226,429482368,4294857976,1822,1.04,0.05,0.05,11.37,5.9,-23.87,2.21,-84.68,-12.58,-3.88,-7,-11.99,-7.12,Right Fall while Standing
58:57.2,233,483,724.5,789,200,4.11,243.01,0.98,20723.72,203,227,20723.96,226,429482368,4294843969,2049,1.05,0.08,0.05,-8.54,-4.73,-29.69,3.54,-83.4,-13.59,-4.74,-10.67,-12.9,-7.88,Right Fall while Standing
58:57.3,683,487,730.5,789,200,4.11,243.01,0.98,20723.7,201,228,20723.97,227,429483040,0,0,0.98,0.17,0.02,-17.42,2.24,-20.79,9.24,-78.51,-15.71,-4.71,-13.19,-14.72,-7.66,Right Fall while Standing
58:57.4,685,491,736.5,789,201,4.09,244.53,0.98,20723.7,201,230,20723.97,227,429483040,4294954660,230,0.92,0.18,0.01,-14.5,0.5,-2.84,10.81,-77.02,-17.49,-4.9,-13.45,-16.35,-7.78,Right Fall while Standing
58:57.5,264,487,730.5,789,201,4.09,244.53,0.98,20723.7,201,231,20723.97,227,429483040,4294942485,461,1,0.17,0.11,-10.24,-5.19,4.4,8.91,-76.97,-18.71,-5.81,-12.79,-17.61,-8.66,Right Fall while Standing
58:57.7,639,489,733.5,789,201,4.09,244.53,0.98,20723.7,201,232,20723.97,227,429483040,4294930773,693,1,0.14,0.09,-4.79,3.53,2.15,7.25,-79.2,-19.25,-5.62,-12.42,-18.19,-8.56,Right Fall while Standing
58:57.8,536,490,735,789,201,4.09,244.53,0.98,20723.7,201,233,20723.97,227,429483040,4294919526,926,1.01,0.13,0.06,-3.66,1.28,-0.15,6.95,-80.16,-19.65,-5.71,-12.34,-18.58,-8.69,Right Fall while Standing
58:57.9,157,484,726,789,201,4.09,244.53,0.98,20723.7,201,235,20723.97,227,429483040,4294909215,1161,1,0.14,0.07,-5.07,4.85,-4.18,7.08,-79.75,-20.22,-5.34,-12.77,-19.13,-8.32,Right Fall while Standing
58:58.1,639,487,730.5,789,201,4.09,244.53,0.98,20723.7,201,237,20723.97,227,429483040,4294899848,1398,1,0.16,0.08,-5.04,1.91,-3.67,8.5,-78.13,-20.79,-5.36,-13.14,-19.62,-8.27,Right Fall while Standing
58:58.2,413,486,729,789,202,4.06,246.04,0.99,20723.7,201,238,20723.97,227,429483040,4294890956,1636,0.98,0.16,0.11,-4.79,-1.49,-2.82,8.35,-77.41,-21.33,-5.8,-13.4,-20.14,-8.66,Right Fall while Standing
58:58.3,343,483,724.5,789,203,4.04,247.56,0.99,20723.7,201,242,20723.97,227,429483040,4294883984,1878,0.97,0.14,0.1,-2.04,-0.41,0.38,7.44,-78.6,-21.52,-6.11,-13.25,-20.36,-9.01,Right Fall while Standing
58:58.4,826,489,733.5,826,204,4.01,249.08,1,20723.7,201,254,20723.97,227,429483040,4294882964,2132,0.99,0.15,0.08,1.6,0.47,4.76,8.03,-78.62,-21.24,-6.3,-12.54,-20.07,-9.19,Right Fall while Standing
59:01.2,361,361,541.5,361,233,3.39,294.94,1.14,0,0,274,0,0,0,19080,548,1.03,-0.03,0.02,-6.98,-31.48,14.4,-2.3,-86.35,-2.56,-7.51,3.79,-2.55,-10.67,Forward Fall while Standing
59:01.3,649,505,757.5,649,233,3.39,294.94,1.14,0,0,274,0,0,0,28620,822,1.03,-0.1,-0.03,-4.15,-26.45,9.3,-6.25,-82.5,-3,-11.01,5.03,-3.13,-13.87,Forward Fall while Standing
59:01.4,681,563,844.5,681,232,3.41,293.3,1.13,0,0,216,0,0,0,9740,1038,0.72,-0.27,-0.69,-6.61,-27.68,2.47,-15.95,-42.37,-3.75,-14.66,5.43,-4.23,-15.77,Forward Fall while Standing
59:01.5,0,422,633,681,220,3.65,273.97,1.08,0,0,228,0,0,0,4294963484,1266,1.04,-0.09,-0.25,-2.36,-27.6,-3,-5.45,-74.08,-3.97,-18.33,5.16,-4.03,-20.56,Forward Fall while Standing
59:01.6,0,338,507,681,214,3.78,264.52,1.05,0,0,204,0,0,0,4294939564,1470,1,-0.07,-0.3,1.27,-22.09,-2.53,-4.53,-71.37,-3.74,-21.32,4.94,-3.77,-23.32,Forward Fall while Standing
59:01.8,201,315,472.5,681,216,3.74,267.66,1.06,0,0,204,0,0,0,4294915644,1674,0.95,-0.08,-0.33,-1.06,-22.85,0.34,-5.08,-68.57,-3.8,-24.4,5.08,-3.86,-26.17,Forward Fall while Standing
59:01.9,262,307,460.5,681,209,3.89,256.76,1.02,0,0,203,0,0,0,4294891317,1877,0.97,-0.07,-0.43,-1.56,-31.17,4.63,-4.41,-63.98,-3.93,-28.55,5.76,-3.95,-29.96,Forward Fall while Standing
59:02.0,730,360,540,730,206,3.97,252.14,1.01,0,0,204,0,0,0,4294867397,2081,0.94,-0.1,-0.45,-3.42,-18.56,3.82,-6.07,-62.42,-4.28,-31.08,6.32,-4.35,-32.33,Forward Fall while Standing
59:02.1,600,387,580.5,730,205,3.99,250.61,1,20723.9,220,208,20724.01,228,429484512,0,0,0.97,-0.1,-0.51,-4.02,-20.41,2.25,-5.75,-59.95,-4.71,-33.88,6.7,-4.76,-34.92,Forward Fall while Standing
59:02.3,304,378,567,730,203,4.04,247.56,0.99,20723.9,220,209,20724.01,228,429484512,4294945441,209,0.91,-0.1,-0.56,-2.49,-14.46,-0.95,-5.7,-56.43,-4.96,-35.98,6.68,-4.99,-36.8,Forward Fall while Standing
59:02.4,574,396,594,730,199,4.14,241.5,0.97,20723.9,220,209,20724.01,228,429484512,4294923586,418,0.88,-0.1,-0.56,-4.27,-16.27,-0.24,-6.31,-55.49,-5.43,-38.3,6.75,-5.47,-38.99,Forward Fall while Standing
59:02.5,480,403,604.5,730,196,4.22,237,0.96,20723.9,220,208,20724.01,228,429484512,4294901314,626,0.89,-0.08,-0.6,-3.85,-14.95,-0.37,-5.1,-54.03,-5.85,-40.47,6.81,-5.82,-41.02,Forward Fall while Standing
59:02.6,140,383,574.5,730,195,4.25,235.51,0.95,20723.9,220,209,20724.01,228,429484512,4294879459,835,0.85,-0.09,-0.63,-3.34,-10.35,0.76,-5.61,-51.54,-6.21,-42.04,7,-6.18,-42.42,Forward Fall while Standing
59:02.8,727,407,610.5,730,195,4.25,235.51,0.95,20723.9,220,209,20724.01,228,429484512,4294857604,1044,1.05,-0.1,-0.95,-8.32,-14.71,1.47,-4.62,-46.03,-7.2,-44.18,7.29,-7.1,-44.26,Forward Fall while Standing
59:02.9,164,391,586.5,730,189,4.41,226.62,0.92,20723.9,220,207,20724.01,228,429484512,4294834917,1251,0.83,-0.1,-0.65,-6.27,-9.89,-0.21,-5.85,-50.21,-7.93,-45.69,7.37,-7.84,-45.87,Forward Fall while Standing
59:03.0,557,401,601.5,730,196,4.22,237,0.96,20723.9,220,218,20724.01,228,429484512,4294816905,1469,0.79,-0.1,-0.7,0.84,-10.38,0.53,-5.81,-46.79,-7.75,-47.28,7.54,-7.67,-47.26,Forward Fall while Standing
59:03.2,981,435,652.5,981,199,4.14,241.5,0.97,20723.9,220,241,20724.01,228,429484512,4294809450,1710,0.78,-0.11,-0.72,0.29,-12.03,2.44,-6.54,-45.45,-7.64,-49.06,7.95,-7.59,-48.91,Forward Fall while Standing
59:03.3,520,440,660,981,203,4.04,247.56,0.99,20723.9,220,243,20724.01,228,429484512,4294802963,1953,0.81,-0.11,-0.79,-1.57,-15.64,1.36,-6.25,-44.14,-7.77,-51.3,8.22,-7.71,-51.01,Forward Fall while Standing
59:03.4,658,452,678,981,205,3.99,250.61,1,20723.67,198,218,20723.86,217,429478496,0,0,0.74,-0.12,-0.76,-2.31,-19.52,1.61,-7.02,-42.35,-7.99,-54.01,8.52,-7.95,-53.54,Forward Fall while Standing
59:03.5,968,477,715.5,981,206,3.97,252.14,1.01,20723.67,198,247,20723.86,217,429478496,4294962769,247,0.75,-0.13,-0.81,-5.02,-7.89,2.45,-7.54,-40.66,-8.55,-55.27,8.93,-8.51,-54.68,Forward Fall while Standing
59:03.7,448,476,714,981,208,3.92,255.21,1.02,20723.67,198,250,20723.86,217,429478496,4294959733,497,0.7,-0.13,-0.8,0.74,-8.02,0.07,-7.57,-39.16,-8.39,-56.55,9.04,-8.35,-55.85,Forward Fall while Standing
59:03.8,759,489,733.5,981,210,3.87,258.3,1.03,20723.67,198,217,20723.86,217,429478496,4294941286,714,0.68,-0.14,-0.81,-0.1,-8.24,0.86,-8.29,-37.99,-8.33,-57.85,9.25,-8.33,-57.05,Forward Fall while Standing
59:03.9,983,510,765,983,210,3.87,258.3,1.03,20723.67,198,252,20723.86,217,429478496,4294939254,966,0.67,-0.15,-0.82,-0.83,-9.44,0.72,-8.39,-37.39,-8.36,-59.3,9.44,-8.36,-58.43,Forward Fall while Standing
59:04.0,595,514,771,983,212,3.83,261.41,1.04,20723.67,198,254,20723.86,217,429478496,4294938234,1220,0.65,-0.14,-0.85,1.84,-11.21,-1.49,-8.07,-35.38,-8.06,-60.98,9.36,-8.06,-59.96,Forward Fall while Standing
59:04.2,585,517,775.5,983,210,3.87,258.3,1.03,20723.67,198,217,20723.86,217,429478496,4294919787,1437,0.63,-0.16,-0.89,-0.62,-5.72,2.86,-9.04,-33.2,-8.06,-61.97,9.82,-8.1,-60.82,Forward Fall while Standing
59:04.3,597,520,780,983,208,3.92,255.21,1.02,20723.67,198,223,20723.86,217,429478496,4294903980,1660,0.6,-0.15,-0.86,-5.3,-15.95,1.68,-8.43,-32.95,-8.67,-64.25,10.14,-8.66,-63,Forward Fall while Standing
59:04.4,209,508,762,983,206,3.97,252.14,1.01,20723.67,198,216,20723.86,217,429478496,4294885100,1876,0.58,-0.15,-0.91,-2.7,-14.74,5.18,-8.59,-30.55,-8.94,-66.39,10.9,-8.93,-64.96,Forward Fall while Standing
59:04.6,761,517,775.5,983,206,3.97,252.14,1.01,20723.67,198,247,20723.86,217,429478496,4294880573,2123,0.58,-0.15,-0.93,-4.32,-12.4,3.94,-8.53,-29.81,-9.42,-68.22,11.5,-9.38,-66.68,Forward Fall while Standing
59:04.7,382,512,768,983,208,3.92,255.21,1.02,20723.77,208,252,20724.09,237,429487840,0,0,0.53,-0.17,-0.93,-7.31,-14.75,2.5,-9.45,-27.85,-10.27,-70.33,11.92,-10.24,-68.63,Forward Fall while Standing
59:04.8,400,509,763.5,983,212,3.83,261.41,1.04,20723.77,208,227,20724.09,237,429487840,4294953289,227,0.5,-0.16,-0.95,-3.86,-16.12,4.34,-9.13,-25.89,-10.69,-72.65,12.57,-10.63,-70.78,Forward Fall while Standing
59:04.9,844,520,780,983,211,3.85,259.85,1.03,20723.77,208,217,20724.09,237,429487840,4294934842,444,0.46,-0.16,-0.97,-2.8,-11.56,3.84,-9,-23.71,-10.98,-74.38,13.17,-10.9,-72.36,Forward Fall while Standing
59:05.1,150,508,762,983,209,3.89,256.76,1.02,20723.77,208,223,20724.09,237,429487840,4294919035,667,0.44,-0.17,-0.99,-2.39,-9.7,1.65,-9.49,-22.22,-11.21,-75.88,13.48,-11.14,-73.74,Forward Fall while Standing
59:05.2,335,503,754.5,983,207,3.94,253.68,1.01,20723.77,208,221,20724.09,237,429487840,4294902340,888,0.42,-0.18,-0.99,-3.58,-7.2,1.4,-9.88,-21.3,-11.6,-77.05,13.76,-11.53,-74.82,Forward Fall while Standing
59:05.3,705,509,763.5,983,205,3.99,250.61,1,20723.77,208,224,20724.09,237,429487840,4294886980,1112,0.41,-0.17,-1,-3.88,-7.67,0.11,-9.6,-20.32,-12.02,-78.29,13.87,-11.92,-75.97,Forward Fall while Standing
59:05.4,30,495,742.5,983,204,4.01,249.08,1,20723.77,208,245,20724.09,237,429487840,4294881469,1357,0.39,-0.16,-1.01,-4.63,-8.2,0.6,-8.96,-19.08,-12.54,-79.59,14.05,-12.4,-77.17,Forward Fall while Standing
59:05.6,673,500,750,983,206,3.97,252.14,1.01,20723.77,208,252,20724.09,237,429487840,4294879437,1609,0.37,-0.16,-1.02,-2.99,-6.43,1.52,-8.92,-18.22,-12.85,-80.67,14.34,-12.7,-78.17,Forward Fall while Standing
59:05.7,332,495,742.5,983,209,3.89,256.76,1.02,20723.77,208,256,20724.09,237,429487840,4294879437,1865,0.36,-0.16,-1.02,-1.18,-2.91,0.14,-9.22,-17.36,-12.93,-81.3,14.46,-12.78,-78.74,Forward Fall while Standing
59:05.8,442,494,741,983,211,3.85,259.85,1.03,20723.77,208,262,20724.09,237,429487840,4294882545,2127,0.35,-0.17,-1.01,-1.7,-0.6,-0.9,-9.37,-17.21,-13.08,-81.63,14.45,-12.93,-79.05,Forward Fall while Standing
59:06.0,812,502,753,983,215,3.76,266.09,1.05,20723.78,208,267,20724.11,239,429488832,0,0,0.34,-0.17,-1.02,-2.31,0.35,-1.19,-9.49,-16.66,-13.3,-81.84,14.4,-13.15,-79.23,Forward Fall while Standing
59:06.1,423,500,750,983,218,3.69,270.81,1.07,20723.78,208,273,20724.11,239,429488832,8993,273,0.34,-0.15,-1.01,-2.89,-2.2,-1.71,-8.79,-16.61,-13.59,-82.37,14.28,-13.4,-79.74,Forward Fall while Standing
59:06.2,551,501,751.5,983,221,3.63,275.56,1.08,20723.78,208,278,20724.11,239,429488832,20741,551,0.33,-0.16,-1.02,-2.17,-2.48,0.28,-9.1,-16.26,-13.8,-82.94,14.42,-13.61,-80.27,Forward Fall while Standing
59:06.3,951,512,768,983,225,3.55,281.95,1.1,20723.78,208,281,20724.11,239,429488832,34166,832,0.34,-0.16,-1.04,-3.15,-1.44,-1.73,-8.82,-16.12,-14.13,-83.38,14.3,-13.91,-80.69,Forward Fall while Standing
59:06.5,470,511,766.5,983,227,3.51,285.18,1.11,20723.78,208,283,20724.11,239,429488832,48719,1115,0.32,-0.16,-1.01,-0.54,-0.11,-1.92,-9.13,-16.08,-14.12,-83.65,14.15,-13.92,-80.94,Forward Fall while Standing
59:06.6,764,517,775.5,983,229,3.47,288.41,1.12,20723.78,208,284,20724.11,239,429488832,63839,1399,0.31,-0.16,-1.05,-3.78,1.04,-2.09,-8.75,-14.54,-14.53,-83.77,13.99,-14.3,-81,Forward Fall while Standing
59:06.7,903,525,787.5,983,231,3.43,291.67,1.13,20723.78,208,284,20724.11,239,429488832,78959,1683,0.33,-0.14,-1.01,-3.53,3.05,1.5,-8.11,-16.2,-14.91,-83.63,14.28,-14.64,-80.94,Forward Fall while Standing
59:06.8,415,523,784.5,983,232,3.41,293.3,1.13,20723.78,208,285,20724.11,239,429488832,94648,1968,0.34,-0.16,-1.04,-0.08,3.18,-2.23,-8.96,-16.42,-14.85,-83.48,14.1,-14.61,-80.8,Forward Fall while Standing
59:07.0,642,525,787.5,983,235,3.35,298.22,1.15,20723.78,208,288,20724.11,239,429488832,112056,2256,0.36,-0.15,-1.06,1.71,16.16,-6.08,-8.45,-16.78,-14.56,-81.69,13.43,-14.32,-79.09,Forward Fall while Standing
59:07.1,743,530,795,983,234,3.37,296.58,1.14,20723.78,208,283,20724.11,239,429488832,126609,2539,0.43,-0.17,-1.08,-1.49,41.02,-6.3,-8.86,-19.86,-14.68,-76.69,12.72,-14.45,-74.42,Forward Fall while Standing
59:07.2,306,525,787.5,983,235,3.35,298.22,1.15,20723.99,228,284,119.05,282,14171,0,0,0.52,-0.14,-1.04,-8.38,50.89,-14.79,-7.64,-24.84,-15.66,-70.58,10.97,-15.34,-68.75,Forward Fall while Standing
59:07.4,221,519,778.5,983,235,3.35,298.22,1.15,20723.99,228,275,119.05,282,14171,10089,275,0.64,-0.13,-0.94,-6.06,77.15,-17.14,-7.11,-32.54,-16.35,-61.11,8.91,-15.98,-59.97,Forward Fall while Standing
59:07.5,56,510,765,983,230,3.45,290.04,1.12,20723.99,228,206,119.05,282,14171,4294954285,481,0.69,-0.12,-0.76,-3.08,87.19,-17.57,-7.27,-40.23,-16.67,-50.38,6.8,-16.29,-49.97,Forward Fall while Standing
59:07.6,0,500,750,983,219,3.67,272.39,1.07,20723.99,228,206,119.05,282,14171,4294931185,687,0.78,-0.07,-0.61,-0.38,73.73,-12.08,-4.51,-50.24,-16.65,-41.27,5.36,-16.16,-41.63,Forward Fall while Standing
59:07.7,0,491,736.5,983,210,3.87,258.3,1.03,20723.99,228,212,119.05,282,14171,4294910593,899,0.89,-0.05,-0.47,9.1,55.79,-8.37,-3.23,-60.68,-15.42,-34.44,4.4,-14.93,-35.49,Forward Fall while Standing
59:07.9,14,482,723,983,202,4.06,246.04,0.99,20723.99,228,205,119.05,282,14171,4294887082,1104,0.94,-0.03,-0.33,7.15,76.07,-14.74,-2.32,-68.84,-14.46,-25.18,2.66,-13.97,-26.92,Forward Fall while Standing
59:08.0,234,478,717,983,199,4.14,241.5,0.97,20723.99,228,205,119.05,282,14171,4294863571,1309,0.88,0.02,-0.19,-5.27,75.19,-4.6,0.91,-75.93,-15.05,-15.88,2.17,-14.41,-18.28,Forward Fall while Standing
59:08.1,403,476,714,983,198,4.17,240,0.97,20723.99,228,207,119.05,282,14171,4294840884,1516,0.91,-0.03,0.02,-0.07,40.12,9.04,-2.62,-86.16,-14.99,-11.08,3.41,-14.5,-14.08,Forward Fall while Standing
59:08.2,996,485,727.5,996,197,4.19,238.5,0.96,20723.99,228,210,119.05,282,14171,4294819448,1726,0.99,-0.07,-0.01,7.4,49.15,0.27,-4.59,-84.37,-13.98,-5.09,3.54,-13.6,-8.26,Forward Fall while Standing
59:08.4,861,492,738,996,197,4.19,238.5,0.96,20723.99,228,212,119.05,282,14171,4294798856,1938,1,-0.06,-0.03,2.02,59.13,-1.28,-4.01,-84.46,-13.66,2.11,3.48,-13.27,-1.35,Forward Fall while Standing
59:08.5,540,493,739.5,996,196,4.22,237,0.96,20723.77,208,216,20723.85,215,429477984,0,0,0.92,-0.05,0.14,-12.98,3.37,0.72,-3.84,-79.05,-15.21,2.28,3.67,-14.75,-0.97,Forward Fall while Standing
59:08.6,783,497,745.5,996,195,4.25,235.51,0.95,20723.77,208,215,20723.85,215,429477984,4294947985,215,0.99,-0.05,0.19,-8.14,-13.95,15.53,-3.37,-77.1,-16.17,0.25,5.74,-15.66,-2.84,Forward Fall while Standing
59:08.7,809,503,754.5,996,195,4.25,235.51,0.95,20723.77,208,218,20723.85,215,429477984,4294929973,433,1.01,-0.09,0.13,-2.91,7.95,8.32,-5.64,-79.58,-16.47,1.01,6.9,-16.04,-2.22,Forward Fall while Standing
59:08.9,289,499,748.5,996,194,4.27,234.02,0.95,20723.77,208,217,20723.85,215,429477984,4294911526,650,1.03,-0.14,0.15,-15.4,4.28,2.44,-8.02,-77.18,-18.35,1.3,7.31,-17.94,-1.84,Forward Fall while Standing
59:09.0,519,499,748.5,996,193,4.3,232.53,0.94,20723.77,208,218,20723.85,215,429477984,4294893514,868,1.02,-0.15,0.18,-7.47,6.7,-5.82,-8.57,-75.77,-19.23,1.9,6.67,-18.8,-1.21,Forward Fall while Standing
59:09.1,476,499,748.5,996,193,4.3,232.53,0.94,20723.77,208,218,20723.85,215,429477984,4294875502,1086,0.99,-0.1,0.16,-3.27,1.45,-5.71,-6.55,-77.66,-19.57,1.83,6.05,-19.05,-1.35,Forward Fall while Standing
59:09.3,0,491,736.5,996,193,4.3,232.53,0.94,20723.77,208,219,20723.85,215,429477984,4294857927,1305,0.99,-0.12,0.19,-1.99,-1.2,0.86,-7.25,-75.57,-19.76,1.42,6.26,-19.26,-1.66,Forward Fall while Standing
59:09.4,492,491,736.5,996,193,4.3,232.53,0.94,20723.77,208,220,20723.85,215,429477984,4294840791,1525,1,-0.13,0.18,3.55,2.4,1.81,-8.14,-75.93,-19.23,1.47,6.59,-18.79,-1.63,Forward Fall while Standing
59:09.5,470,491,736.5,996,192,4.33,231.05,0.94,20723.77,208,221,20723.85,215,429477984,4294824096,1746,1.01,-0.12,0.14,1.69,1.69,-1.89,-7.27,-78.05,-18.95,1.43,6.45,-18.48,-1.75,Forward Fall while Standing
59:09.6,78,485,727.5,996,193,4.3,232.53,0.94,20723.77,208,221,20723.85,215,429477984,4294807401,1967,1.02,-0.11,0.16,-0.79,11.14,-2.97,-6.66,-77.62,-18.98,2.59,6.17,-18.49,-0.62,Forward Fall while Standing
59:09.8,555,486,729,996,193,4.3,232.53,0.94,20723.63,193,227,20723.88,219,429479328,0,0,0.98,-0.11,0.19,-4.74,5.44,-4.89,-7.07,-75.57,-19.5,3.02,5.66,-19.01,-0.12,Forward Fall while Standing
59:09.9,866,491,736.5,996,195,4.25,235.51,0.95,20723.63,193,242,20723.88,219,429479328,4294960324,242,0.97,-0.08,0.22,2.06,8.95,-3.21,-5.39,-74.9,-19.17,3.91,5.35,-18.62,0.75,Forward Fall while Standing
59:10.0,603,493,739.5,996,197,4.19,238.5,0.96,20723.63,193,244,20723.88,219,429479328,4294954324,486,0.96,-0.11,0.22,-1.02,-5.44,3.53,-6.89,-73.95,-19.23,2.96,5.9,-18.74,-0.12,Forward Fall while Standing
59:10.1,914,499,748.5,996,199,4.14,241.5,0.97,20723.63,193,246,20723.88,219,429479328,4294949304,732,0.97,-0.11,0.2,6.94,-0.79,1.95,-6.77,-75.2,-18.28,2.61,6.25,-17.82,-0.51,Forward Fall while Standing
59:14.4,875,875,1312.5,875,222,3.61,277.15,1.09,0,0,267,0,0,0,11506,534,0.98,-0.12,0.24,2.64,1.24,-2.73,-7.36,-73.16,0.68,-0.12,-0.74,0.36,-3.04,Sitting
59:14.5,906,890,1335,906,222,3.61,277.15,1.09,0,0,266,0,0,0,16726,800,0.95,-0.13,0.25,3.31,-0.81,-2.99,-8.36,-71.91,1.16,-0.46,-1.01,0.78,-3.32,Sitting
59:14.6,740,840,1260,906,223,3.59,278.75,1.09,0,0,266,0,0,0,21946,1066,0.96,-0.12,0.27,3.47,3.67,-1.66,-7.63,-71.44,1.65,-0.25,-1.12,1.28,-3.1,Sitting
59:14.7,507,757,1135.5,906,222,3.61,277.15,1.09,0,0,266,0,0,0,27166,1332,0.96,-0.1,0.25,-2.27,2.73,-1.6,-6.37,-72.8,1.44,-0.16,-1.22,1.13,-3.07,Sitting
59:14.9,361,677,1015.5,906,222,3.61,277.15,1.09,0,0,265,0,0,0,31855,1597,0.96,-0.12,0.25,-2.44,-2.6,1.05,-7.74,-71.98,1.21,-0.73,-0.99,0.85,-3.58,Sitting
59:15.0,334,620,930,906,222,3.61,277.15,1.09,0,0,265,0,0,0,36544,1862,0.97,-0.12,0.26,-0.34,1.95,-3.46,-7.15,-72.12,1.24,-0.73,-1.32,0.9,-3.59,Sitting
59:15.1,351,582,873,906,222,3.61,277.15,1.09,0,0,265,0,0,0,41233,2127,0.96,-0.1,0.23,-2.98,-0.96,-1.98,-6.47,-73.56,0.94,-1.1,-1.46,0.65,-3.99,Sitting
59:15.2,441,564,846,906,222,3.61,277.15,1.09,0,0,264,0,0,0,45393,2391,0.98,-0.1,0.23,-3.61,0.55,-3.52,-6.14,-74.15,0.57,-1.27,-1.8,0.3,-4.19,Sitting
59:15.3,544,562,843,906,221,3.63,275.56,1.08,20723.91,222,204,46.34,259,2146,0,0,0.88,-0.11,0.34,-2.48,-6.08,-1.76,-7.02,-66.36,0.33,-2.27,-1.92,0.04,-4.83,Sitting
59:15.5,600,565,847.5,906,214,3.78,264.52,1.05,20723.91,222,220,46.34,259,2146,4294950160,220,0.99,-0.1,0.23,-1.98,3.53,-3.66,-6.06,-74.05,0.15,-2.08,-2.28,-0.09,-4.95,Sitting
59:15.6,142,527,790.5,906,209,3.89,256.76,1.02,20723.91,222,214,46.34,259,2146,4294930420,434,0.96,-0.1,0.26,-1.47,-0.56,-3.85,-6.15,-72.51,0.04,-2.4,-2.66,-0.21,-5.2,Sitting
59:15.7,8,484,726,906,206,3.97,252.14,1.01,20723.91,222,229,46.34,259,2146,4294917325,663,0.98,-0.08,0.36,-7.4,0.67,-1.99,-5.2,-67.79,-0.81,-2.56,-2.81,-0.99,-5.17,Sitting
59:15.8,263,467,700.5,906,203,4.04,247.56,0.99,20723.91,222,219,46.34,259,2146,4294899750,882,0.98,-0.08,0.27,-3.12,3.34,-3.99,-5.02,-72.29,-1.14,-2.39,-3.21,-1.29,-5.19,Sitting
59:16.0,673,481,721.5,906,203,4.04,247.56,0.99,20723.91,222,247,46.34,259,2146,4294895223,1129,0.95,-0.09,0.23,-3.15,-2.11,-0.32,-5.56,-73.86,-1.46,-2.91,-3.15,-1.62,-5.75,Sitting
59:16.1,312,470,705,906,204,4.01,249.08,1,20723.91,222,250,46.34,259,2146,4294892187,1379,0.97,-0.11,0.23,-2.01,-2.95,2.13,-6.74,-73.51,-1.64,-3.53,-2.79,-1.85,-6.33,Sitting
59:16.2,391,465,697.5,906,205,3.99,250.61,1,20723.91,222,253,46.34,259,2146,4294890660,1632,0.99,-0.11,0.24,-7.96,-1.2,3.15,-6.63,-73.39,-2.58,-3.93,-2.29,-2.74,-6.71,Sitting
59:16.3,808,485,727.5,906,208,3.92,255.21,1.02,20723.91,222,256,46.34,259,2146,4294890660,1888,0.99,-0.1,0.24,0.17,10.96,-5.36,-6.37,-73.75,-2.48,-2.81,-2.87,-2.64,-5.64,Sitting
59:16.5,699,497,745.5,906,210,3.87,258.3,1.03,20723.91,222,259,46.34,259,2146,4294892205,2147,0.97,-0.1,0.23,-2.25,-0.31,-3.29,-6.15,-74.14,-2.7,-3.09,-3.18,-2.83,-5.94,Sitting
59:16.6,333,488,732,906,211,3.85,259.85,1.03,20723.76,207,260,20724.13,240,429489440,0,0,0.96,-0.09,0.22,-0.44,1.21,-1.71,-5.87,-74.27,-2.68,-3.19,-3.29,-2.81,-6.04,Sitting
59:16.7,471,487,730.5,906,213,3.8,262.96,1.04,20723.76,207,264,20724.13,240,429489440,4160,264,0.95,-0.1,0.23,-2.53,4.85,0.88,-6.2,-73.5,-2.93,-2.84,-3.09,-3.06,-5.66,Sitting
59:16.8,897,507,760.5,906,216,3.74,267.66,1.06,20723.76,207,266,20724.13,240,429489440,9380,530,0.98,-0.1,0.25,-2.35,6.43,-0.23,-6.08,-73.04,-3.15,-2.28,-3.02,-3.27,-5.11,Sitting
59:17.0,445,504,756,906,217,3.71,269.23,1.06,20723.76,207,267,20724.13,240,429489440,15133,797,0.97,-0.11,0.24,-4.6,-2.43,-2.29,-6.81,-73.08,-3.66,-2.84,-3.2,-3.79,-5.65,Sitting
59:17.1,231,492,738,906,218,3.69,270.81,1.07,20723.76,207,269,20724.13,240,429489440,21958,1066,0.95,-0.1,0.25,-4.3,-4.05,-2.53,-6.53,-72.33,-4.13,-3.6,-3.42,-4.23,-6.35,Sitting
59:17.2,672,500,750,906,220,3.65,273.97,1.08,20723.76,207,270,20724.13,240,429489440,29322,1336,0.95,-0.09,0.24,-2.92,4.18,0.49,-5.69,-73.27,-4.43,-3.32,-3.26,-4.48,-6.12,Sitting
59:17.4,637,505,757.5,906,221,3.63,275.56,1.08,20723.76,207,271,20724.13,240,429489440,37227,1607,0.97,-0.1,0.27,-4.52,3.13,1.13,-6.4,-71.83,-4.93,-3.18,-3.02,-4.99,-5.93,Sitting
59:17.5,239,495,742.5,906,222,3.61,277.15,1.09,20723.76,207,271,20724.13,240,429489440,45132,1878,0.96,-0.11,0.26,-4.84,-1.12,-0.02,-7.09,-71.75,-5.47,-3.57,-2.92,-5.53,-6.3,Sitting
59:17.6,494,495,742.5,906,223,3.59,278.75,1.09,20723.76,207,272,20724.13,240,429489440,53580,2150,0.95,-0.11,0.25,-3.54,-4.02,-1.55,-6.79,-72.28,-5.85,-4.33,-3.02,-5.88,-7.05,Sitting
59:17.7,679,501,751.5,906,223,3.59,278.75,1.09,20723.76,207,273,20724.13,240,429489440,62573,2423,0.98,-0.11,0.24,1.37,2.08,0.05,-6.74,-73.44,-5.6,-4.32,-2.91,-5.65,-7.09,Sitting
59:17.9,185,490,735,906,224,3.57,280.35,1.09,20723.89,219,272,84.27,269,7101,0,0,0.99,-0.11,0.23,-0.64,0.73,2.11,-7.03,-73.88,-5.61,-4.48,-2.56,-5.67,-7.25,Sitting
59:18.0,198,481,721.5,906,224,3.57,280.35,1.09,20723.89,219,272,84.27,269,7101,8448,272,0.96,-0.14,0.23,0.22,7.33,0.7,-8.61,-72.59,-5.51,-3.82,-2.37,-5.64,-6.57,Sitting
59:18.1,459,480,720,906,224,3.57,280.35,1.09,20723.89,219,272,84.27,269,7101,16896,544,0.98,-0.12,0.25,-4.41,-2.02,1.96,-7.52,-72.49,-5.99,-4.32,-2.03,-6.06,-7.05,Sitting
59:18.2,860,492,738,906,224,3.57,280.35,1.09,20723.89,219,273,84.27,269,7101,25889,817,0.96,-0.13,0.26,-1.05,-1.04,-0.47,-8.05,-71.35,-6.06,-4.7,-1.99,-6.14,-7.36,Sitting
59:18.4,671,497,745.5,906,224,3.57,280.35,1.09,20723.89,219,272,84.27,269,7101,34337,1089,0.97,-0.12,0.22,-2.49,4.7,-0.95,-7.36,-73.82,-6.3,-4.36,-2.01,-6.34,-7.14,Sitting
59:18.5,241,490,735,906,224,3.57,280.35,1.09,20723.89,219,271,84.27,269,7101,42242,1360,0.97,-0.13,0.26,-2.08,3.76,-3.89,-7.94,-71.57,-6.49,-4.14,-2.39,-6.55,-6.84,Sitting
59:18.6,428,488,732,906,224,3.57,280.35,1.09,20723.89,219,272,84.27,269,7101,50690,1632,0.94,-0.13,0.26,-3.87,1.02,-4.8,-8.31,-70.91,-6.9,-4.26,-2.9,-6.96,-6.93,Sitting
59:18.7,846,498,747,906,224,3.57,280.35,1.09,20723.89,219,272,84.27,269,7101,59138,1904,0.94,-0.11,0.27,-2.12,2.76,2.12,-7.24,-71.21,-7.09,-4.17,-2.53,-7.1,-6.85,Sitting
59:18.9,893,509,763.5,906,224,3.57,280.35,1.09,20723.89,219,272,84.27,269,7101,67586,2176,0.98,-0.13,0.26,0.46,0.32,2.1,-8.01,-71.85,-6.97,-4.38,-2.17,-7.01,-7.08,Sitting
59:19.0,369,505,757.5,906,224,3.57,280.35,1.09,20723.89,219,272,84.27,269,7101,76034,2448,0.98,-0.15,0.26,-4.95,-2.03,-1.44,-8.78,-71.59,-7.51,-4.88,-2.25,-7.56,-7.54,Sitting
59:19.1,287,499,748.5,906,224,3.57,280.35,1.09,20723.93,224,271,91.61,271,8392,0,0,0.96,-0.12,0.26,1.02,5.19,-3.56,-7.68,-71.91,-7.32,-4.48,-2.6,-7.33,-7.18,Sitting
59:19.2,453,498,747,906,224,3.57,280.35,1.09,20723.93,224,270,91.61,271,8392,7364,270,0.95,-0.13,0.25,-3.93,-7.15,1.61,-8.06,-72.12,-7.73,-5.61,-2.3,-7.75,-8.27,Sitting
59:19.4,700,503,754.5,906,224,3.57,280.35,1.09,20723.93,224,271,91.61,271,8392,15269,541,0.97,-0.13,0.26,-3.3,5.21,-1.31,-8.13,-71.85,-8.08,-5.21,-2.37,-8.08,-7.88,Sitting
59:19.5,480,502,753,906,223,3.59,278.75,1.09,20723.93,224,270,91.61,271,8392,22633,811,0.97,-0.15,0.26,-1.62,5.97,-4.02,-9.02,-71.11,-8.21,-4.72,-2.77,-8.24,-7.37,Sitting
59:19.6,115,493,739.5,906,223,3.59,278.75,1.09,20723.93,224,270,91.61,271,8392,29997,1081,0.95,-0.12,0.28,-4.02,0.36,-1.94,-7.68,-70.58,-8.64,-4.92,-2.91,-8.6,-7.55,Sitting
59:19.7,237,488,732,906,223,3.59,278.75,1.09,20723.93,224,269,91.61,271,8392,36822,1350,0.96,-0.12,0.3,-5.55,-1.82,-0.57,-7.66,-69.78,-9.26,-5.4,-2.89,-9.2,-7.97,Sitting
59:19.9,629,491,736.5,906,223,3.59,278.75,1.09,20723.93,224,269,91.61,271,8392,43647,1619,0.96,-0.14,0.29,1.5,1.77,0.33,-8.27,-70.18,-9.01,-5.43,-2.75,-8.98,-8.02,Sitting
59:20.0,701,495,742.5,906,223,3.59,278.75,1.09,20723.93,224,270,91.61,271,8392,51011,1889,0.96,-0.14,0.26,0.25,-0.82,-1.95,-8.48,-71.25,-8.91,-5.78,-2.89,-8.89,-8.4,Sitting
59:20.1,269,490,735,906,222,3.61,277.15,1.09,20723.93,224,269,91.61,271,8392,57836,2158,0.96,-0.14,0.25,0.46,0.75,-0.9,-8.47,-71.89,-8.78,-5.94,-2.9,-8.77,-8.57,Sitting
59:20.2,225,485,727.5,906,222,3.61,277.15,1.09,20723.93,224,269,91.61,271,8392,64661,2427,0.97,-0.13,0.25,-2.08,-0.58,-1.76,-8,-72.07,-8.97,-6.26,-3.03,-8.93,-8.89,Sitting
59:20.4,640,488,732,906,222,3.61,277.15,1.09,20723.92,222,269,84.55,269,7147,0,0,0.96,-0.13,0.24,-2.24,1.73,-1.83,-7.9,-72.38,-9.18,-6.29,-3.15,-9.12,-8.93,Sitting
59:20.5,713,493,739.5,906,222,3.61,277.15,1.09,20723.92,222,269,84.55,269,7147,6825,269,0.94,-0.13,0.25,-2.8,0.66,-0.44,-7.96,-71.59,-9.45,-6.45,-3.11,-9.39,-9.06,Sitting
59:20.6,544,494,741,906,222,3.61,277.15,1.09,20723.92,222,269,84.55,269,7147,13650,538,0.96,-0.13,0.28,-1.52,3.05,0.44,-8.05,-70.51,-9.57,-6.32,-2.96,-9.51,-8.89,Sitting
59:20.7,225,488,732,906,222,3.61,277.15,1.09,20723.92,222,268,84.55,269,7147,19938,806,0.97,-0.15,0.26,-2.53,-0.98,0.6,-9.03,-71.11,-9.82,-6.69,-2.79,-9.79,-9.27,Sitting
59:20.8,279,484,726,906,222,3.61,277.15,1.09,20723.92,222,268,84.55,269,7147,26226,1074,0.96,-0.14,0.26,0.2,2.63,-2.04,-8.62,-71.12,-9.72,-6.61,-2.94,-9.68,-9.19,Sitting
59:21.0,661,488,732,906,222,3.61,277.15,1.09,20723.92,222,268,84.55,269,7147,32514,1342,0.96,-0.13,0.26,-1.92,-0.15,-1.79,-8.13,-71.76,-9.89,-6.88,-3.07,-9.82,-9.48,Sitting
59:21.1,842,494,741,906,222,3.61,277.15,1.09,20723.92,222,268,84.55,269,7147,38802,1610,0.97,-0.14,0.26,-2.4,2.1,-2.45,-8.41,-71.66,-10.12,-6.87,-3.27,-10.06,-9.46,Sitting
59:21.2,397,492,738,906,221,3.63,275.56,1.08,20723.92,222,268,84.55,269,7147,45090,1878,0.95,-0.12,0.27,-2.81,-0.37,-2.48,-7.52,-71.39,-10.41,-7.17,-3.49,-10.29,-9.73,Sitting
59:21.3,354,490,735,906,221,3.63,275.56,1.08,20723.92,222,267,84.55,269,7147,50843,2145,0.97,-0.13,0.24,-3.3,-0.37,0.19,-7.99,-72.46,-10.75,-7.46,-3.36,-10.64,-10.06,Sitting
59:21.5,786,495,742.5,906,222,3.61,277.15,1.09,20723.92,222,267,84.55,269,7147,56596,2412,0.96,-0.13,0.26,-1.69,1.99,-2.3,-8.21,-71.37,-10.89,-7.46,-3.55,-10.78,-10.02,Sitting
59:21.6,915,502,753,915,222,3.61,277.15,1.09,20723.91,221,267,78.96,267,6233,0,0,0.96,-0.13,0.24,-3.21,1.57,-2.76,-8.26,-72.43,-11.22,-7.52,-3.8,-11.1,-10.11,Sitting
59:21.7,509,502,753,915,221,3.63,275.56,1.08,20723.91,221,267,78.96,267,6233,5753,267,0.95,-0.14,0.26,-3.65,1.07,-2.74,-8.53,-71.38,-11.61,-7.63,-4.04,-11.48,-10.18,Sitting
59:21.8,410,501,751.5,915,222,3.61,277.15,1.09,20723.91,221,267,78.96,267,6233,11506,534,0.96,-0.13,0.27,-3.24,-0.86,-0.18,-8.07,-71.07,-11.94,-7.99,-3.96,-11.78,-10.51,Sitting
59:22.0,633,503,754.5,915,222,3.61,277.15,1.09,20723.91,221,267,78.96,267,6233,17259,801,0.97,-0.13,0.26,-2.17,0.44,-1.54,-7.96,-71.71,-12.14,-8.18,-4.06,-11.97,-10.72,Sitting
59:22.1,890,509,763.5,915,223,3.59,278.75,1.09,20723.91,221,267,78.96,267,6233,23012,1068,0.96,-0.12,0.25,-2.57,1.34,-2.44,-7.58,-72.25,-12.39,-8.27,-4.27,-12.2,-10.83,Sitting
59:22.2,406,507,760.5,915,222,3.61,277.15,1.09,20723.91,221,267,78.96,267,6233,28765,1335,0.95,-0.12,0.27,-2.12,2.52,-1.56,-7.53,-71.1,-12.59,-8.2,-4.36,-12.39,-10.72,Sitting
59:22.4,259,504,756,915,222,3.61,277.15,1.09,20723.91,221,267,78.96,267,6233,34518,1602,0.96,-0.13,0.27,-0.55,0.66,-0.06,-8.25,-71.16,-12.59,-8.37,-4.27,-12.41,-10.88,Sitting
59:22.5,590,505,757.5,915,223,3.59,278.75,1.09,20723.91,221,267,78.96,267,6233,40271,1869,0.96,-0.13,0.26,-1.99,-0.31,-0.85,-7.9,-71.78,-12.77,-8.66,-4.28,-12.57,-11.18,Sitting
59:22.6,566,506,759,915,223,3.59,278.75,1.09,20723.91,221,267,78.96,267,6233,46024,2136,0.97,-0.13,0.26,-0.93,2.22,-2.64,-7.98,-71.88,-12.81,-8.63,-4.51,-12.62,-11.16,Sitting
59:22.7,264,502,753,915,223,3.59,278.75,1.09,20723.91,221,266,78.96,267,6233,51244,2402,0.95,-0.13,0.28,-2.09,6.83,-3.51,-8.1,-70.51,-13,-8.03,-4.85,-12.81,-10.53,Sitting
59:22.8,354,500,750,915,223,3.59,278.75,1.09,20723.91,222,266,75.14,266,5645,0,0,0.95,-0.11,0.28,-3.88,1.68,-3.21,-7.11,-70.67,-13.42,-8.07,-5.15,-13.16,-10.57,Sitting
59:23.0,728,503,754.5,915,223,3.59,278.75,1.09,20723.91,222,266,75.14,266,5645,5220,266,0.94,-0.12,0.28,-2.11,-1.05,-0.85,-7.77,-70.57,-13.61,-8.45,-5.16,-13.38,-10.93,Sitting
59:23.1,753,507,760.5,915,223,3.59,278.75,1.09,20723.91,222,266,75.14,266,5645,10440,532,0.96,-0.12,0.26,-1.91,1.16,-0.87,-7.37,-71.61,-13.78,-8.55,-5.17,-13.52,-11.08,Sitting
59:23.2,312,504,756,915,222,3.61,277.15,1.09,20723.91,222,266,75.14,266,5645,15660,798,0.97,-0.11,0.28,-1.93,-0.09,-0.61,-7.01,-71.23,-13.95,-8.82,-5.15,-13.67,-11.31,Sitting
59:23.3,206,500,750,915,222,3.61,277.15,1.09,20723.91,222,266,75.14,266,5645,20880,1064,0.96,-0.13,0.27,-2.39,-0.59,-1.63,-8.05,-71.2,-14.18,-9.14,-5.25,-13.93,-11.62,Sitting
59:23.5,653,502,753,915,222,3.61,277.15,1.09,20723.91,222,266,75.14,266,5645,26100,1330,0.96,-0.12,0.27,-0.79,2.87,-1.54,-7.4,-71.16,-14.21,-9.03,-5.35,-13.93,-11.51,Sitting
59:23.6,738,505,757.5,915,222,3.61,277.15,1.09,20723.91,222,266,75.14,266,5645,31320,1596,0.95,-0.12,0.28,-1.6,0.34,0.01,-7.29,-70.77,-14.34,-9.24,-5.25,-14.05,-11.7,Sitting
59:23.7,127,500,750,915,221,3.63,275.56,1.08,20723.91,222,266,75.14,266,5645,36540,1862,0.96,-0.12,0.28,-0.37,0.85,-0.27,-7.57,-70.94,-14.31,-9.38,-5.18,-14.04,-11.84,Sitting
59:23.9,328,498,747,915,221,3.63,275.56,1.08,20723.91,222,266,75.14,266,5645,41760,2128,0.96,-0.13,0.28,-1.51,2.17,-0.44,-7.89,-70.78,-14.43,-9.36,-5.14,-14.17,-11.82,Sitting
59:24.0,805,502,753,915,221,3.63,275.56,1.08,20723.91,222,266,75.14,266,5645,46980,2394,0.96,-0.13,0.28,-0.02,1.95,-0.88,-7.8,-70.82,-14.36,-9.37,-5.15,-14.1,-11.82,Sitting
59:24.1,835,506,759,915,221,3.63,275.56,1.08,20723.91,221,266,72.25,266,5219,0,0,0.96,-0.11,0.27,-1.03,0.75,0.09,-7.14,-71.48,-14.42,-9.52,-5.04,-14.13,-12,Sitting
59:24.2,316,504,756,915,220,3.65,273.97,1.08,20723.91,221,265,72.25,266,5219,4689,265,0.97,-0.13,0.28,-3.02,-0.66,-1.6,-7.67,-71.09,-14.73,-9.85,-5.14,-14.45,-12.3,Sitting
59:24.4,288,501,751.5,915,220,3.65,273.97,1.08,20723.91,221,264,72.25,266,5219,8849,529,0.93,-0.12,0.26,-3.15,1.4,-1.93,-7.71,-71.15,-15.05,-9.93,-5.28,-14.76,-12.38,Sitting
59:24.5,659,503,754.5,915,220,3.65,273.97,1.08,20723.91,221,265,72.25,266,5219,13538,794,0.95,-0.1,0.27,0.29,1.01,-0.63,-6.19,-71.77,-14.95,-10.05,-5.26,-14.6,-12.52,Sitting
59:24.6,829,507,760.5,915,220,3.65,273.97,1.08,20723.91,221,265,72.25,266,5219,18227,1059,0.97,-0.13,0.26,0.1,4.54,1.6,-8.17,-71.65,-14.86,-9.74,-4.96,-14.6,-12.21,Sitting
59:24.7,262,504,756,915,221,3.63,275.56,1.08,20723.91,221,265,72.25,266,5219,22916,1324,0.97,-0.15,0.28,-0.47,2.08,-0.98,-9,-70.37,-14.85,-9.73,-4.99,-14.62,-12.15,Sitting
59:24.9,280,501,751.5,915,221,3.63,275.56,1.08,20723.91,221,265,72.25,266,5219,27605,1589,0.96,-0.13,0.27,-2.07,-1.43,-2.02,-7.8,-70.99,-15.04,-10.15,-5.14,-14.75,-12.59,Sitting
59:25.0,727,504,756,915,222,3.61,277.15,1.09,20723.91,221,265,72.25,266,5219,32294,1854,0.95,-0.14,0.27,-3.78,-0.52,-4.34,-8.37,-70.66,-15.45,-10.47,-5.59,-15.16,-12.88,Sitting
59:25.1,579,505,757.5,915,221,3.63,275.56,1.08,20723.91,221,265,72.25,266,5219,36983,2119,0.95,-0.12,0.29,-1.52,3.58,-2.21,-7.22,-70.41,-15.57,-10.27,-5.77,-15.23,-12.68,Sitting
59:25.2,235,502,753,915,222,3.61,277.15,1.09,20723.91,221,264,72.25,266,5219,41143,2383,0.95,-0.12,0.27,-3.49,-2.28,-2.56,-7.4,-71.04,-15.93,-10.81,-5.99,-15.59,-13.22,Sitting
59:25.4,441,501,751.5,915,222,3.61,277.15,1.09,20723.9,220,265,67.7,264,4582,0,0,0.96,-0.14,0.3,-4.12,5.04,0.71,-8.44,-69.59,-16.38,-10.43,-5.8,-16.06,-12.8,Sitting
59:25.5,798,504,756,915,223,3.59,278.75,1.09,20723.9,220,265,67.7,264,4582,4689,265,0.96,-0.12,0.28,-2.78,0.87,-3.13,-7.21,-70.8,-16.66,-10.57,-6.09,-16.28,-12.98,Sitting
59:25.6,637,506,759,915,223,3.59,278.75,1.09,20723.9,220,265,67.7,264,4582,9378,530,0.95,-0.13,0.29,-2.95,1.95,-3.36,-8.14,-69.81,-16.95,-10.58,-6.41,-16.6,-12.95,Sitting
59:25.7,318,504,756,915,223,3.59,278.75,1.09,20723.9,220,265,67.7,264,4582,14067,795,0.94,-0.13,0.28,-2.44,-0.4,-0.93,-8.17,-70.18,-17.19,-10.88,-6.43,-16.83,-13.25,Sitting
59:25.9,444,503,754.5,915,223,3.59,278.75,1.09,20723.9,220,265,67.7,264,4582,18756,1060,0.94,-0.14,0.29,-4.24,4.39,2.04,-8.41,-69.77,-17.65,-10.58,-6.07,-17.28,-12.94,Sitting
59:26.0,768,506,759,915,223,3.59,278.75,1.09,20723.9,220,264,67.7,264,4582,22916,1324,0.97,-0.13,0.32,-3.22,7.82,-2.42,-8.08,-68.82,-17.99,-9.85,-6.28,-17.59,-12.21,Sitting
59:26.1,516,506,759,915,223,3.59,278.75,1.09,20723.9,220,265,67.7,264,4582,27605,1589,0.95,-0.13,0.32,-2.66,-1.26,-4.47,-7.79,-68.79,-18.25,-10.26,-6.74,-17.83,-12.6,Sitting
59:26.2,200,503,754.5,915,223,3.59,278.75,1.09,20723.9,220,265,67.7,264,4582,32294,1854,0.92,-0.12,0.32,-1.62,0.47,-2.72,-7.49,-68.31,-18.38,-10.45,-6.98,-17.95,-12.76,Sitting
59:26.4,439,502,753,915,223,3.59,278.75,1.09,20723.9,220,265,67.7,264,4582,36983,2119,0.94,-0.11,0.3,-0.48,0.31,0.81,-6.91,-69.51,-18.37,-10.66,-6.78,-17.91,-13.02,Sitting
59:26.5,744,505,757.5,915,223,3.59,278.75,1.09,20723.9,220,265,67.7,264,4582,41672,2384,0.97,-0.13,0.29,-2.14,-1.31,-0.27,-7.79,-70.29,-18.57,-11.08,-6.71,-18.14,-13.44,Sitting
59:26.6,316,503,754.5,915,223,3.59,278.75,1.09,20723.92,223,265,68.09,264,4635,0,0,0.95,-0.12,0.28,-1.14,3.25,-1.24,-7.77,-70.31,-18.64,-10.92,-6.77,-18.21,-13.3,Sitting
59:26.7,183,500,750,915,222,3.61,277.15,1.09,20723.92,223,265,68.09,264,4635,4689,265,0.95,-0.12,0.29,-2.37,1.22,-0.85,-7.31,-70.11,-18.87,-11.02,-6.78,-18.4,-13.38,Sitting
59:26.9,471,495,742.5,915,222,3.61,277.15,1.09,20723.92,223,265,68.09,264,4635,9378,530,0.95,-0.13,0.31,-1.75,3.01,-2.22,-8.03,-69.1,-19.02,-10.89,-6.96,-18.58,-13.22,Sitting
59:27.0,699,493,739.5,915,222,3.61,277.15,1.09,20723.92,223,265,68.09,264,4635,14067,795,0.94,-0.12,0.3,-1.77,0.63,-2.17,-7.33,-69.58,-19.17,-11.06,-7.13,-18.69,-13.4,Sitting
59:27.1,404,490,735,915,222,3.61,277.15,1.09,20723.92,223,265,68.09,264,4635,18756,1060,0.94,-0.12,0.3,-1.47,-0.26,1.23,-7.26,-69.74,-19.28,-11.35,-6.88,-18.8,-13.68,Sitting
59:27.2,186,487,730.5,915,221,3.63,275.56,1.08,20723.92,223,265,68.09,264,4635,23445,1325,0.96,-0.13,0.3,0.23,1.92,-1.17,-7.73,-69.92,-19.18,-11.36,-6.92,-18.72,-13.7,Sitting
59:27.4,537,489,733.5,915,221,3.63,275.56,1.08,20723.92,223,265,68.09,264,4635,28134,1590,0.95,-0.12,0.28,-1.24,1.25,-2.1,-7.4,-70.66,-19.27,-11.45,-7.09,-18.79,-13.82,Sitting
59:30.0,478,478,717,478,228,3.49,286.79,1.11,0,0,267,0,0,0,11506,534,0.95,0.07,0.22,-4.08,3.22,-3.3,3.32,-75,-0.23,0.05,-1.32,-0.09,-2.95,Left Fall while Sitting
59:30.1,632,555,832.5,632,229,3.47,288.41,1.12,0,0,268,0,0,0,17794,802,0.98,0.06,0.22,-3.83,1.27,1.73,2.9,-75.2,-0.63,-0.04,-1.01,-0.49,-3.05,Left Fall while Sitting
59:30.2,805,638,957,805,229,3.47,288.41,1.12,0,0,268,0,0,0,24082,1070,0.99,0.06,0.23,-1.15,1.2,-8.39,2.73,-75.06,-0.7,-0.14,-1.94,-0.56,-3.13,Left Fall while Sitting
59:30.4,811,681,1021.5,811,230,3.45,290.04,1.12,0,0,268,0,0,0,30370,1338,0.97,0.09,0.23,-1.22,-4.94,-16.21,4.62,-74.25,-0.78,-0.98,-3.82,-0.57,-3.92,Left Fall while Sitting
59:30.5,711,687,1030.5,811,230,3.45,290.04,1.12,0,0,268,0,0,0,36658,1606,0.97,0.12,0.22,4.2,-3.41,-18.24,6.56,-73.63,-0.2,-1.65,-5.97,0.07,-4.53,Left Fall while Sitting
59:30.6,483,653,979.5,811,230,3.45,290.04,1.12,0,0,268,0,0,0,42946,1874,0.94,0.18,0.19,5.1,-4.58,-24.91,9.89,-72.89,0.49,-2.45,-8.91,0.87,-5.27,Left Fall while Sitting
59:30.7,339,608,912,811,230,3.45,290.04,1.12,0,0,268,0,0,0,49234,2142,0.95,0.24,0.14,4.03,-6.69,-24.42,13.44,-72.02,1.05,-3.51,-11.8,1.55,-6.25,Left Fall while Sitting
59:30.9,323,572,858,811,230,3.45,290.04,1.12,0,0,268,0,0,0,55522,2410,0.92,0.3,0.13,7.31,-4.52,-22.71,17.43,-68.77,2.02,-4.31,-14.49,2.64,-6.89,Left Fall while Sitting
59:31.0,345,547,820.5,811,230,3.45,290.04,1.12,20723.99,229,268,78.62,267,6180,0,0,0.92,0.34,0.15,3.56,-2.12,-23,19.59,-66.24,2.53,-4.83,-17.25,3.21,-7.28,Left Fall while Sitting
59:31.1,586,551,826.5,811,230,3.45,290.04,1.12,20723.99,229,268,78.62,267,6180,6288,268,0.92,0.37,0.14,4.53,-5.05,-21.79,20.94,-65.2,3.16,-5.7,-19.85,3.88,-8.08,Left Fall while Sitting
59:31.2,983,590,885,983,230,3.45,290.04,1.12,20723.99,229,269,78.62,267,6180,13113,537,0.89,0.41,0.14,1.97,-5.34,-21.41,24.13,-62.26,3.48,-6.61,-22.41,4.3,-8.84,Left Fall while Sitting
59:31.4,813,609,913.5,983,230,3.45,290.04,1.12,20723.99,229,268,78.62,267,6180,19401,805,0.85,0.46,0.07,-6.68,-2.88,-16.92,27.74,-59.71,2.71,-7.22,-24.42,3.71,-9.32,Left Fall while Sitting
59:31.5,579,606,909,983,230,3.45,290.04,1.12,20723.99,229,268,78.62,267,6180,25689,1073,0.9,0.48,0.12,-2.89,1.61,-10.8,27.21,-59.72,2.42,-7.27,-25.67,3.41,-9.37,Left Fall while Sitting
59:31.6,690,612,918,983,230,3.45,290.04,1.12,20723.99,229,268,78.62,267,6180,31977,1341,0.87,0.49,0.13,9.09,-4.66,-23.21,28.56,-58.2,3.63,-8.1,-28.48,4.63,-10.11,Left Fall while Sitting
59:31.7,768,623,934.5,983,230,3.45,290.04,1.12,20723.99,229,268,78.62,267,6180,38265,1609,0.8,0.55,0.09,11.12,-1.91,-29.27,33.88,-53.48,5.08,-8.59,-32.01,6.23,-10.38,Left Fall while Sitting
59:31.8,517,616,924,983,231,3.43,291.67,1.13,20723.99,229,267,78.62,267,6180,44018,1876,0.76,0.59,0.04,7.11,5.26,-21.05,37.34,-50.38,6.04,-8.18,-34.54,7.29,-9.87,Left Fall while Sitting
59:32.0,146,588,882,983,231,3.43,291.67,1.13,20723.99,229,267,78.62,267,6180,49771,2143,0.76,0.64,0.05,3.76,4.13,-17.24,39.46,-48.21,6.57,-7.92,-36.58,7.89,-9.53,Left Fall while Sitting
59:32.1,223,568,852,983,231,3.43,291.67,1.13,20723.99,229,267,78.62,267,6180,55524,2410,0.66,0.7,0.06,9.63,5.24,1.41,46.24,-41.38,7.83,-7.51,-36.31,9.37,-8.87,Left Fall while Sitting
59:32.2,485,564,846,983,231,3.43,291.67,1.13,20724,230,267,78.28,267,6126,0,0,0.69,0.62,0.07,-10.24,-14.92,28.39,40.94,-46.54,6.63,-9.61,-32.69,8.01,-11.09,Left Fall while Sitting
59:32.3,722,571,856.5,983,232,3.41,293.3,1.13,20724,230,268,78.28,267,6126,6288,268,0.85,0.55,0.06,-0.58,13.66,9.79,32.39,-55.22,6.63,-8.17,-31.38,7.66,-10.05,Left Fall while Sitting
59:32.5,453,566,849,983,232,3.41,293.3,1.13,20724,230,267,78.28,267,6126,12041,535,0.89,0.58,0.03,-8.41,22.42,-9.63,32.65,-55.13,5.65,-5.61,-32.48,6.73,-7.59,Left Fall while Sitting
59:32.6,242,551,826.5,983,233,3.39,294.94,1.14,20724,230,268,78.28,267,6126,18329,803,0.83,0.6,0.11,-7.4,-8.97,-8.63,34.87,-52.32,4.8,-6.97,-33.45,6,-8.79,Left Fall while Sitting
59:32.7,282,539,808.5,983,233,3.39,294.94,1.14,20724,230,268,78.28,267,6126,24617,1071,0.78,0.61,0.04,-5.35,-8.03,-5.56,37.75,-50.02,4.2,-8.23,-34.05,5.54,-9.9,Left Fall while Sitting
59:32.8,577,541,811.5,983,233,3.39,294.94,1.14,20724,230,268,78.28,267,6126,30905,1339,0.75,0.64,0.06,-9.31,0.21,-15.21,39.6,-48.03,3.11,-8.45,-35.85,4.57,-10.03,Left Fall while Sitting
59:33.0,686,547,820.5,983,233,3.39,294.94,1.14,20724,230,268,78.28,267,6126,37193,1607,0.7,0.68,0.1,-3.21,9.64,-7.89,43.18,-44.03,2.78,-7.5,-36.74,4.4,-8.96,Left Fall while Sitting
59:33.1,323,538,807,983,233,3.39,294.94,1.14,20724,230,269,78.28,267,6126,44018,1876,0.75,0.62,0.13,-3.7,6.47,1.44,38.74,-48.03,2.39,-6.94,-36.46,3.84,-8.58,Left Fall while Sitting
59:33.2,295,529,793.5,983,233,3.39,294.94,1.14,20724,230,268,78.28,267,6126,50306,2144,0.77,0.66,0.1,0.85,-5.3,-5.66,39.59,-47.63,2.57,-7.85,-37.07,4.05,-9.44,Left Fall while Sitting
59:33.3,465,527,790.5,983,232,3.41,293.3,1.13,20724,230,269,78.28,267,6126,57131,2413,0.73,0.65,0.08,2.94,-1.13,-9.04,40.77,-46.71,3,-8.24,-38.09,4.51,-9.78,Left Fall while Sitting
59:33.5,717,533,799.5,983,231,3.43,291.67,1.13,20724.03,232,268,79.63,268,6340,0,0,0.71,0.68,0.06,0.16,1.15,-7.65,43.27,-44.36,3.09,-8.35,-38.93,4.69,-9.79,Left Fall while Sitting
59:33.6,619,536,804,983,231,3.43,291.67,1.13,20724.03,232,268,79.63,268,6340,6288,268,0.74,0.66,0.06,-6.09,0.34,-3.91,41.29,-46.34,2.4,-8.55,-39.32,3.95,-10.06,Left Fall while Sitting
59:33.7,377,531,796.5,983,230,3.45,290.04,1.12,20724.03,232,268,79.63,268,6340,12576,536,0.72,0.68,0.08,-2.77,-1.64,-16.7,42.46,-45.02,2.12,-9,-41.29,3.73,-10.44,Left Fall while Sitting
59:33.8,218,521,781.5,983,230,3.45,290.04,1.12,20724.03,232,267,79.63,268,6340,18329,803,0.67,0.72,0.07,-6.65,-6.04,-7.08,46.4,-41.16,1.36,-10.01,-42.08,3.16,-11.25,Left Fall while Sitting
59:34.0,498,520,780,983,229,3.47,288.41,1.12,20724.03,232,267,79.63,268,6340,24082,1070,0.64,0.74,0.08,-1.77,3.1,-4.68,48.1,-39.36,1.21,-9.87,-42.57,3.08,-11.05,Left Fall while Sitting
59:34.1,765,528,792,983,229,3.47,288.41,1.12,20724.03,232,267,79.63,268,6340,29835,1337,0.66,0.72,0.08,-2.12,-1.2,4.05,46.43,-40.99,1.01,-10.27,-41.96,2.83,-11.5,Left Fall while Sitting
59:34.2,457,526,789,983,229,3.47,288.41,1.12,20724.03,232,267,79.63,268,6340,35588,1604,0.7,0.7,0.1,-1.59,3.81,-0.05,44.27,-43.04,0.89,-10.05,-41.87,2.62,-11.37,Left Fall while Sitting
59:34.3,367,521,781.5,983,229,3.47,288.41,1.12,20724.03,232,268,79.63,268,6340,41876,1872,0.71,0.7,0.1,1.64,2.77,-8.33,44.05,-43.25,1.16,-9.95,-42.81,2.88,-11.28,Left Fall while Sitting
59:34.5,454,519,778.5,983,229,3.47,288.41,1.12,20724.03,232,267,79.63,268,6340,47629,2139,0.66,0.73,0.06,2.73,-5.83,-11.05,47.33,-40.28,1.57,-10.93,-44.09,3.4,-12.1,Left Fall while Sitting
59:34.6,822,527,790.5,983,229,3.47,288.41,1.12,20724.03,232,268,79.63,268,6340,53917,2407,0.65,0.73,0.05,-1.63,-0.37,-2.53,47.72,-39.96,1.44,-11.23,-44.31,3.29,-12.37,Left Fall while Sitting
59:34.7,593,529,793.5,983,229,3.47,288.41,1.12,20723.99,229,267,77.25,267,5966,0,0,0.64,0.73,0.05,-6.1,2.95,-0.46,47.88,-39.82,0.75,-11.11,-44.27,2.64,-12.26,Left Fall while Sitting
59:34.8,340,524,786,983,230,3.45,290.04,1.12,20723.99,229,267,77.25,267,5966,5753,267,0.65,0.73,0.06,-5.25,3.4,-1.4,47.26,-40.35,0.17,-10.93,-44.34,2.05,-12.11,Left Fall while Sitting
59:35.0,326,519,778.5,983,230,3.45,290.04,1.12,20723.99,229,267,77.25,267,5966,11506,534,0.67,0.75,0.07,-4.75,2.46,0.36,47.2,-40.37,-0.35,-10.88,-44.2,1.55,-12.06,Left Fall while Sitting
59:35.1,634,522,783,983,230,3.45,290.04,1.12,20723.99,229,266,77.25,267,5966,16726,800,0.65,0.72,0.09,-2.69,1.87,-1.38,46.99,-40.32,-0.61,-10.89,-44.28,1.29,-12.07,Left Fall while Sitting
59:35.2,881,530,795,983,230,3.45,290.04,1.12,20723.99,229,267,77.25,267,5966,22479,1067,0.66,0.72,0.09,-3.86,2.68,0.47,46.55,-40.78,-1.03,-10.81,-44.12,0.88,-12.01,Left Fall while Sitting
59:35.3,327,526,789,983,230,3.45,290.04,1.12,20723.99,229,267,77.25,267,5966,28232,1334,0.67,0.73,0.11,-3.27,2.82,-3.39,46.5,-40.58,-1.37,-10.71,-44.44,0.55,-11.9,Left Fall while Sitting
59:35.5,259,520,780,983,231,3.43,291.67,1.13,20723.99,229,266,77.25,267,5966,33452,1600,0.65,0.74,0.11,-4.02,-1.39,-0.74,47.79,-39.36,-1.8,-11.13,-44.44,0.19,-12.26,Left Fall while Sitting
59:35.6,550,521,781.5,983,231,3.43,291.67,1.13,20723.99,229,267,77.25,267,5966,39205,1867,0.63,0.72,0.08,0.93,-6.31,10.11,48.01,-39.4,-1.61,-12.17,-43.07,0.37,-13.26,Left Fall while Sitting
59:35.7,710,525,787.5,983,231,3.43,291.67,1.13,20723.99,229,266,77.25,267,5966,44425,2133,0.68,0.7,0.09,-5.37,-1.57,15.75,44.92,-42.43,-2.21,-12.62,-41.01,-0.33,-13.81,Left Fall while Sitting
59:35.8,233,518,777,983,231,3.43,291.67,1.13,20723.99,229,268,77.25,267,5966,50713,2401,0.72,0.67,0.08,-8.08,-1.03,16.68,41.94,-45.48,-3.15,-12.99,-38.82,-1.35,-14.29,Left Fall while Sitting
59:36.0,112,510,765,983,232,3.41,293.3,1.13,20724.01,230,269,75.85,267,5752,0,0,0.75,0.65,0.08,-5.63,0.9,14.18,40.43,-47.04,-3.78,-13.13,-36.97,-2.01,-14.49,Left Fall while Sitting
59:36.1,243,505,757.5,983,233,3.39,294.94,1.14,20724.01,230,269,75.85,267,5752,6825,269,0.77,0.63,0.09,-8.25,10.91,12.07,38.48,-48.86,-4.74,-12.02,-35.36,-3.01,-13.49,Left Fall while Sitting
59:36.2,558,506,759,983,234,3.37,296.58,1.14,20724.01,230,270,75.85,267,5752,14189,539,0.77,0.6,0.1,-10.74,1.51,17.18,37.16,-50,-6.02,-12.08,-33.12,-4.29,-13.59,Left Fall while Sitting
59:36.3,296,502,753,983,234,3.37,296.58,1.14,20724.01,230,270,75.85,267,5752,21553,809,0.82,0.55,0.18,-8.66,-0.77,15.26,32.59,-53.2,-7.04,-12.43,-31.09,-5.45,-14.06,Left Fall while Sitting
59:36.5,33,493,739.5,983,235,3.35,298.22,1.15,20724.01,230,269,75.85,267,5752,28378,1078,0.78,0.53,0.14,-3.23,3.38,15.18,33.13,-53.36,-7.37,-12.25,-29.1,-5.75,-13.9,Left Fall while Sitting
59:36.6,357,490,735,983,235,3.35,298.22,1.15,20724.01,230,270,75.85,267,5752,35742,1348,0.82,0.52,0.12,-5.27,-6.11,30.67,31.3,-55.51,-7.96,-13.27,-25.16,-6.39,-14.96,Left Fall while Sitting
59:36.7,937,499,748.5,983,236,3.33,299.87,1.15,20724.01,230,271,75.85,267,5752,43647,1619,0.94,0.4,0.13,-25.44,2.18,40.79,22.3,-64.37,-11.04,-13.25,-20.01,-9.71,-15.29,Left Fall while Sitting
59:36.8,414,497,745.5,983,236,3.33,299.87,1.15,20724.01,230,270,75.85,267,5752,51011,1889,0.9,0.29,0.2,-15.51,8.89,22.85,17.11,-66.9,-12.93,-12.38,-17.03,-11.73,-14.56,Left Fall while Sitting
59:37.0,357,495,742.5,983,237,3.32,301.53,1.16,20724.01,230,271,75.85,267,5752,58916,2160,0.94,0.27,0.2,-16.67,-1.6,15.73,14.99,-68.9,-14.96,-12.83,-14.95,-13.76,-15.07,Left Fall while Sitting
59:37.1,755,499,748.5,983,237,3.32,301.53,1.16,20724.01,230,271,75.85,267,5752,66821,2431,0.96,0.25,0.3,-21.81,-3.91,25.92,13.36,-66.17,-17.63,-13.58,-11.58,-16.39,-15.68,Left Fall while Sitting
59:37.2,937,506,759,983,237,3.32,301.53,1.16,20724.06,235,271,86.44,270,7471,0,0,0.94,0.16,0.22,-18.41,-12.98,37.52,8.57,-72.34,-19.85,-15.43,-6.83,-18.71,-17.71,Left Fall while Sitting
59:37.3,406,505,757.5,983,237,3.32,301.53,1.16,20724.06,235,271,86.44,270,7471,7905,271,0.97,0.05,0.21,-15.59,-15.88,35.31,2.5,-75.77,-21.74,-17.69,-2.28,-20.77,-20.01,Left Fall while Sitting
59:37.5,263,501,751.5,983,237,3.32,301.53,1.16,20724.06,235,271,86.44,270,7471,15810,542,0.93,-0.02,0.16,-3.39,-17.71,30.67,-1.91,-78.86,-22.09,-20.15,1.65,-21.29,-22.5,Left Fall while Sitting
59:37.6,549,502,753,983,237,3.32,301.53,1.16,20724.06,235,271,86.44,270,7471,23715,813,1.01,-0.08,0.08,-9.46,-27.34,35.17,-4.9,-82.08,-23.22,-23.85,6.18,-22.48,-26.18,Left Fall while Sitting
59:37.7,492,501,751.5,983,236,3.33,299.87,1.15,20724.06,235,272,86.44,270,7471,32163,1085,1.07,-0.18,0.03,-10.4,-16.04,5.2,-10.3,-78.6,-24.45,-26.1,6.93,-23.88,-28.2,Left Fall while Sitting
59:37.8,52,494,741,983,235,3.35,298.22,1.15,20724.06,235,271,86.44,270,7471,40068,1356,1.03,-0.16,-0.03,-7.8,12.28,-5.7,-9.68,-79.15,-25.36,-24.81,6.31,-24.73,-26.98,Left Fall while Sitting
59:38.0,222,490,735,983,235,3.35,298.22,1.15,20724.06,235,271,86.44,270,7471,47973,1627,1.02,-0.14,0.03,-6.49,0.68,-2.48,-8.34,-80.5,-26.11,-24.97,6.1,-25.4,-27.19,Left Fall while Sitting
59:38.1,601,492,738,983,235,3.35,298.22,1.15,20724.06,235,271,86.44,270,7471,55878,1898,1,-0.15,0.07,-4.73,-1.15,0.44,-8.85,-79.21,-26.63,-25.37,6.25,-25.92,-27.52,Left Fall while Sitting
59:38.2,479,492,738,983,234,3.37,296.58,1.14,20724.06,235,271,86.44,270,7471,63783,2169,1.02,-0.14,0.03,-3.94,-1.15,0.27,-8.51,-80.35,-27.05,-25.76,6.38,-26.31,-27.94,Left Fall while Sitting
59:38.3,147,487,730.5,983,234,3.37,296.58,1.14,20724.06,235,270,86.44,270,7471,71147,2439,1,-0.15,0.03,0.86,3.21,1.93,-9.18,-79.7,-26.87,-25.61,6.73,-26.16,-27.77,Left Fall while Sitting
59:38.5,362,485,727.5,983,234,3.37,296.58,1.14,20724.06,235,271,88.91,271,7904,0,0,1.04,-0.17,0.04,3.96,2.4,-5.19,-9.98,-78.8,-26.31,-25.56,6.18,-25.66,-27.69,Left Fall while Sitting
59:38.6,662,487,730.5,983,234,3.37,296.58,1.14,20724.06,235,271,88.91,271,7904,7905,271,1.03,-0.1,0.01,0.86,-3.64,-10.82,-6.35,-82.63,-26.13,-26.26,4.93,-25.34,-28.52,Left Fall while Sitting
59:38.7,719,491,736.5,983,234,3.37,296.58,1.14,20724.06,235,271,88.91,271,7904,15810,542,0.99,-0.1,0.03,1.41,4.17,-6.01,-6.47,-82.33,-25.89,-25.99,4.28,-25.11,-28.25,Left Fall while Sitting
59:38.8,312,488,732,983,234,3.37,296.58,1.14,20724.06,235,271,88.91,271,7904,23715,813,0.98,-0.1,0.05,0.82,6,-1.27,-6.33,-81.93,-25.71,-25.49,4.22,-24.94,-27.75,Left Fall while Sitting
59:39.0,351,486,729,983,233,3.39,294.94,1.14,20724.06,235,271,88.91,271,7904,31620,1084,1.04,-0.1,0.08,-4.23,-4.85,-3.44,-6.13,-81.3,-26.17,-26.35,3.89,-25.37,-28.55,Left Fall while Sitting
59:41.6,632,632,948,632,239,3.28,304.85,1.17,0,0,272,0,0,0,16896,544,0.99,-0.12,0.15,-7.97,1.78,17.85,-7.51,-77.41,-1.38,2.03,3.16,-1.63,-1.15,Right Fall while Sitting
59:41.8,754,693,1039.5,754,240,3.26,306.51,1.17,0,0,272,0,0,0,25344,816,1.01,-0.22,0.19,-8.46,3.66,12.54,-12.7,-72.26,-2.34,2.23,4.78,-2.76,-0.75,Right Fall while Sitting
59:41.9,653,679,1018.5,754,239,3.28,304.85,1.17,0,0,272,0,0,0,33792,1088,0.94,-0.21,0.21,-4.33,5.02,10.56,-12.95,-70.77,-2.81,2.61,6.18,-3.21,-0.33,Right Fall while Sitting
59:42.0,468,626,939,754,239,3.28,304.85,1.17,0,0,271,0,0,0,41697,1359,0.96,-0.25,0.18,-2.34,0.92,10.21,-14.68,-70.77,-3.03,2.47,7.53,-3.49,-0.46,Right Fall while Sitting
59:42.1,311,563,844.5,754,239,3.28,304.85,1.17,0,0,271,0,0,0,49602,1630,0.95,-0.28,0.18,-1.79,1.62,8.3,-16.46,-69.39,-3.18,2.43,8.64,-3.71,-0.45,Right Fall while Sitting
59:42.2,159,496,744,754,239,3.28,304.85,1.17,0,0,271,0,0,0,57507,1901,0.92,-0.29,0.2,0.29,2.54,18.2,-17.59,-67.66,-3.07,2.49,10.96,-3.65,-0.31,Right Fall while Sitting
59:42.4,348,475,712.5,754,239,3.28,304.85,1.17,0,0,271,0,0,0,65412,2172,0.95,-0.35,0.17,-5.06,2.69,15.62,-20.5,-66.22,-3.63,2.58,12.98,-4.3,-0.17,Right Fall while Sitting
59:42.5,487,476,714,754,239,3.28,304.85,1.17,0,0,271,0,0,0,73317,2443,0.92,-0.36,0.21,-3.34,8.56,15.78,-21.55,-64.11,-3.97,3.38,15,-4.67,0.68,Right Fall while Sitting
59:42.6,770,509,763.5,770,239,3.28,304.85,1.17,20724.1,239,272,90.42,271,8175,0,0,0.93,-0.39,0.2,16.17,0.13,12.45,-23.08,-62.88,-1.89,3.15,16.64,-2.74,0.5,Right Fall while Sitting
59:42.7,918,550,825,918,240,3.26,306.51,1.17,20724.1,239,272,90.42,271,8175,8448,272,0.87,-0.43,0.15,-3.19,9.89,12.63,-26.31,-60.93,-2.22,4.12,18.3,-3.18,1.52,Right Fall while Sitting
59:42.9,490,544,816,918,240,3.26,306.51,1.17,20724.1,239,269,90.42,271,8175,15273,541,0.89,-0.46,0.24,-11.94,-1.85,21.02,-27.23,-57.95,-3.64,3.64,21.03,-4.58,1.18,Right Fall while Sitting
59:43.0,306,524,786,918,239,3.28,304.85,1.17,20724.1,239,271,90.42,271,8175,23178,812,0.9,-0.49,0.22,-5.4,-1.55,5.3,-28.63,-57.32,-4.25,3.2,21.79,-5.22,0.78,Right Fall while Sitting
59:43.1,456,519,778.5,918,238,3.3,303.18,1.16,20724.1,239,269,90.42,271,8175,30003,1081,0.85,-0.49,0.2,0.42,0.25,3.89,-29.68,-56.72,-4.12,2.98,22.37,-5.15,0.6,Right Fall while Sitting
59:43.2,819,540,810,918,239,3.28,304.85,1.17,20724.1,239,266,90.42,271,8175,35223,1347,0.84,-0.5,0.2,5.16,-0.05,8.6,-30.78,-55.64,-3.41,2.73,23.55,-4.5,0.39,Right Fall while Sitting
59:43.4,745,554,831,918,238,3.3,303.18,1.16,20724.1,239,269,90.42,271,8175,42048,1616,0.84,-0.51,0.18,-5.12,-2.46,4.98,-31.3,-55.62,-3.97,2.17,24.26,-5.07,-0.14,Right Fall while Sitting
59:43.5,262,536,804,918,238,3.3,303.18,1.16,20724.1,239,269,90.42,271,8175,48873,1885,0.83,-0.53,0.19,-4.78,-2.61,11.63,-32.25,-54.57,-4.5,1.6,25.81,-5.61,-0.65,Right Fall while Sitting
59:43.6,235,518,777,918,237,3.32,301.53,1.16,20724.1,239,267,90.42,271,8175,54626,2152,0.84,-0.58,0.16,-5.28,-1.86,7.92,-34.86,-52.67,-5.09,1.12,26.9,-6.28,-1.03,Right Fall while Sitting
59:43.7,640,525,787.5,918,238,3.3,303.18,1.16,20724.1,239,269,90.42,271,8175,61451,2421,0.84,-0.58,0.16,-5.64,-0.34,5.34,-34.73,-52.86,-5.72,0.83,27.66,-6.88,-1.32,Right Fall while Sitting
59:43.9,770,538,807,918,238,3.3,303.18,1.16,20724.09,238,269,82.63,269,6826,0,0,0.82,-0.59,0.18,-3.51,3.04,4.05,-35.98,-51.1,-6.09,0.96,28.26,-7.28,-1.13,Right Fall while Sitting
59:44.0,387,530,795,918,235,3.35,298.22,1.15,20724.09,238,261,82.63,269,6826,2585,261,0.82,-0.6,0.15,-2.61,4.05,2.39,-36.09,-51.59,-6.34,1.21,28.66,-7.53,-0.9,Right Fall while Sitting
59:44.1,215,515,772.5,918,235,3.35,298.22,1.15,20724.09,238,264,82.63,269,6826,6745,525,0.81,-0.61,0.15,-1.82,-0.75,3.27,-36.96,-50.74,-6.5,0.87,29.16,-7.72,-1.2,Right Fall while Sitting
59:44.2,366,508,762,918,235,3.35,298.22,1.15,20724.09,238,266,82.63,269,6826,11965,791,0.81,-0.61,0.14,-12.8,1.09,-4.95,-37.47,-50.37,-8.02,0.75,28.65,-9.2,-1.29,Right Fall while Sitting
59:44.4,789,520,780,918,236,3.33,299.87,1.15,20724.09,238,265,82.63,269,6826,16654,1056,0.8,-0.59,0.17,-4.47,-0.56,-3.37,-36.36,-50.93,-8.51,0.43,28.33,-9.62,-1.62,Right Fall while Sitting
59:44.5,598,524,786,918,237,3.32,301.53,1.16,20724.09,238,265,82.63,269,6826,21343,1321,0.83,-0.59,0.14,-1.66,2.42,-2.47,-35.73,-52.18,-8.65,0.49,28.12,-9.73,-1.62,Right Fall while Sitting
59:44.6,203,511,766.5,918,237,3.32,301.53,1.16,20724.09,238,266,82.63,269,6826,26563,1587,0.79,-0.61,0.17,-2.15,4.38,-4.81,-37.43,-49.98,-8.84,0.78,27.61,-9.99,-1.25,Right Fall while Sitting
59:44.7,287,502,753,918,237,3.32,301.53,1.16,20724.09,238,266,82.63,269,6826,31783,1853,0.79,-0.61,0.18,0.79,1.17,-3.64,-37.47,-49.62,-8.67,0.68,27.26,-9.83,-1.33,Right Fall while Sitting
59:44.9,642,507,760.5,918,237,3.32,301.53,1.16,20724.09,238,267,82.63,269,6826,37536,2120,0.82,-0.57,0.16,-0.17,3.14,-3.12,-35,-52.45,-8.63,0.82,26.96,-9.68,-1.31,Right Fall while Sitting
59:45.0,757,516,774,918,237,3.32,301.53,1.16,20724.09,238,266,82.63,269,6826,42756,2386,0.82,-0.6,0.15,-3.57,0.72,-2.5,-36.6,-51.2,-9,0.66,26.75,-10.11,-1.41,Right Fall while Sitting
59:45.1,302,509,763.5,918,237,3.32,301.53,1.16,20724.07,236,266,69.26,265,4796,0,0,0.8,-0.58,0.17,-5.11,-0.33,-3.1,-36.18,-51.18,-9.56,0.37,26.47,-10.63,-1.69,Right Fall while Sitting
59:45.2,246,500,750,918,237,3.32,301.53,1.16,20724.07,236,266,69.26,265,4796,5220,266,0.81,-0.57,0.16,-4.88,0.61,0.28,-35.1,-52.25,-10.1,0.2,26.6,-11.1,-1.9,Right Fall while Sitting
59:45.4,498,500,750,918,237,3.32,301.53,1.16,20724.07,236,266,69.26,265,4796,10440,532,0.82,-0.61,0.16,0.09,1.53,0,-36.37,-51.2,-10.02,0.14,26.7,-11.07,-1.91,Right Fall while Sitting
59:45.5,820,510,765,918,237,3.32,301.53,1.16,20724.07,236,266,69.26,265,4796,15660,798,0.81,-0.59,0.15,-4.03,-0.21,-1.56,-36.01,-51.72,-10.45,-0.13,26.6,-11.47,-2.2,Right Fall while Sitting
59:45.6,481,509,763.5,918,237,3.32,301.53,1.16,20724.07,236,266,69.26,265,4796,20880,1064,0.81,-0.58,0.15,-2.18,-0.65,-0.45,-35.97,-51.74,-10.65,-0.46,26.64,-11.67,-2.51,Right Fall while Sitting
59:45.7,212,500,750,918,237,3.32,301.53,1.16,20724.07,236,265,69.26,265,4796,25569,1329,0.81,-0.6,0.15,-2.19,0.06,-0.5,-36.54,-51.13,-10.86,-0.71,26.68,-11.89,-2.72,Right Fall while Sitting
59:45.9,460,499,748.5,918,236,3.33,299.87,1.15,20724.07,236,263,69.26,265,4796,29202,1592,0.83,-0.6,0.13,-3.22,1.24,-2.81,-35.92,-52.11,-11.19,-0.8,26.43,-12.18,-2.85,Right Fall while Sitting
59:46.0,710,505,757.5,918,235,3.35,298.22,1.15,20724.07,236,263,69.26,265,4796,32835,1855,0.81,-0.6,0.15,-5.42,-0.76,-4.27,-36.52,-51.12,-11.8,-1.15,25.99,-12.79,-3.15,Right Fall while Sitting
59:46.1,213,497,745.5,918,235,3.35,298.22,1.15,20724.07,236,264,69.26,265,4796,36995,2119,0.84,-0.6,0.15,-3.13,-0.5,-7.07,-36.03,-51.78,-12.12,-1.46,25.2,-13.08,-3.47,Right Fall while Sitting
59:46.2,228,490,735,918,236,3.33,299.87,1.15,20724.07,236,266,69.26,265,4796,42215,2385,0.85,-0.58,0.14,1.95,2.31,-12.82,-34.53,-53.37,-11.81,-1.42,23.69,-12.72,-3.5,Right Fall while Sitting
59:46.4,594,493,739.5,918,237,3.32,301.53,1.16,20724.07,236,266,68.87,265,4742,0,0,0.84,-0.54,0.13,-3.21,3.84,-16.53,-32.78,-55.2,-12.14,-1.19,21.74,-12.96,-3.36,Right Fall while Sitting
59:46.5,756,499,748.5,918,237,3.32,301.53,1.16,20724.07,236,266,68.87,265,4742,5220,266,0.86,-0.48,0.13,-16.56,-4.02,-27.35,-29.18,-58.6,-14.14,-1.95,18.42,-14.74,-4.21,Right Fall while Sitting
59:46.6,265,493,739.5,918,237,3.32,301.53,1.16,20724.07,236,266,68.87,265,4742,10440,532,0.89,-0.42,0.09,-15.53,-13.76,-37.78,-25.77,-62.56,-16.02,-3.93,13.76,-16.41,-6.28,Right Fall while Sitting
59:46.7,144,485,727.5,918,237,3.32,301.53,1.16,20724.07,236,265,68.87,265,4742,15129,797,0.87,-0.41,0.23,-2.63,-17.85,-43.95,-24.92,-60.16,-16.28,-6.43,8.32,-16.63,-8.58,Right Fall while Sitting
59:46.9,626,488,732,918,237,3.32,301.53,1.16,20724.07,236,265,68.87,265,4742,19818,1062,0.99,-0.33,0.11,16.68,3.52,-29.85,-18.92,-69.03,-14.13,-6.24,4.69,-14.32,-8.76,Right Fall while Sitting
59:47.0,613,491,736.5,918,237,3.32,301.53,1.16,20724.07,236,266,68.87,265,4742,25038,1328,1.01,-0.25,0.06,3.73,6.92,-26.32,-14.38,-74.22,-13.59,-5.62,1.47,-13.62,-8.37,Right Fall while Sitting
59:47.1,337,488,732,918,237,3.32,301.53,1.16,20724.07,236,265,68.87,265,4742,29727,1593,1.01,-0.2,0.02,-11.73,-4.44,-21.39,-11.65,-77.27,-14.97,-6.42,-1.09,-14.84,-9.26,Right Fall while Sitting
59:47.2,374,485,727.5,918,238,3.3,303.18,1.16,20724.07,236,266,68.87,265,4742,34947,1859,0.99,-0.16,0.03,-7.62,7.01,-28.72,-9.95,-78.92,-15.86,-5.79,-4.6,-15.63,-8.72,Right Fall while Sitting
59:47.4,948,495,742.5,948,238,3.3,303.18,1.16,20724.07,236,266,68.87,265,4742,40167,2125,1.04,-0.13,0.08,-18.09,-0.67,-22.72,-7.83,-79.92,-18.06,-6.13,-7.35,-17.65,-9.08,Right Fall while Sitting
59:47.5,536,496,744,948,237,3.32,301.53,1.16,20724.07,236,266,68.87,265,4742,45387,2391,1.04,-0.07,0.11,-14.27,-2.8,-14.47,-4.36,-81.35,-19.78,-6.73,-9.07,-19.17,-9.72,Right Fall while Sitting
59:47.6,198,490,735,948,237,3.32,301.53,1.16,20724.08,237,265,70.76,265,5006,0,0,1.05,-0.05,0.1,2.05,-9.17,-18.79,-3.25,-82.41,-19.46,-8.12,-11.3,-18.81,-11.09,Right Fall while Sitting
59:47.7,440,489,733.5,948,237,3.32,301.53,1.16,20724.08,237,265,70.76,265,5006,4689,265,1,0.04,0.04,0.32,-6.13,-17.23,1.66,-85.28,-19.35,-9.14,-13.37,-18.51,-12.19,Right Fall while Sitting
59:47.9,860,496,744,948,237,3.32,301.53,1.16,20724.08,237,266,70.76,265,5006,9909,531,0.94,0.02,0,9.42,21.62,-20.18,0.81,-87.02,-18.1,-6.69,-15.8,-17.34,-9.9,Right Fall while Sitting
59:48.0,567,497,745.5,948,237,3.32,301.53,1.16,20724.08,237,266,70.76,265,5006,15129,797,0.94,0.08,0.04,-2.84,16.12,-11.27,4.46,-82.87,-18.39,-4.92,-17.11,-17.47,-8.04,Right Fall while Sitting
59:48.1,234,493,739.5,948,237,3.32,301.53,1.16,20724.08,237,266,70.76,265,5006,20349,1063,0.94,0.12,0.09,-10.27,-11.82,-5.29,6.9,-79.24,-19.6,-6.65,-17.67,-18.54,-9.55,Right Fall while Sitting
59:48.2,432,491,736.5,948,237,3.32,301.53,1.16,20724.08,237,266,70.76,265,5006,25569,1329,1,0.12,0.09,-6.6,-7.64,3.21,6.11,-79.98,-20.36,-7.86,-17.16,-19.3,-10.75,Right Fall while Sitting
59:48.4,875,498,747,948,237,3.32,301.53,1.16,20724.08,237,266,70.76,265,5006,30789,1595,1.05,0.06,0.06,-8.98,3.87,-3.5,2.8,-83.54,-21.41,-7.63,-17.5,-20.44,-10.67,Right Fall while Sitting
59:48.5,495,498,747,948,237,3.32,301.53,1.16,20724.08,237,267,70.76,265,5006,36542,1862,1,0.1,0.07,-6.57,-3.37,0.44,5.21,-81.28,-22.16,-8.3,-17.35,-21.07,-11.22,Right Fall while Sitting
59:48.6,327,495,742.5,948,237,3.32,301.53,1.16,20724.08,237,266,70.76,265,5006,41762,2128,0.99,0.06,0.09,-4.78,-3.86,5.56,2.89,-82,-22.69,-9.04,-16.56,-21.67,-11.95,Right Fall while Sitting
59:48.7,677,498,747,948,237,3.32,301.53,1.16,20724.08,237,266,70.76,265,5006,46982,2394,1.01,0.06,0.06,2.8,-0.03,4.47,2.98,-83.54,-22.27,-9.29,-15.89,-21.26,-12.26,Right Fall while Sitting
59:48.9,973,506,759,973,237,3.32,301.53,1.16,20724.08,237,266,72.25,266,5219,0,0,1.04,0.05,0.04,2.12,-3.45,1.56,2.33,-84.61,-21.93,-9.97,-15.6,-20.96,-12.95,Right Fall while Sitting
59:49.0,710,510,765,973,237,3.32,301.53,1.16,20724.08,237,266,72.25,266,5219,5220,266,1.01,0.04,0.03,1.35,-2.92,4.71,1.59,-85.51,-21.7,-10.57,-14.93,-20.77,-13.57,Right Fall while Sitting
59:49.1,304,506,759,973,237,3.32,301.53,1.16,20724.08,237,265,72.25,266,5219,9909,531,0.99,0.05,0,0.13,-4.01,1.29,2.23,-85.61,-21.61,-11.32,-14.67,-20.66,-14.3,Right Fall while Sitting
59:49.2,370,504,756,973,236,3.33,299.87,1.15,20724.08,237,264,72.25,266,5219,14069,795,1.01,0.02,0.01,2.56,6.93,1.84,0.63,-87.06,-21.22,-10.71,-14.34,-20.35,-13.76,Right Fall while Sitting
59:57.7,924,924,1386,924,239,3.28,304.85,1.17,0,0,269,0,0,0,13650,538,1,-0.12,0.12,4.69,5.65,4.24,-7.42,-78.88,0.23,-0.06,1.26,-0.07,-3.21,Forward Fall while Sitting
59:57.9,596,760,1140,924,239,3.28,304.85,1.17,0,0,270,0,0,0,21014,808,1.03,-0.15,0.08,6.73,5.25,-1.98,-9.05,-78.88,1.12,0.34,1.11,0.71,-2.83,Forward Fall while Sitting
59:58.0,345,621,931.5,924,240,3.26,306.51,1.17,0,0,270,0,0,0,28378,1078,1.02,-0.13,0.05,1.99,4.35,-6.28,-7.98,-80.47,1.43,0.62,0.44,1.06,-2.62,Forward Fall while Sitting
59:58.1,268,533,799.5,924,240,3.26,306.51,1.17,0,0,270,0,0,0,35742,1348,0.99,-0.11,0.08,-5.23,-1.19,-0.43,-6.69,-80.89,0.86,0.23,0.49,0.56,-3.01,Forward Fall while Sitting
59:58.2,223,471,706.5,924,240,3.26,306.51,1.17,0,0,270,0,0,0,43106,1618,0.99,-0.12,0.13,-7.46,-0.05,1.04,-7.74,-78.13,0.01,-0.02,0.71,-0.3,-3.14,Forward Fall while Sitting
59:58.3,317,445,667.5,924,240,3.26,306.51,1.17,0,0,269,0,0,0,49931,1887,1,-0.13,0.11,-0.95,10.33,-2.83,-7.78,-78.88,-0.03,0.99,0.47,-0.34,-2.2,Forward Fall while Sitting
59:58.5,416,441,661.5,924,240,3.26,306.51,1.17,0,0,270,0,0,0,57295,2157,1.02,-0.15,0.16,-1.54,5.43,-2.37,-8.69,-76.5,-0.15,1.41,0.27,-0.49,-1.7,Forward Fall while Sitting
59:58.6,645,466,699,924,240,3.26,306.51,1.17,0,0,270,0,0,0,64659,2427,1,-0.12,0.12,2.25,13.86,-8.91,-7.4,-78.75,0.19,2.86,-0.72,-0.11,-0.41,Forward Fall while Sitting
59:58.7,794,503,754.5,924,240,3.26,306.51,1.17,20724.11,239,270,84.86,269,7201,0,0,0.99,-0.08,0.14,-1.21,4.41,-2.5,-5.43,-79.05,0.11,3.16,-0.93,-0.11,-0.13,Forward Fall while Sitting
59:58.8,769,529,793.5,924,240,3.26,306.51,1.17,20724.11,239,270,84.86,269,7201,7364,270,1.02,-0.11,0.17,1.88,-3.04,-1.55,-6.9,-76.87,0.41,2.53,-1.03,0.12,-0.64,Forward Fall while Sitting
59:59.0,340,512,768,924,239,3.28,304.85,1.17,20724.11,239,269,84.86,269,7201,14189,539,0.97,-0.08,0.15,-0.38,0.73,-4.89,-5.41,-78.2,0.43,2.38,-1.53,0.2,-0.85,Forward Fall while Sitting
59:59.1,255,491,736.5,924,239,3.28,304.85,1.17,20724.11,239,269,84.86,269,7201,21014,808,0.99,-0.08,0.14,0.26,2.02,-0.96,-5.27,-78.97,0.53,2.38,-1.55,0.3,-0.88,Forward Fall while Sitting
59:59.2,421,485,727.5,924,239,3.28,304.85,1.17,20724.11,239,270,84.86,269,7201,28378,1078,0.96,-0.08,0.13,1.97,-1.63,1.7,-5.51,-79.47,0.85,1.93,-1.25,0.59,-1.33,Forward Fall while Sitting
59:59.3,740,503,754.5,924,239,3.28,304.85,1.17,20724.11,239,269,84.86,269,7201,35203,1347,0.99,-0.09,0.11,-2.05,-13.76,7.27,-5.69,-80.36,0.66,-0.04,-0.24,0.41,-3.25,Forward Fall while Sitting
59:59.5,759,520,780,924,240,3.26,306.51,1.17,20724.11,239,269,84.86,269,7201,42028,1616,1.01,-0.13,0.06,-0.33,-27.4,4.71,-7.84,-80.51,0.69,-3.69,0.44,0.35,-6.76,Forward Fall while Sitting
59:59.6,202,500,750,924,240,3.26,306.51,1.17,20724.11,239,269,84.86,269,7201,48853,1885,1.04,-0.14,0.03,-5.84,-37.08,-4.91,-8.09,-80.77,0.04,-8.53,-0.07,-0.29,-11.42,Forward Fall while Sitting
59:59.7,259,486,729,924,240,3.26,306.51,1.17,20724.11,239,269,84.86,269,7201,55678,2154,1.01,-0.09,-0.03,-3.31,-29.18,-5.14,-5.85,-82.87,-0.31,-12.43,-0.61,-0.53,-15.25,Forward Fall while Sitting
59:59.8,767,502,753,924,240,3.26,306.51,1.17,20724.11,239,267,84.86,269,7201,61431,2421,1.05,-0.16,-0.2,-0.07,-24.52,-1.97,-8.87,-74.9,-0.25,-15.77,-0.76,-0.59,-18.14,Forward Fall while Sitting
00:00.0,403,497,745.5,924,233,3.39,294.94,1.14,20724.1,238,267,81.96,268,6717,0,0,1.03,-0.11,-0.26,-1.31,-28.15,-0.55,-6.24,-73.23,-0.34,-19.51,-0.73,-0.57,-21.66,Forward Fall while Sitting
00:00.1,0,472,708,924,224,3.57,280.35,1.09,20724.1,238,258,81.96,268,6717,1028,258,0.92,-0.1,-0.1,6.98,-31.76,4.88,-6.76,-79.61,0.6,-23.73,-0.02,0.31,-25.97,Forward Fall while Sitting
00:00.2,155,457,685.5,924,222,3.61,277.15,1.09,20724.1,238,260,81.96,268,6717,3092,518,0.98,-0.15,-0.33,10.17,-18.48,9.42,-8.91,-68.27,1.94,-26.29,1.26,1.51,-27.97,Forward Fall while Sitting
00:00.3,645,465,697.5,924,222,3.61,277.15,1.09,20724.1,238,264,81.96,268,6717,7252,782,0.98,-0.17,-0.39,3.47,-32.83,3.96,-9.82,-65.14,2.45,-30.64,1.85,1.96,-32.02,Forward Fall while Sitting
00:00.5,759,478,717,924,221,3.63,275.56,1.08,20724.1,238,260,81.96,268,6717,9316,1042,0.83,-0.13,-0.35,-2.13,-30.75,4.2,-9,-63.96,2.25,-34.71,2.47,1.8,-35.88,Forward Fall while Sitting
00:00.6,424,476,714,924,218,3.69,270.81,1.07,20724.1,238,256,81.96,268,6717,9316,1298,0.9,-0.19,-0.47,-0.91,-38.25,4.82,-11.33,-59.25,2.21,-39.74,3.17,1.67,-40.52,Forward Fall while Sitting
00:00.7,365,471,706.5,924,213,3.8,262.96,1.04,20724.1,238,207,81.96,268,6717,4294953925,1505,0.85,-0.18,-0.58,0.24,-29.46,6.5,-10.74,-52.57,2.31,-43.7,4.09,1.79,-44.06,Forward Fall while Sitting
00:00.8,621,477,715.5,924,206,3.97,252.14,1.01,20724.1,238,207,81.96,268,6717,4294931238,1712,0.84,-0.22,-0.68,0.94,-38.76,5.85,-11.92,-48.25,2.5,-48.84,4.93,1.92,-48.81,Forward Fall while Sitting
00:01.0,544,479,718.5,924,199,4.14,241.5,0.97,20724.1,238,207,81.96,268,6717,4294908551,1919,0.76,-0.24,-0.69,2.07,-28.2,6.27,-13.85,-44.64,2.83,-52.64,5.82,2.16,-52.32,Forward Fall while Sitting
00:01.1,0,462,693,924,190,4.38,228.09,0.93,20724.1,238,581,81.96,268,6717,4294918432,2500,0.49,-0.25,-0.62,-12.24,-35.62,5.03,-18.41,-34.54,1.36,-57.38,6.55,0.57,-56.47,Forward Fall while Sitting
00:01.2,1001,481,721.5,1001,330,2.1,476.19,1.61,20723.81,224,594,20724.25,309,429494368,0,0,0.67,-0.24,-0.79,-10.01,-37.83,4.11,-13.89,-37.46,0.18,-62.36,7.16,-0.39,-61.36,Forward Fall while Sitting
00:01.3,1001,498,747,1001,329,2.11,474.06,1.61,20723.81,224,320,20724.25,309,429494368,4294938624,320,0.6,-0.25,-0.87,3.9,-21.84,6.35,-13.9,-31.95,0.75,-65.41,8.08,0.16,-64.07,Forward Fall while Sitting
00:01.5,0,482,723,1001,294,2.48,403.29,1.44,20723.81,224,292,20724.25,309,429494368,4294958352,612,0.56,-0.28,-0.93,-2.89,-19.37,2.48,-14.96,-28.74,0.45,-68.13,8.49,-0.16,-66.55,Forward Fall while Sitting
00:01.6,0,467,700.5,1001,261,2.92,342.52,1.28,20723.81,224,288,20724.25,309,429494368,8464,900,0.51,-0.25,-0.94,-9.11,-27.12,7.33,-13.86,-25.87,-0.62,-71.8,9.51,-1.15,-69.96,Forward Fall while Sitting
00:01.7,0,453,679.5,1001,237,3.32,301.53,1.16,20723.81,224,287,20724.25,309,429494368,25297,1187,0.48,-0.26,-0.96,-7.85,-19.41,4.12,-14.08,-24.41,-1.55,-74.52,10.14,-2.05,-72.51,Forward Fall while Sitting
00:01.8,0,439,658.5,1001,222,3.61,277.15,1.09,20723.81,224,296,20724.25,309,429494368,47377,1483,0.45,-0.24,-0.95,0.93,-17.16,0.81,-13.5,-22.8,-1.36,-76.93,10.34,-1.85,-74.76,Forward Fall while Sitting
00:02.0,0,427,640.5,1001,215,3.76,266.09,1.05,20723.81,224,691,20724.25,309,429494368,66106,2174,0.4,-0.26,-1.02,3.37,-11.08,1.47,-13.78,-19.48,-0.86,-78.59,10.63,-1.38,-76.23,Forward Fall while Sitting
00:02.1,0,415,622.5,1001,212,3.83,261.41,1.04,20723.81,224,717,20724.25,309,429494368,55907,2891,0.37,-0.24,-1.07,-18.24,-22.66,2.47,-12.43,-17.08,-3.09,-81.7,11.04,-3.46,-79.11,Forward Fall while Sitting
00:02.2,0,404,606,1001,209,3.89,256.76,1.02,20723.81,224,706,20724.25,309,429494368,30055,3597,0.33,-0.21,-0.99,-15.88,-8.65,4.24,-12.02,-16.6,-5.04,-83.05,11.67,-5.32,-80.39,Forward Fall while Sitting
00:02.4,316,401,601.5,1001,210,3.87,258.3,1.03,20723.81,224,702,20724.25,309,429494368,4294965867,4299,0.32,-0.2,-1.01,-1.03,-10.45,-2.74,-11.46,-15.49,-5.1,-84.64,11.42,-5.35,-81.88,Forward Fall while Sitting
00:02.5,648,408,612,1001,210,3.87,258.3,1.03,20723.99,239,707,20724.24,500,429494144,0,0,0.3,-0.21,-1.06,-3.94,-2.03,-7.34,-11.4,-14.02,-5.52,-85.15,10.6,-5.76,-82.31,Forward Fall while Sitting
00:02.6,310,405,607.5,1001,210,3.87,258.3,1.03,20723.99,239,701,20724.24,500,429494144,32649,701,0.27,-0.2,-1.02,-2.91,-2.28,0.47,-11.1,-13.24,-5.82,-85.7,10.76,-6.03,-82.8,Forward Fall while Sitting
00:02.7,584,410,615,1001,211,3.85,259.85,1.03,20723.99,239,706,20724.24,500,429494144,6797,1407,0.3,-0.17,-1.04,-8.88,-2.08,-1.9,-9.3,-14.14,-6.87,-86.22,10.62,-6.97,-83.33,Forward Fall while Sitting
00:02.9,824,420,630,1001,211,3.85,259.85,1.03,20723.99,239,708,20724.24,500,429494144,4294951069,2115,0.27,-0.18,-1.06,-15.29,1.05,4.7,-9.66,-12.7,-8.76,-86.34,11.32,-8.79,-83.39,Forward Fall while Sitting
00:03.0,312,417,625.5,1001,211,3.85,259.85,1.03,20723.99,239,699,20724.24,500,429494144,13622,2814,0.29,-0.15,-0.99,-15.49,-8.44,0.67,-8.9,-14.31,-10.65,-87.66,11.51,-10.58,-84.73,Forward Fall while Sitting
