Datetime, ECGRaw , AvgECG , ampECG , MAX , GSRRaw , Resistance , GSR(kohm) , SCL , GSRRMS , GSRMAV , EMGRaw , EMGRMS , EMGMAV , EMGVAR , EMGSSI , IEMG , AccX , AccY, AccZ , GyroX , GyroY , GyroZ , Aroll , Apitch , Groll , Gpitch, Gyaw , Combroll , Combpitch,Features
01:09.4,0,0,0,0,298,2.43,411.03,1.46,0,0,152,0,0,0,45905,303,0.98,-0.14,0.17,0.21,-0.46,-0.63,-8.64,-75.82,0.17,-0.34,0.03,-0.18,-3.36,Standing
01:09.5,0,0,0,0,298,2.43,411.03,1.46,0,0,151,0,0,0,68706,454,0.98,-0.15,0.16,-4.63,-3.3,1.99,-9.01,-75.77,-0.32,-0.98,0.37,-0.67,-3.98,Standing
01:09.7,0,0,0,0,297,2.44,409.09,1.45,0,0,151,0,0,0,91507,605,0.99,-0.15,0.18,-1.31,2.16,-1.5,-9.11,-74.93,-0.41,-0.97,0.28,-0.76,-3.92,Standing
01:09.8,0,0,0,0,298,2.43,411.03,1.46,0,0,153,0,0,0,114916,758,0.98,-0.15,0.16,-1.07,0.66,-2.9,-9.2,-75.91,-0.48,-1.13,0.03,-0.82,-4.12,Standing
01:09.9,0,0,0,0,297,2.44,409.09,1.45,0,0,150,0,0,0,137416,908,0.97,-0.15,0.17,-2.11,0.56,0.92,-9.24,-75.35,-0.66,-1.3,0.23,-1.01,-4.26,Standing
01:10.0,0,0,0,0,297,2.44,409.09,1.45,0,0,150,0,0,0,159916,1058,0.98,-0.15,0.17,-2.79,0.88,-1.16,-9.15,-75.31,-0.93,-1.44,0.19,-1.26,-4.39,Standing
01:10.1,0,0,0,0,297,2.44,409.09,1.45,0,0,151,0,0,0,182717,1209,0.97,-0.14,0.16,-1.1,1.7,0.54,-8.91,-75.88,-1,-1.47,0.35,-1.32,-4.45,Standing
01:10.3,0,0,0,0,297,2.44,409.09,1.45,0,0,152,0,0,0,205821,1361,0.99,-0.16,0.18,-2.48,-0.16,1.61,-9.81,-74.67,-1.23,-1.74,0.64,-1.58,-4.65,Standing
01:10.4,0,0,0,0,297,2.44,409.09,1.45,151.36,297,152,151.3,151,22891,0,0,0.99,-0.15,0.16,-4.18,-2.68,-0.04,-9.32,-75.84,-1.67,-2.31,0.73,-1.98,-5.25,Standing
01:10.5,0,0,0,0,298,2.43,411.03,1.46,151.36,297,153,151.3,151,22891,23409,153,0.99,-0.16,0.17,-1.58,4.68,-0.51,-9.44,-75.25,-1.8,-1.98,0.77,-2.11,-4.91,Standing
01:10.6,0,0,0,0,298,2.43,411.03,1.46,151.36,297,151,151.3,151,22891,46210,304,0.98,-0.16,0.17,-2.21,-0.46,-1.38,-9.91,-74.97,-2,-2.28,0.69,-2.32,-5.19,Standing
01:10.8,0,0,0,0,298,2.43,411.03,1.46,151.36,297,152,151.3,151,22891,69314,456,0.98,-0.16,0.18,-0.82,-0.66,0.01,-9.69,-74.7,-2.04,-2.61,0.79,-2.34,-5.49,Standing
01:10.9,0,0,0,0,299,2.42,412.98,1.46,151.36,297,150,151.3,151,22891,91814,606,0.98,-0.17,0.16,0.63,-0.06,-0.45,-10.43,-74.97,-1.89,-2.86,0.83,-2.23,-5.75,Standing
01:11.0,0,0,0,0,298,2.43,411.03,1.46,151.36,297,150,151.3,151,22891,114314,756,0.99,-0.17,0.14,-2.37,-3.07,0.46,-10.5,-75.57,-2.11,-3.49,0.99,-2.45,-6.37,Standing
01:11.1,0,0,0,0,299,2.42,412.98,1.46,151.36,297,150,151.3,151,22891,136814,906,0.99,-0.17,0.15,-0.44,2.69,-1.73,-10.02,-75.64,-2.1,-3.4,0.87,-2.41,-6.29,Standing
01:11.2,0,0,0,0,299,2.42,412.98,1.46,151.36,297,151,151.3,151,22891,159615,1057,0.98,-0.17,0.16,-2.68,0.27,-2.36,-10.5,-75.08,-2.36,-3.62,0.68,-2.69,-6.47,Standing
01:11.4,0,0,0,0,299,2.42,412.98,1.46,151.36,297,150,151.3,151,22891,182115,1207,0.98,-0.17,0.16,-3.04,2.62,-0.91,-10.09,-75.25,-2.67,-3.54,0.66,-2.96,-6.41,Standing
01:11.5,0,0,0,0,300,2.41,414.94,1.47,151.36,297,151,151.3,151,22891,204916,1358,0.98,-0.17,0.16,-1.24,1.42,-0.78,-10.42,-74.97,-2.75,-3.61,0.66,-3.06,-6.47,Standing
01:11.6,0,0,0,0,300,2.41,414.94,1.47,154.1,298,151,150.9,150,22770,0,0,0.99,-0.17,0.16,-2.38,-0.58,-1,-10.31,-74.92,-2.97,-3.93,0.64,-3.27,-6.77,Standing
01:11.7,0,0,0,0,301,2.4,416.9,1.47,154.1,298,152,150.9,150,22770,23104,152,0.99,-0.17,0.15,-0.9,0.24,-2.4,-10.3,-75.39,-3.01,-4.14,0.44,-3.31,-6.99,Standing
01:11.9,0,0,0,0,301,2.4,416.9,1.47,154.1,298,152,150.9,150,22770,46208,304,0.97,-0.17,0.15,-2.12,-1.18,-0.25,-10.43,-75.36,-3.21,-4.53,0.51,-3.49,-7.37,Standing
01:12.0,0,0,0,0,301,2.4,416.9,1.47,154.1,298,152,150.9,150,22770,69312,456,0.99,-0.18,0.15,-2.31,1.6,0.63,-10.67,-75.12,-3.42,-4.58,0.68,-3.71,-7.41,Standing
01:12.1,0,0,0,0,301,2.4,416.9,1.47,154.1,298,153,150.9,150,22770,92721,609,0.99,-0.18,0.15,-1.16,2.95,-2.35,-10.52,-75.11,-3.49,-4.47,0.49,-3.78,-7.29,Standing
01:12.2,0,0,0,0,302,2.39,418.86,1.48,154.1,298,153,150.9,150,22770,116130,762,0.99,-0.16,0.15,-3.38,-1.22,-1.62,-9.69,-75.84,-3.84,-4.87,0.39,-4.08,-7.71,Standing
01:12.4,0,0,0,0,302,2.39,418.86,1.48,154.1,298,152,150.9,150,22770,139234,914,0.98,-0.17,0.16,-0.44,1.87,-1.4,-10.31,-75.09,-3.83,-4.88,0.31,-4.09,-7.69,Standing
01:12.5,0,0,0,0,302,2.39,418.86,1.48,154.1,298,150,150.9,150,22770,161734,1064,0.98,-0.16,0.15,-1.66,0.08,-0.82,-9.93,-75.74,-3.97,-5.12,0.31,-4.2,-7.95,Standing
01:12.6,0,0,0,0,301,2.4,416.9,1.47,154.1,298,151,150.9,150,22770,184535,1215,0.99,-0.17,0.16,-1.96,1.58,0.21,-10.37,-75.15,-4.14,-5.17,0.43,-4.39,-7.97,Standing
01:12.7,0,0,0,0,302,2.39,418.86,1.48,154.1,298,151,150.9,150,22770,207336,1366,0.99,-0.18,0.15,-1.71,0.11,-1.89,-10.73,-75.02,-4.28,-5.41,0.29,-4.54,-8.19,Standing
01:12.8,0,0,0,0,302,2.39,418.86,1.48,159.27,301,151,151.7,151,23012,0,0,0.97,-0.17,0.13,-1.83,-1.03,-2.15,-10.34,-75.98,-4.44,-5.78,0.13,-4.67,-8.59,Standing
01:13.0,0,0,0,0,302,2.39,418.86,1.48,159.27,301,152,151.7,151,23012,23104,152,0.98,-0.16,0.15,-1.12,2.59,0.47,-9.77,-75.87,-4.5,-5.7,0.28,-4.72,-8.51,Standing
01:13.1,0,0,0,0,302,2.39,418.86,1.48,159.27,301,153,151.7,151,23012,46513,305,0.99,-0.18,0.16,-3.04,-0.05,0.1,-10.81,-74.86,-4.81,-5.95,0.39,-5.05,-8.71,Standing
01:13.2,0,0,0,0,303,2.38,420.83,1.48,159.27,301,154,151.7,151,23012,70229,459,0.98,-0.18,0.15,-0.61,2.64,-0.43,-10.6,-75.19,-4.81,-5.88,0.44,-5.04,-8.65,Standing
01:13.3,0,0,0,0,304,2.37,422.81,1.49,159.27,301,155,151.7,151,23012,94254,614,0.98,-0.18,0.15,-1.78,-0.27,-1.02,-10.74,-74.99,-4.96,-6.16,0.41,-5.2,-8.91,Standing
01:13.5,0,0,0,0,304,2.37,422.81,1.49,159.27,301,154,151.7,151,23012,117970,768,0.99,-0.18,0.14,-2.5,2.46,-0.73,-10.58,-75.51,-5.2,-6.1,0.41,-5.42,-8.88,Standing
01:13.6,0,0,0,0,303,2.38,420.83,1.48,159.27,301,153,151.7,151,23012,141379,921,0.99,-0.17,0.15,-5.31,1.76,1.11,-10.19,-75.7,-5.79,-6.13,0.65,-5.97,-8.91,Standing
01:13.7,0,0,0,0,302,2.39,418.86,1.48,159.27,301,149,151.7,151,23012,163580,1070,0.99,-0.17,0.16,-1.18,1.28,-1.7,-10.49,-74.9,-5.87,-6.22,0.54,-6.05,-8.97,Standing
01:13.8,0,0,0,0,302,2.39,418.86,1.48,159.27,301,151,151.7,151,23012,186381,1221,0.99,-0.17,0.16,-0.92,3.02,-1.3,-10.24,-75.03,-5.91,-6.09,0.47,-6.09,-8.85,Standing
01:14.0,0,0,0,0,303,2.38,420.83,1.48,159.27,301,153,151.7,151,23012,209790,1374,0.99,-0.17,0.14,1.15,7.4,0.58,-10.02,-76.03,-5.7,-5.42,0.64,-5.87,-8.25,Standing
01:14.1,0,0,0,0,303,2.38,420.83,1.48,161.72,302,153,152.71,152,23318,0,0,0.98,-0.19,0.16,-0.35,-0.01,2.34,-11.14,-74.59,-5.68,-5.67,1.03,-5.89,-8.42,Standing
01:14.2,0,0,0,0,303,2.38,420.83,1.48,161.72,302,152,152.71,152,23318,23104,152,0.99,-0.19,0.17,-4.38,-3.02,2.59,-11.4,-74.1,-6.14,-6.28,1.44,-6.35,-8.99,Standing
01:14.3,0,0,0,0,303,2.38,420.83,1.48,161.72,302,153,152.71,152,23318,46513,305,0.99,-0.21,0.16,1,2.05,-4.21,-12.21,-73.62,-5.95,-6.27,1.01,-6.2,-8.97,Standing
01:14.4,0,0,0,0,302,2.39,418.86,1.48,161.72,302,149,152.71,152,23318,68714,454,0.97,-0.19,0.15,0.52,2.08,-2.7,-11.44,-74.32,-5.82,-6.26,0.78,-6.04,-8.99,Standing
01:14.6,0,0,0,0,302,2.39,418.86,1.48,161.72,302,152,152.71,152,23318,91818,606,0.99,-0.18,0.14,-3.21,2.27,1.89,-10.82,-75.57,-6.14,-6.23,1.11,-6.33,-9,Standing
01:14.7,0,0,0,0,303,2.38,420.83,1.48,161.72,302,152,152.71,152,23318,114922,758,0.99,-0.18,0.13,-4.48,-3.76,-4.7,-10.76,-75.78,-6.62,-6.94,0.63,-6.79,-9.69,Standing
01:14.8,0,0,0,0,303,2.38,420.83,1.48,161.72,302,152,152.71,152,23318,138026,910,0.96,-0.19,0.17,-6.82,2.08,0.85,-11.77,-73.53,-7.4,-6.93,0.83,-7.58,-9.59,Standing
01:14.9,0,0,0,0,303,2.38,420.83,1.48,161.72,302,152,152.71,152,23318,161130,1062,0.99,-0.14,0.16,-0.09,9.04,-5.52,-8.63,-76.26,-7.34,-6.06,0.24,-7.39,-8.86,Standing
01:15.1,0,0,0,0,303,2.38,420.83,1.48,161.72,302,153,152.71,152,23318,184539,1215,1.02,-0.17,0.19,-5.6,2.8,-0.56,-10.13,-74.09,-7.96,-5.96,0.27,-8.05,-8.68,Standing
01:15.2,0,0,0,0,303,2.38,420.83,1.48,161.72,302,151,152.71,152,23318,207340,1366,0.98,-0.19,0.2,-2.24,0.39,-7.19,-11.05,-72.73,-8.17,-6.16,-0.52,-8.29,-8.82,Standing
01:15.3,0,0,0,0,303,2.38,420.83,1.48,161.72,302,152,151.8,151,23043,0,0,0.96,-0.18,0.16,-2.29,-2.26,-5.24,-10.84,-74.47,-8.38,-6.67,-1.06,-8.48,-9.38,Standing
01:15.4,0,0,0,0,303,2.38,420.83,1.48,161.72,302,152,151.8,151,23043,23104,152,0.99,-0.18,0.14,-6.41,-1.96,-0.24,-10.66,-75.61,-9.11,-7.16,-0.99,-9.17,-9.9,Standing
01:15.6,0,0,0,0,303,2.38,420.83,1.48,161.72,302,154,151.8,151,23043,46820,306,0.98,-0.15,0.15,-2.22,4.23,-3.57,-9.06,-76.36,-9.31,-6.89,-1.34,-9.3,-9.67,Standing
01:15.7,0,0,0,0,303,2.38,420.83,1.48,161.72,302,154,151.8,151,23043,70536,460,0.95,-0.15,0.1,-7.35,-8.85,6.7,-9.36,-77.71,-10.15,-8.22,-0.41,-10.12,-11,Standing
01:15.8,0,0,0,0,303,2.38,420.83,1.48,161.72,302,155,151.8,151,23043,94561,615,1.02,-0.18,0.15,-9.77,-6.05,2.95,-10.35,-75.64,-11.29,-9.22,0.05,-11.25,-11.88,Standing
01:15.9,0,0,0,0,303,2.38,420.83,1.48,161.72,302,153,151.8,151,23043,117970,768,1.03,-0.2,0.1,8.42,-0.04,-5.18,-11.39,-76.3,-10.18,-9.47,-0.49,-10.23,-12.15,Standing
01:16.1,0,0,0,0,303,2.38,420.83,1.48,161.72,302,153,151.8,151,23043,141379,921,0.97,-0.16,0.15,-0.31,9,-10.17,-10.06,-75.44,-10.15,-8.6,-1.66,-10.14,-11.28,Standing
01:16.2,0,0,0,0,303,2.38,420.83,1.48,161.72,302,153,151.8,151,23043,164788,1074,0.97,-0.12,0.12,2.12,-1.11,-2.66,-7.68,-78.35,-9.81,-8.99,-1.89,-9.72,-11.77,Standing
01:16.3,0,0,0,0,303,2.38,420.83,1.48,161.72,302,153,151.8,151,23043,188197,1227,1,-0.16,0.16,-9.51,-2.72,5.6,-9.61,-75.51,-10.92,-9.58,-1.1,-10.87,-12.22,Standing
01:16.4,0,0,0,0,303,2.38,420.83,1.48,161.72,302,154,151.8,151,23043,211913,1381,0.98,-0.16,0.14,7.39,4.98,-2.15,-10,-75.97,-9.93,-9.21,-1.27,-9.94,-11.88,Standing
01:16.5,0,0,0,0,304,2.37,422.81,1.49,162.27,303,153,153.4,153,23531,0,0,0.97,-0.17,0.15,1.93,3.77,0.08,-10.52,-75.2,-9.63,-8.99,-1.16,-9.67,-11.64,Standing
01:16.7,0,0,0,0,303,2.38,420.83,1.48,162.27,303,154,153.4,153,23531,23716,154,0.98,-0.2,0.13,-2.24,-3.6,3.68,-11.85,-74.97,-9.84,-9.69,-0.61,-9.92,-12.3,Standing
01:16.8,0,0,0,0,303,2.38,420.83,1.48,162.27,303,153,153.4,153,23531,47125,307,1.02,-0.18,0.14,-5.05,-1.54,-1.74,-10.75,-75.47,-10.39,-10.12,-0.73,-10.41,-12.74,Standing
01:16.9,0,0,0,0,304,2.37,422.81,1.49,162.27,303,154,153.4,153,23531,70841,461,0.97,-0.16,0.12,2.41,2.5,-1.6,-10.05,-76.63,-10.02,-10.06,-0.83,-10.02,-12.72,Standing
01:17.0,0,0,0,0,304,2.37,422.81,1.49,162.27,303,155,153.4,153,23531,94866,616,1.01,-0.16,0.16,3.25,7.15,-1.32,-9.72,-75.73,-9.55,-9.42,-0.89,-9.55,-12.08,Standing
01:17.2,0,0,0,0,304,2.37,422.81,1.49,162.27,303,153,153.4,153,23531,118275,769,0.97,-0.15,0.15,4.01,9.77,-2.73,-9.21,-76.06,-8.99,-8.47,-1.13,-9,-11.17,Standing
01:17.3,0,0,0,0,303,2.38,420.83,1.48,162.27,303,153,153.4,153,23531,141684,922,1,-0.14,0.18,-0.05,11.35,-3.87,-8.56,-75.56,-8.92,-7.31,-1.51,-8.91,-10.04,Standing
01:17.4,0,0,0,0,304,2.37,422.81,1.49,162.27,303,153,153.4,153,23531,165093,1075,0.98,-0.17,0.19,-0.62,3.98,-3.74,-10.17,-73.93,-8.93,-7.06,-1.88,-8.98,-9.74,Standing
01:17.5,0,0,0,0,304,2.37,422.81,1.49,162.27,303,154,153.4,153,23531,188809,1229,0.98,-0.14,0.2,-9.31,-5.07,-5.29,-8.8,-74.36,-10.01,-7.94,-2.44,-9.97,-10.6,Standing
01:17.7,0,0,0,0,304,2.37,422.81,1.49,162.27,303,152,153.4,153,23531,211913,1381,1,-0.14,0.18,-10,-13.24,-5.2,-8.3,-75.44,-11.18,-9.81,-2.98,-11.06,-12.44,Standing
01:17.8,0,0,0,0,303,2.38,420.83,1.48,163.21,303,152,153.3,153,23500,0,0,1,-0.13,0.16,-2.04,-15.69,-1.43,-8.06,-76.55,-11.36,-11.99,-3.06,-11.23,-14.57,Standing
01:17.9,0,0,0,0,303,2.38,420.83,1.48,163.21,303,153,153.3,153,23500,23409,153,0.96,-0.15,0.1,2.75,-7.76,-2.17,-9.43,-77.64,-10.94,-13.21,-3.23,-10.88,-15.79,Standing
01:18.0,0,0,0,0,304,2.37,422.81,1.49,163.21,303,153,153.3,153,23500,46818,306,0.98,-0.13,0.11,-3.04,12,-1.88,-8.36,-78.31,-11.25,-11.97,-3.36,-11.14,-14.62,Standing
01:18.2,0,0,0,0,304,2.37,422.81,1.49,163.21,303,153,153.3,153,23500,70227,459,1,-0.13,0.15,10.47,6.36,-2.04,-7.69,-77.25,-9.88,-11.43,-3.52,-9.8,-14.06,Standing
01:18.3,0,0,0,0,304,2.37,422.81,1.49,163.21,303,153,153.3,153,23500,93636,612,1.02,-0.14,0.15,-9.26,-0.26,-0.28,-8.61,-76.86,-10.96,-11.71,-3.46,-10.87,-14.31,Standing
01:18.4,0,0,0,0,304,2.37,422.81,1.49,163.21,303,152,153.3,153,23500,116740,764,0.98,-0.12,0.17,-2.95,-2.23,-1.45,-7.69,-76.5,-11.26,-12.23,-3.54,-11.12,-14.8,Standing
01:18.5,0,0,0,0,304,2.37,422.81,1.49,163.21,303,152,153.3,153,23500,139844,916,0.99,-0.13,0.15,-0.44,1.5,3.44,-7.87,-77.3,-11.24,-12.29,-3.01,-11.11,-14.9,Standing
01:18.7,0,0,0,0,304,2.37,422.81,1.49,163.21,303,153,153.3,153,23500,163253,1069,0.99,-0.15,0.12,2.15,-3.68,8.34,-9.29,-77.47,-10.9,-13,-1.87,-10.84,-15.58,Standing
01:18.8,0,0,0,0,304,2.37,422.81,1.49,163.21,303,152,153.3,153,23500,186357,1221,1.02,-0.17,0.14,-2.91,0,0.72,-9.81,-76.23,-11.2,-13.25,-1.69,-11.14,-15.77,Standing
01:18.9,0,0,0,0,303,2.38,420.83,1.48,163.21,303,149,153.3,153,23500,208558,1370,0.99,-0.16,0.12,-1.72,1.93,-5.23,-9.8,-76.88,-11.34,-13.26,-2.24,-11.28,-15.81,Standing
01:19.0,0,0,0,0,303,2.38,420.83,1.48,163.39,303,151,152.1,152,23134,0,0,0.98,-0.15,0.13,-2.72,2.11,-2.62,-9.13,-76.93,-11.6,-13.25,-2.46,-11.5,-15.8,Standing
01:19.2,0,0,0,0,303,2.38,420.83,1.48,163.39,303,151,152.1,152,23134,22801,151,0.99,-0.15,0.13,-4.35,1.16,0.19,-9.24,-77.07,-12.07,-13.35,-2.34,-11.96,-15.9,Standing
01:19.3,0,0,0,0,302,2.39,418.86,1.48,163.39,303,151,152.1,152,23134,45602,302,1,-0.15,0.14,-1.06,4.21,-2.49,-9.17,-76.82,-12.13,-13.08,-2.55,-12.02,-15.63,Standing
01:19.4,0,0,0,0,303,2.38,420.83,1.48,163.39,303,152,152.1,152,23134,68706,454,0.98,-0.15,0.14,-2.37,0.47,-2.33,-8.96,-76.68,-12.36,-13.27,-2.74,-12.22,-15.8,Standing
01:19.5,0,0,0,0,303,2.38,420.83,1.48,163.39,303,152,152.1,152,23134,91810,606,0.99,-0.14,0.13,-3.35,1.36,-0.4,-8.59,-77.33,-12.71,-13.35,-2.69,-12.54,-15.91,Standing
01:19.6,0,0,0,0,303,2.38,420.83,1.48,163.39,303,152,152.1,152,23134,114914,758,1.01,-0.15,0.15,-1.03,3.1,-3.05,-9.02,-76.42,-12.76,-13.21,-2.97,-12.61,-15.74,Standing
01:19.8,0,0,0,0,302,2.39,418.86,1.48,163.39,303,150,152.1,152,23134,137414,908,0.99,-0.16,0.14,-4.12,-0.79,-0.83,-9.65,-76.49,-13.21,-13.56,-2.98,-13.06,-16.07,Standing
01:19.9,0,0,0,0,301,2.4,416.9,1.47,163.39,303,150,152.1,152,23134,159914,1058,0.98,-0.14,0.14,-1.82,0.45,-3.52,-8.76,-77.05,-13.36,-13.75,-3.32,-13.18,-16.28,Standing
01:20.0,0,0,0,0,301,2.4,416.9,1.47,163.39,303,152,152.1,152,23134,183018,1210,0.98,-0.14,0.14,-2.5,1.56,-1.14,-8.68,-77.13,-13.6,-13.81,-3.36,-13.41,-16.34,Standing
01:20.1,0,0,0,0,302,2.39,418.86,1.48,163.39,303,152,152.1,152,23134,206122,1362,0.99,-0.15,0.15,-0.98,3.18,0.26,-9.05,-76.44,-13.65,-13.66,-3.23,-13.47,-16.17,Standing
01:20.3,0,0,0,0,302,2.39,418.86,1.48,160.59,302,155,151.7,151,23013,0,0,0.99,-0.15,0.14,-0.61,-0.42,-0.27,-9.23,-76.54,-13.66,-13.95,-3.17,-13.48,-16.45,Standing
01:20.4,0,0,0,0,302,2.39,418.86,1.48,160.59,302,154,151.7,151,23013,23716,154,1,-0.15,0.15,-0.92,0.35,-1.36,-9.06,-76.26,-13.71,-14.16,-3.24,-13.52,-16.64,Standing
01:20.5,0,0,0,0,302,2.39,418.86,1.48,160.59,302,154,151.7,151,23013,47432,308,0.99,-0.15,0.14,-0.54,1.8,-2.74,-9.11,-76.87,-13.7,-14.18,-3.48,-13.52,-16.69,Standing
01:20.6,0,0,0,0,303,2.38,420.83,1.48,160.59,302,155,151.7,151,23013,71457,463,0.97,-0.14,0.14,-1.46,0.19,-2.01,-8.77,-76.92,-13.81,-14.41,-3.63,-13.61,-16.91,Standing
01:20.8,0,0,0,0,303,2.38,420.83,1.48,160.59,302,153,151.7,151,23013,94866,616,0.99,-0.15,0.15,-1.82,0.86,-1.85,-9.13,-76.42,-13.97,-14.55,-3.76,-13.78,-17.02,Standing
01:20.9,0,0,0,0,302,2.39,418.86,1.48,160.59,302,153,151.7,151,23013,118275,769,0.98,-0.14,0.14,-2.76,1.73,-1.21,-8.88,-76.79,-14.24,-14.58,-3.82,-14.03,-17.07,Standing
01:21.0,0,0,0,0,302,2.39,418.86,1.48,160.59,302,152,151.7,151,23013,141379,921,0.99,-0.14,0.16,-1.59,2.13,0.41,-8.66,-76.04,-14.37,-14.56,-3.67,-14.14,-17.02,Standing
01:21.1,0,0,0,0,302,2.39,418.86,1.48,160.59,302,151,151.7,151,23013,164180,1072,1,-0.14,0.16,-1.79,-1.02,-1.08,-8.45,-76.59,-14.52,-14.94,-3.7,-14.28,-17.4,Standing
01:21.3,0,0,0,0,302,2.39,418.86,1.48,160.59,302,153,151.7,151,23013,187589,1225,0.98,-0.14,0.14,0.82,0.42,-1.22,-8.68,-76.95,-14.35,-15.14,-3.76,-14.12,-17.61,Standing
01:21.4,0,0,0,0,303,2.38,420.83,1.48,160.59,302,154,151.7,151,23013,211305,1379,1,-0.14,0.14,-1.11,3.07,1.11,-8.74,-76.97,-14.42,-15,-3.52,-14.19,-17.48,Standing
01:21.5,0,0,0,0,303,2.38,420.83,1.48,160.97,302,154,153.3,153,23501,0,0,0.98,-0.16,0.14,-1.88,0.98,-1.72,-9.62,-76.18,-14.58,-15.13,-3.63,-14.38,-17.57,Standing
01:21.6,0,0,0,0,303,2.38,420.83,1.48,160.97,302,152,153.3,153,23501,23104,152,0.99,-0.15,0.16,-3.01,3.82,-0.31,-9.07,-76.05,-14.88,-14.9,-3.57,-14.65,-17.35,Standing
01:21.8,0,0,0,0,302,2.39,418.86,1.48,160.97,302,152,153.3,153,23501,46208,304,0.99,-0.16,0.18,-3.12,-0.11,-2.12,-9.39,-74.97,-15.2,-15.17,-3.74,-14.97,-17.56,Standing
01:21.9,0,0,0,0,303,2.38,420.83,1.48,160.97,302,154,153.3,153,23501,69924,458,0.99,-0.14,0.16,-1.15,2.41,-1.44,-8.38,-76.4,-15.27,-15.11,-3.82,-15,-17.57,Standing
01:22.0,0,0,0,0,304,2.37,422.81,1.49,160.97,302,154,153.3,153,23501,93640,612,0.99,-0.16,0.14,-1.18,0.09,-1.84,-9.47,-76.29,-15.35,-15.35,-3.95,-15.11,-17.79,Standing
01:22.1,0,0,0,0,305,2.35,424.79,1.49,160.97,302,156,153.3,153,23501,117976,768,0.99,-0.14,0.14,-2.79,0.99,-0.75,-8.79,-76.81,-15.63,-15.48,-3.94,-15.36,-17.93,Standing
01:22.3,0,0,0,0,304,2.37,422.81,1.49,160.97,302,154,153.3,153,23501,141692,922,1,-0.15,0.17,-4.44,-2.56,-2.43,-9.13,-75.72,-16.11,-16.04,-4.15,-15.83,-18.43,Standing
01:22.4,0,0,0,0,304,2.37,422.81,1.49,160.97,302,155,153.3,153,23501,165717,1077,0.98,-0.14,0.15,2.9,7.69,-1.63,-8.72,-76.5,-15.68,-15.34,-4.25,-15.4,-17.78,Standing
01:22.5,0,0,0,0,305,2.35,424.79,1.49,160.97,302,154,153.3,153,23501,189433,1231,0.99,-0.14,0.14,-3.96,-2.47,0.59,-8.75,-76.9,-16.1,-15.89,-4.08,-15.81,-18.33,Standing
01:22.6,0,0,0,0,305,2.35,424.79,1.49,160.97,302,153,153.3,153,23501,212842,1384,1,-0.14,0.12,-4.56,-0.23,-0.66,-8.44,-77.82,-16.6,-16.17,-4.06,-16.28,-18.64,Standing
01:22.7,0,0,0,0,304,2.37,422.81,1.49,163.77,303,154,153.8,153,23654,0,0,0.98,-0.14,0.16,-2.55,0.49,-4.34,-8.39,-76.53,-16.85,-16.36,-4.5,-16.51,-18.76,Standing
01:22.9,0,0,0,0,305,2.35,424.79,1.49,163.77,303,154,153.8,153,23654,23716,154,0.98,-0.15,0.14,-2.64,-2.33,4.87,-8.97,-76.79,-17.11,-16.89,-3.8,-16.78,-19.29,Standing
01:23.0,0,0,0,0,304,2.37,422.81,1.49,163.77,303,151,153.8,153,23654,46517,305,0.99,-0.17,0.14,-3.35,-0.58,0.69,-10.31,-75.84,-17.45,-17.21,-3.62,-17.16,-19.55,Standing
01:23.1,0,0,0,0,304,2.37,422.81,1.49,163.77,303,154,153.8,153,23654,70233,459,1,-0.16,0.13,-2.07,2.27,-2.65,-9.34,-77.03,-17.64,-17.18,-3.85,-17.3,-19.57,Standing
01:23.2,0,0,0,0,305,2.35,424.79,1.49,163.77,303,154,153.8,153,23654,93949,613,0.99,-0.17,0.14,-1.34,1.44,-1.6,-10.15,-75.78,-17.73,-17.25,-3.95,-17.43,-19.59,Standing
01:23.4,0,0,0,0,305,2.35,424.79,1.49,163.77,303,154,153.8,153,23654,117665,767,1,-0.16,0.14,-3.01,4.04,-3.24,-9.48,-76.6,-18.04,-16.99,-4.25,-17.7,-19.38,Standing
01:23.5,0,0,0,0,304,2.37,422.81,1.49,163.77,303,152,153.8,153,23654,140769,919,0.97,-0.15,0.15,-5.86,-1.37,-2.38,-9.14,-76.16,-18.7,-17.41,-4.45,-18.31,-19.76,Standing
01:23.6,0,0,0,0,304,2.37,422.81,1.49,163.77,303,153,153.8,153,23654,164178,1072,0.99,-0.14,0.18,-1.85,3.92,-3.53,-8.35,-75.62,-18.86,-17.17,-4.79,-18.44,-19.51,Standing
01:23.7,0,0,0,0,304,2.37,422.81,1.49,163.77,303,152,153.8,153,23654,187282,1224,0.98,-0.15,0.14,-2.71,-0.37,1.36,-9.07,-76.55,-19.12,-17.46,-4.53,-18.72,-19.83,Standing
01:23.9,0,0,0,0,304,2.37,422.81,1.49,163.77,303,151,153.8,153,23654,210083,1375,0.99,-0.17,0.16,-1.04,1.76,0.98,-10.35,-75.02,-19.18,-17.49,-4.31,-18.83,-19.79,Standing
01:24.0,0,0,0,0,303,2.38,420.83,1.48,164.32,304,154,152.9,152,23378,0,0,0.99,-0.15,0.15,-1.57,3.53,-4.56,-9.08,-76.25,-19.31,-17.3,-4.77,-18.9,-19.66,Standing
01:24.1,0,0,0,0,302,2.39,418.86,1.48,164.32,304,151,152.9,152,23378,22801,151,0.98,-0.15,0.16,-0.27,4.11,-0.35,-9.1,-75.84,-19.27,-17.04,-4.72,-18.87,-19.39,Standing
01:24.2,0,0,0,0,301,2.4,416.9,1.47,164.32,304,148,152.9,152,23378,44705,299,0.99,-0.16,0.16,-3.35,-3.03,-0.45,-9.61,-75.78,-19.62,-17.66,-4.67,-19.22,-19.99,Standing
01:24.4,0,0,0,0,300,2.41,414.94,1.47,164.32,304,149,152.9,152,23378,66906,448,0.99,-0.15,0.15,-2.22,1.42,-1.81,-9.03,-76.44,-19.82,-17.73,-4.8,-19.39,-20.08,Standing
01:24.5,0,0,0,0,300,2.41,414.94,1.47,164.32,304,150,152.9,152,23378,89406,598,0.98,-0.14,0.16,-0.75,2.18,-0.73,-8.73,-76.03,-19.85,-17.71,-4.79,-19.4,-20.04,Standing
01:24.6,0,0,0,0,299,2.42,412.98,1.46,164.32,304,150,152.9,152,23378,111906,748,0.98,-0.16,0.15,-1.69,1.21,1.2,-9.68,-76,-19.99,-17.81,-4.55,-19.57,-20.14,Standing
01:24.7,0,0,0,0,299,2.42,412.98,1.46,164.32,304,151,152.9,152,23378,134707,899,0.99,-0.15,0.16,-1.08,2.34,-0.78,-9.14,-75.86,-20.05,-17.77,-4.55,-19.62,-20.09,Standing
01:24.9,0,0,0,0,299,2.42,412.98,1.46,164.32,304,154,152.9,152,23378,158423,1053,0.99,-0.16,0.17,-1.27,1.25,-0.65,-9.59,-75.28,-20.14,-17.86,-4.53,-19.72,-20.16,Standing
01:25.0,0,0,0,0,299,2.42,412.98,1.46,164.32,304,150,152.9,152,23378,180923,1203,0.99,-0.16,0.16,-2.34,-2.08,-0.9,-9.41,-75.67,-20.36,-18.37,-4.54,-19.93,-20.66,Standing
01:25.1,0,0,0,0,299,2.42,412.98,1.46,164.32,304,151,152.9,152,23378,203724,1354,0.98,-0.15,0.14,-2.27,0.61,-0.27,-9.09,-76.62,-20.58,-18.54,-4.48,-20.12,-20.86,Standing
01:25.2,0,0,0,0,299,2.42,412.98,1.46,155.84,299,151,150.51,150,22651,0,0,0.99,-0.16,0.15,-0.19,3.12,-0.98,-9.91,-75.66,-20.53,-18.4,-4.5,-20.11,-20.69,Standing
01:25.4,0,0,0,0,298,2.43,411.03,1.46,155.84,299,152,150.51,150,22651,23104,152,1,-0.16,0.15,-2.12,0.5,-0.08,-9.43,-76,-20.72,-18.59,-4.41,-20.27,-20.88,Standing
01:25.5,0,0,0,0,299,2.42,412.98,1.46,155.84,299,151,150.51,150,22651,45905,303,1,-0.16,0.15,-1.45,0.8,-1.51,-9.76,-76.01,-20.83,-18.74,-4.5,-20.39,-21.03,Standing
01:25.6,0,0,0,0,299,2.42,412.98,1.46,155.84,299,153,150.51,150,22651,69314,456,0.98,-0.16,0.15,-1.04,-0.44,-1.78,-9.55,-75.87,-20.89,-19.04,-4.62,-20.44,-21.31,Standing
01:25.7,0,0,0,0,300,2.41,414.94,1.47,155.84,299,151,150.51,150,22651,92115,607,0.98,-0.16,0.15,-2.31,1.65,-0.1,-9.54,-75.77,-21.11,-19.08,-4.54,-20.65,-21.35,Standing
01:25.8,0,0,0,0,300,2.41,414.94,1.47,155.84,299,152,150.51,150,22651,115219,759,0.99,-0.16,0.16,-1.63,1.69,-1.17,-9.76,-75.65,-21.24,-19.12,-4.58,-20.78,-21.38,Standing
01:26.0,0,0,0,0,300,2.41,414.94,1.47,155.84,299,151,150.51,150,22651,138020,910,0.99,-0.16,0.16,-2.46,-0.82,-1.36,-9.58,-75.64,-21.48,-19.47,-4.65,-21,-21.72,Standing
01:26.1,0,0,0,0,299,2.42,412.98,1.46,155.84,299,150,150.51,150,22651,160520,1060,0.98,-0.15,0.14,-1.46,3.71,-0.4,-9.03,-76.62,-21.59,-19.26,-4.61,-21.09,-21.55,Standing
01:26.2,0,0,0,0,299,2.42,412.98,1.46,155.84,299,150,150.51,150,22651,183020,1210,0.99,-0.17,0.15,-3.5,0.79,2,-10.08,-75.49,-21.96,-19.41,-4.26,-21.48,-21.65,Standing
01:26.3,0,0,0,0,300,2.41,414.94,1.47,155.84,299,152,150.51,150,22651,206124,1362,0.99,-0.17,0.15,-3.05,-1.4,-0.78,-10.38,-75.44,-22.26,-19.83,-4.26,-21.79,-22.05,Standing
01:26.5,0,0,0,0,300,2.41,414.94,1.47,155.25,299,150,151.2,151,22861,0,0,0.98,-0.16,0.15,0.11,3.62,-2.53,-9.96,-75.73,-22.18,-19.63,-4.48,-21.69,-21.87,Standing
01:26.6,0,0,0,0,300,2.41,414.94,1.47,155.25,299,150,151.2,151,22861,22500,150,0.98,-0.16,0.14,-2.21,-1.64,1.21,-10.03,-75.79,-22.39,-20.08,-4.23,-21.89,-22.31,Standing
01:26.7,0,0,0,0,300,2.41,414.94,1.47,155.25,299,152,151.2,151,22861,45604,302,1,-0.17,0.13,-0.96,1.71,-0.47,-10.27,-76.23,-22.44,-20.12,-4.19,-21.95,-22.36,Standing
01:26.8,0,0,0,0,301,2.4,416.9,1.47,155.25,299,153,151.2,151,22861,69013,455,0.99,-0.17,0.15,-1.89,1.7,-2.82,-10.42,-75.48,-22.6,-20.15,-4.44,-22.11,-22.37,Standing
01:27.0,0,0,0,0,302,2.39,418.86,1.48,155.25,299,151,151.2,151,22861,91814,606,0.99,-0.16,0.15,-2.69,-0.72,-3.5,-9.75,-75.91,-22.86,-20.49,-4.77,-22.34,-22.7,Standing
01:27.1,0,0,0,0,301,2.4,416.9,1.47,155.25,299,151,151.2,151,22861,114615,757,0.99,-0.16,0.14,-1.48,1.92,-1.59,-9.51,-76.27,-22.98,-20.5,-4.87,-22.44,-22.73,Standing
01:27.2,0,0,0,0,302,2.39,418.86,1.48,155.25,299,153,151.2,151,22861,138024,910,0.99,-0.16,0.16,-0.54,0.63,-1.36,-9.61,-75.71,-22.98,-20.67,-4.94,-22.44,-22.87,Standing
01:27.3,0,0,0,0,302,2.39,418.86,1.48,155.25,299,150,151.2,151,22861,160524,1060,0.99,-0.16,0.14,-1.74,-0.76,-0.96,-9.67,-76.26,-23.12,-21.01,-4.96,-22.59,-23.22,Standing
01:27.5,0,0,0,0,302,2.39,418.86,1.48,155.25,299,150,151.2,151,22861,183024,1210,0.99,-0.15,0.15,-1.34,0.92,-2.63,-9.2,-76.18,-23.22,-21.15,-5.19,-22.66,-23.35,Standing
01:27.6,0,0,0,0,302,2.39,418.86,1.48,155.25,299,152,151.2,151,22861,206128,1362,0.99,-0.16,0.15,-1.66,0.54,-1.24,-9.43,-76.06,-23.36,-21.33,-5.25,-22.8,-23.52,Standing
01:27.7,0,0,0,0,302,2.39,418.86,1.48,159.08,301,150,151.2,151,22861,0,0,0.99,-0.16,0.15,-1.42,1.21,0.56,-9.85,-75.86,-23.46,-21.42,-5.08,-22.92,-23.6,Standing
01:27.8,0,0,0,0,301,2.4,416.9,1.47,159.08,301,151,151.2,151,22861,22801,151,0.99,-0.16,0.15,-0.79,-0.1,-1.18,-9.76,-75.88,-23.49,-21.68,-5.13,-22.94,-23.85,Standing
01:28.0,0,0,0,0,301,2.4,416.9,1.47,159.08,301,153,151.2,151,22861,46210,304,1,-0.17,0.16,-0.5,0.21,-0.79,-10.02,-75.49,-23.48,-21.91,-5.13,-22.94,-24.05,Standing
01:28.1,0,0,0,0,302,2.39,418.86,1.48,159.08,301,152,151.2,151,22861,69314,456,0.99,-0.16,0.14,-2.3,-1.27,-1.63,-9.72,-76.41,-23.7,-22.31,-5.24,-23.14,-24.48,Standing
01:28.2,0,0,0,0,303,2.38,420.83,1.48,159.08,301,153,151.2,151,22861,92723,609,0.99,-0.16,0.13,-2.27,1.7,-1.95,-9.91,-76.46,-23.91,-22.35,-5.38,-23.35,-24.52,Standing
01:28.3,0,0,0,0,303,2.38,420.83,1.48,159.08,301,154,151.2,151,22861,116439,763,0.99,-0.16,0.14,-3.38,1.42,-0.51,-9.9,-76.13,-24.26,-22.42,-5.35,-23.69,-24.57,Standing
01:28.5,0,0,0,0,304,2.37,422.81,1.49,159.08,301,155,151.2,151,22861,140464,918,1,-0.16,0.15,-1.55,0.83,-2.3,-9.44,-76.22,-24.38,-22.57,-5.53,-23.79,-24.71,Standing
01:28.6,0,0,0,0,304,2.37,422.81,1.49,159.08,301,156,151.2,151,22861,164800,1074,0.99,-0.15,0.13,-2.08,0.6,-0.86,-9.2,-76.85,-24.57,-22.74,-5.54,-23.96,-24.91,Standing
01:28.7,0,0,0,0,304,2.37,422.81,1.49,159.08,301,154,151.2,151,22861,188516,1228,0.99,-0.16,0.13,-1.32,3.74,-0.01,-9.63,-76.6,-24.67,-22.53,-5.45,-24.07,-24.69,Standing
01:28.8,0,0,0,0,304,2.37,422.81,1.49,159.08,301,154,151.2,151,22861,212232,1382,1,-0.19,0.15,-3.4,1.02,-1.79,-10.95,-74.85,-25.02,-22.65,-5.57,-24.46,-24.74,Standing
01:29.0,0,0,0,0,304,2.37,422.81,1.49,162.09,303,156,153.81,153,23655,0,0,1,-0.16,0.14,-3.34,-2.69,-5.25,-9.84,-76.25,-25.36,-23.23,-6.12,-24.74,-25.35,Standing
01:29.1,0,0,0,0,305,2.35,424.79,1.49,162.09,303,156,153.81,153,23655,24336,156,0.99,-0.14,0.13,-1.95,-1.08,-3.87,-8.81,-77.21,-25.54,-23.61,-6.5,-24.87,-25.76,Standing
01:29.2,0,0,0,0,305,2.35,424.79,1.49,162.09,303,156,153.81,153,23655,48672,312,0.98,-0.13,0.11,-2.23,-1.56,-1.72,-8.13,-78.4,-25.74,-24.05,-6.62,-25.04,-26.23,Standing
01:29.3,0,0,0,0,305,2.35,424.79,1.49,162.09,303,156,153.81,153,23655,73008,468,0.99,-0.13,0.12,-0.85,3.98,0.98,-8.18,-78.05,-25.78,-23.81,-6.4,-25.08,-25.98,Standing
01:29.4,0,0,0,0,305,2.35,424.79,1.49,162.09,303,157,153.81,153,23655,97657,625,0.99,-0.15,0.14,-0.72,0.77,-0.56,-9.27,-76.7,-25.8,-23.96,-6.37,-25.14,-26.07,Standing
01:29.6,0,0,0,0,304,2.37,422.81,1.49,162.09,303,153,153.81,153,23655,121066,778,1,-0.15,0.12,-2,-0.24,1.56,-9.11,-77.41,-25.98,-24.23,-6.08,-25.3,-26.36,Standing
01:29.7,0,0,0,0,304,2.37,422.81,1.49,162.09,303,152,153.81,153,23655,144170,930,0.99,-0.17,0.14,-0.28,2.06,-1.22,-10.01,-76.13,-25.94,-24.23,-6.13,-25.31,-26.3,Standing
01:29.8,0,0,0,0,303,2.38,420.83,1.48,162.09,303,152,153.81,153,23655,167274,1082,0.99,-0.15,0.13,-2.12,0.69,-2.39,-9.35,-76.76,-26.14,-24.39,-6.33,-25.47,-26.49,Standing
01:29.9,0,0,0,0,303,2.38,420.83,1.48,162.09,303,153,153.81,153,23655,190683,1235,1,-0.15,0.12,-0.91,3.12,-1.05,-8.75,-77.86,-26.18,-24.25,-6.37,-25.48,-26.4,Standing
01:30.1,0,0,0,0,303,2.38,420.83,1.48,162.09,303,151,153.81,153,23655,213484,1386,1,-0.16,0.13,-2.24,0.01,-3.56,-9.43,-77,-26.39,-24.5,-6.71,-25.71,-26.6,Standing
01:30.2,0,0,0,0,303,2.38,420.83,1.48,163.95,304,152,153.81,153,23657,0,0,0.97,-0.15,0.12,-3.14,-0.76,0.37,-9.14,-77.39,-26.71,-24.84,-6.57,-26.01,-26.94,Standing
01:30.3,0,0,0,0,304,2.37,422.81,1.49,163.95,304,154,153.81,153,23657,23716,154,1.02,-0.15,0.16,-4.89,2.47,-0.9,-8.97,-76.14,-27.24,-24.78,-6.58,-26.51,-26.84,Standing
01:30.4,0,0,0,0,304,2.37,422.81,1.49,163.95,304,156,153.81,153,23657,48052,310,0.98,-0.13,0.12,3.57,6.28,-4.27,-8.08,-77.98,-26.73,-24.25,-7.01,-25.99,-26.4,Standing
01:30.6,0,0,0,0,305,2.35,424.79,1.49,163.95,304,156,153.81,153,23657,72388,466,1,-0.16,0.14,-5.15,-5.03,2.73,-9.48,-76.39,-27.3,-25.12,-6.58,-26.59,-27.17,Standing
01:30.7,0,0,0,0,305,2.35,424.79,1.49,163.95,304,156,153.81,153,23657,96724,622,0.98,-0.15,0.14,-1.6,4.36,-5.52,-9.16,-76.49,-27.43,-24.83,-7.16,-26.7,-26.9,Standing
01:30.8,0,0,0,0,305,2.35,424.79,1.49,163.95,304,155,153.81,153,23657,120749,777,0.98,-0.14,0.15,2.52,5.46,1.71,-8.58,-76.81,-27.05,-24.4,-6.85,-26.31,-26.5,Standing
01:30.9,0,0,0,0,305,2.35,424.79,1.49,163.95,304,157,153.81,153,23657,145398,934,1,-0.16,0.14,-0.87,2.74,0.77,-9.65,-76.38,-27.09,-24.31,-6.66,-26.39,-26.39,Standing
01:31.1,0,0,0,0,305,2.35,424.79,1.49,163.95,304,157,153.81,153,23657,170047,1091,0.98,-0.17,0.14,-5.37,-4.5,4.79,-10.12,-75.72,-27.68,-25.12,-5.97,-26.98,-27.14,Standing
01:31.2,0,0,0,0,306,2.34,426.78,1.5,163.95,304,161,153.81,153,23657,195968,1252,1,-0.17,0.16,-2.1,-2.93,-0.69,-9.86,-75.29,-27.87,-25.73,-5.96,-27.15,-27.71,Standing
01:31.3,0,0,0,0,306,2.34,426.78,1.5,163.95,304,158,153.81,153,23657,220932,1410,0.99,-0.17,0.12,0.84,3.44,-2.79,-10.43,-76.46,-27.7,-25.55,-6.21,-27.01,-27.59,Standing
01:31.4,0,0,0,0,307,2.33,428.77,1.5,166.17,305,158,156.81,156,24588,0,0,0.99,-0.15,0.14,0.22,5.24,-5.55,-9.36,-76.47,-27.61,-25.16,-6.79,-26.88,-27.21,Standing
01:31.6,0,0,0,0,307,2.33,428.77,1.5,166.17,305,158,156.81,156,24588,24964,158,0.97,-0.15,0.15,-4.19,0.56,0.39,-9.08,-76.23,-28.06,-25.33,-6.64,-27.3,-27.37,Standing
01:31.7,0,0,0,0,306,2.34,426.78,1.5,166.17,305,158,156.81,156,24588,49928,316,0.99,-0.15,0.17,-0.18,1.42,-1.01,-9.28,-75.57,-28.01,-25.41,-6.67,-27.26,-27.41,Standing
01:31.8,0,0,0,0,306,2.34,426.78,1.5,166.17,305,157,156.81,156,24588,74577,473,1,-0.15,0.13,-1.11,-2.7,-2.25,-9.22,-77.03,-28.08,-25.99,-6.85,-27.32,-28.03,Standing
01:37.4,0,0,0,0,299,2.42,412.98,1.46,0,0,153,0,0,0,47125,307,0.98,-0.01,0.25,5.45,2.73,-5.9,-1.23,-73.92,0.74,-0.02,-0.15,0.66,-2.98,Left Fall while Standing
01:37.5,0,0,0,0,299,2.42,412.98,1.46,0,0,153,0,0,0,70534,460,0.97,0,0.24,16.09,9.79,-14.62,-0.43,-74.57,2.76,0.92,-1.83,2.63,-2.1,Left Fall while Standing
01:37.6,0,0,0,0,299,2.42,412.98,1.46,0,0,155,0,0,0,94559,615,0.95,0.01,0.25,10.68,20.23,-12.76,0.09,-73.89,4.12,3.13,-3.27,3.96,0.05,Left Fall while Standing
01:37.8,0,0,0,0,299,2.42,412.98,1.46,0,0,152,0,0,0,117663,767,0.93,0.03,0.3,-0.44,19.89,-11.69,1.25,-70.39,4.13,5.29,-4.59,4.02,2.26,Left Fall while Standing
01:37.9,0,0,0,0,299,2.42,412.98,1.46,0,0,154,0,0,0,141379,921,0.92,0.07,0.34,5.1,9.11,-8.24,3.26,-67.59,4.81,6.15,-5.49,4.75,3.2,Left Fall while Standing
01:38.0,0,0,0,0,299,2.42,412.98,1.46,0,0,154,0,0,0,165095,1075,0.95,0.1,0.39,12.71,13.89,-9.74,4.91,-65.71,6.41,7.57,-6.56,6.35,4.64,Left Fall while Standing
01:38.1,0,0,0,0,298,2.43,411.03,1.46,0,0,155,0,0,0,189120,1230,0.91,0.12,0.33,20.16,24.05,-27.49,6.7,-67.49,8.91,10.24,-9.79,8.82,7.13,Left Fall while Standing
01:38.2,0,0,0,0,297,2.44,409.09,1.45,0,0,151,0,0,0,211921,1381,0.87,0.18,0.39,2.64,5.19,-9.97,10.01,-62.38,9.3,10.63,-10.9,9.33,7.71,Left Fall while Standing
01:38.4,0,0,0,0,296,2.46,407.15,1.45,153.32,298,151,153.21,153,23471,0,0,0.89,0.2,0.4,2.45,6.85,-9.98,11.27,-61.69,9.67,11.22,-12.02,9.73,8.3,Left Fall while Standing
01:38.5,0,0,0,0,294,2.48,403.29,1.44,153.32,298,150,153.21,153,23471,22500,150,0.86,0.24,0.42,2.4,11.44,-11.45,13.22,-59.35,10.03,12.38,-13.34,10.16,9.51,Left Fall while Standing
01:38.6,0,0,0,0,294,2.48,403.29,1.44,153.32,298,152,153.21,153,23471,45604,302,0.85,0.26,0.41,3.26,3.42,-11.22,14.79,-58.62,10.5,12.56,-14.62,10.67,9.71,Left Fall while Standing
01:38.7,0,0,0,0,293,2.49,401.37,1.43,153.32,298,151,153.21,153,23471,68405,453,0.85,0.29,0.43,2.95,0.47,-12.97,16.18,-57.36,10.93,12.37,-16.1,11.14,9.58,Left Fall while Standing
01:38.9,0,0,0,0,293,2.49,401.37,1.43,153.32,298,152,153.21,153,23471,91509,605,0.83,0.31,0.39,7.69,3.14,-19.67,17.86,-57.46,11.94,12.51,-18.43,12.18,9.71,Left Fall while Standing
01:39.0,0,0,0,0,292,2.5,399.45,1.43,153.32,298,150,153.21,153,23471,114009,755,0.79,0.35,0.38,4.47,3.89,-13.15,21.24,-55.28,12.57,12.74,-19.96,12.91,10.02,Left Fall while Standing
01:39.1,0,0,0,0,292,2.5,399.45,1.43,153.32,298,149,153.21,153,23471,136210,904,0.8,0.38,0.4,1.71,6.08,-9.53,22.09,-53.91,12.85,13.25,-21.03,13.22,10.56,Left Fall while Standing
01:39.2,0,0,0,0,293,2.49,401.37,1.43,153.32,298,152,153.21,153,23471,159314,1056,0.78,0.4,0.45,7.79,4.8,-13.03,23.15,-50.81,13.88,13.59,-22.55,14.25,11.02,Left Fall while Standing
01:39.3,0,0,0,0,293,2.49,401.37,1.43,153.32,298,152,153.21,153,23471,182418,1208,0.79,0.41,0.41,13.57,-2.27,-11.85,24.41,-51.96,15.63,13.06,-23.92,15.98,10.46,Left Fall while Standing
01:39.5,0,0,0,0,294,2.48,403.29,1.44,153.32,298,152,153.21,153,23471,205522,1360,0.78,0.47,0.4,19.56,0.66,-18.69,27.4,-50.29,18.13,12.9,-26.14,18.5,10.37,Left Fall while Standing
01:39.6,0,0,0,0,294,2.48,403.29,1.44,142.93,293,152,151.2,151,22861,0,0,0.74,0.53,0.37,17,3.89,-20.96,32.09,-47.34,20.27,13.13,-28.61,20.74,10.71,Left Fall while Standing
01:39.7,0,0,0,0,294,2.48,403.29,1.44,142.93,293,151,151.2,151,22861,22801,151,0.73,0.56,0.31,7.59,-0.24,-15.18,34.47,-47.3,21.28,12.85,-30.39,21.81,10.44,Left Fall while Standing
01:39.8,0,0,0,0,294,2.48,403.29,1.44,142.93,293,152,151.2,151,22861,45905,303,0.7,0.58,0.35,5.01,7.27,-17.95,36.15,-44.26,21.96,13.49,-32.48,22.53,11.18,Left Fall while Standing
01:40.0,0,0,0,0,295,2.47,405.22,1.44,142.93,293,152,151.2,151,22861,69009,455,0.65,0.62,0.34,6.68,2.43,-16.15,39.22,-41.28,22.85,13.55,-34.37,23.5,11.35,Left Fall while Standing
01:40.1,0,0,0,0,296,2.46,407.15,1.45,142.93,293,152,151.2,151,22861,92113,607,0.65,0.65,0.32,8.83,-2.9,-15.68,41.39,-40.31,24.01,12.94,-36.22,24.71,10.81,Left Fall while Standing
01:40.2,0,0,0,0,295,2.47,405.22,1.44,142.93,293,150,151.2,151,22861,114613,757,0.64,0.68,0.3,8.33,0.64,-16.7,43.45,-38.99,25.12,12.77,-38.19,25.85,10.7,Left Fall while Standing
01:40.3,0,0,0,0,294,2.48,403.29,1.44,142.93,293,148,151.2,151,22861,136517,905,0.59,0.7,0.28,6.16,5.24,-18.15,46.34,-36.49,25.94,13.17,-40.33,26.76,11.18,Left Fall while Standing
01:40.5,0,0,0,0,293,2.49,401.37,1.43,142.93,293,149,151.2,151,22861,158718,1054,0.57,0.72,0.29,-0.54,6.83,-10.93,47.81,-34.68,25.95,13.77,-41.58,26.82,11.83,Left Fall while Standing
01:40.6,0,0,0,0,293,2.49,401.37,1.43,142.93,293,149,151.2,151,22861,180919,1203,0.55,0.73,0.31,1.84,7.24,-10.97,48.58,-33.32,26.24,14.42,-42.85,27.14,12.51,Left Fall while Standing
01:40.7,0,0,0,0,293,2.49,401.37,1.43,142.93,293,148,151.2,151,22861,202823,1351,0.54,0.76,0.28,7.07,6.15,-15.54,50.59,-32.12,27.18,14.93,-44.66,28.12,13.05,Left Fall while Standing
01:40.8,0,0,0,0,293,2.49,401.37,1.43,144.57,294,149,150.01,150,22501,0,0,0.49,0.78,0.26,2.97,8.47,-15.64,53.83,-29.43,27.62,15.72,-46.49,28.66,13.92,Left Fall while Standing
01:40.9,0,0,0,0,292,2.5,399.45,1.43,144.57,294,149,150.01,150,22501,22201,149,0.47,0.78,0.29,1.59,7.82,-12.29,54.24,-27.82,27.88,16.43,-47.89,28.93,14.66,Left Fall while Standing
01:41.1,0,0,0,0,292,2.5,399.45,1.43,144.57,294,147,150.01,150,22501,43810,296,0.44,0.8,0.27,-3.59,6.24,-5.04,56.62,-25.91,27.5,16.96,-48.42,28.67,15.25,Left Fall while Standing
01:41.2,0,0,0,0,291,2.52,397.54,1.42,144.57,294,149,150.01,150,22501,66011,445,0.46,0.81,0.31,-0.23,4.92,-4.66,54.74,-26.5,27.54,17.32,-48.89,28.63,15.57,Left Fall while Standing
01:41.3,0,0,0,0,291,2.52,397.54,1.42,144.57,294,151,150.01,150,22501,88812,596,0.45,0.81,0.3,7.1,2.14,-13.5,55.79,-25.91,28.49,17.34,-50.46,29.58,15.61,Left Fall while Standing
01:41.4,0,0,0,0,291,2.52,397.54,1.42,144.57,294,152,150.01,150,22501,111916,748,0.41,0.83,0.24,7.34,1.82,-12.54,59.72,-23.67,29.46,17.31,-51.91,30.67,15.68,Left Fall while Standing
01:41.6,0,0,0,0,291,2.52,397.54,1.42,144.57,294,152,150.01,150,22501,135020,900,0.36,0.84,0.23,-0.69,-3.08,1.14,62.33,-20.97,29.45,16.69,-51.68,30.76,15.18,Left Fall while Standing
01:41.7,0,0,0,0,292,2.5,399.45,1.43,144.57,294,153,150.01,150,22501,158429,1053,0.41,0.85,0.23,-9.7,0.89,15.13,60.65,-23.25,28.31,16.55,-49.7,29.61,14.96,Left Fall while Standing
01:41.8,0,0,0,0,291,2.52,397.54,1.42,144.57,294,151,150.01,150,22501,181230,1204,0.45,0.83,0.26,-6.85,15.83,15.98,57.52,-25.53,27.53,18.27,-47.62,28.73,16.52,Left Fall while Standing
01:41.9,0,0,0,0,291,2.52,397.54,1.42,144.57,294,151,150.01,150,22501,204031,1355,0.5,0.79,0.31,-6.04,-6.83,10.79,52.85,-28.99,26.86,17.17,-46.19,27.89,15.33,Left Fall while Standing
01:42.1,0,0,0,0,291,2.52,397.54,1.42,138.99,291,150,150.51,150,22652,0,0,0.52,0.79,0.3,-2.78,-13.56,6.6,52.03,-30.31,26.59,15.29,-45.29,27.6,13.46,Left Fall while Standing
01:42.2,0,0,0,0,290,2.53,395.63,1.42,138.99,291,150,150.51,150,22652,22500,150,0.52,0.77,0.25,-0.85,0.32,-6.38,52.38,-31.35,26.55,15.08,-45.99,27.58,13.22,Left Fall while Standing
01:42.3,0,0,0,0,291,2.52,397.54,1.42,138.99,291,151,150.51,150,22652,45301,301,0.45,0.78,0.22,-2,0.19,-6.49,56.78,-27.46,26.37,14.86,-46.69,27.59,13.17,Left Fall while Standing
01:42.4,0,0,0,0,291,2.52,397.54,1.42,138.99,291,150,150.51,150,22652,67801,451,0.5,0.79,0.26,-5.68,-5.41,13.46,54.03,-29.3,25.74,13.95,-44.93,26.88,12.22,Left Fall while Standing
01:42.6,0,0,0,0,290,2.53,395.63,1.42,138.99,291,149,150.51,150,22652,90002,600,0.53,0.76,0.28,-1.29,1.58,3.92,51.17,-31.5,25.65,13.89,-44.35,26.67,12.08,Left Fall while Standing
01:42.7,0,0,0,0,290,2.53,395.63,1.42,138.99,291,149,150.51,150,22652,112203,749,0.54,0.74,0.3,-5.75,-2.98,3.82,49.48,-32.57,25.02,13.28,-43.78,25.99,11.45,Left Fall while Standing
01:42.8,0,0,0,0,290,2.53,395.63,1.42,138.99,291,149,150.51,150,22652,134404,898,0.55,0.75,0.29,-1.44,-0.31,-3.85,49.59,-32.89,24.91,13,-44.16,25.89,11.16,Left Fall while Standing
01:42.9,0,0,0,0,290,2.53,395.63,1.42,138.99,291,149,150.51,150,22652,156605,1047,0.53,0.77,0.25,-2.32,-2.05,0.27,52.34,-31.56,24.69,12.49,-44.03,25.79,10.73,Left Fall while Standing
01:43.0,0,0,0,0,291,2.52,397.54,1.42,138.99,291,150,150.51,150,22652,179105,1197,0.55,0.76,0.3,-7.4,3.18,8.8,50.1,-32.12,23.85,12.64,-42.85,24.9,10.85,Left Fall while Standing
01:43.2,0,0,0,0,291,2.52,397.54,1.42,138.99,291,149,150.51,150,22652,201306,1346,0.56,0.72,0.3,-0.13,-3.3,7.72,48.13,-33.88,23.9,11.99,-41.81,24.87,10.15,Left Fall while Standing
01:43.3,0,0,0,0,290,2.53,395.63,1.42,137.1,290,147,149.3,149,22290,0,0,0.58,0.73,0.28,-7.46,-4.24,11.21,47.97,-35.06,23.06,11.23,-40.34,24.05,9.37,Left Fall while Standing
01:43.4,0,0,0,0,290,2.53,395.63,1.42,137.1,290,148,149.3,149,22290,21904,148,0.61,0.71,0.28,-9.35,-3.81,11.96,46.04,-37.14,21.97,10.51,-38.76,22.93,8.6,Left Fall while Standing
01:43.5,0,0,0,0,291,2.52,397.54,1.42,137.1,290,152,149.3,149,22290,45008,300,0.63,0.66,0.32,-4.27,3.98,4.53,42.34,-39.32,21.51,10.75,-38.11,22.35,8.75,Left Fall while Standing
01:43.7,0,0,0,0,291,2.52,397.54,1.42,137.1,290,148,149.3,149,22290,66912,448,0.63,0.67,0.28,-7.43,-5.79,6.24,43.72,-39.16,20.67,9.79,-37.24,21.59,7.83,Left Fall while Standing
01:43.8,0,0,0,0,291,2.52,397.54,1.42,137.1,290,149,149.3,149,22290,89113,597,0.65,0.68,0.28,-2.38,1.85,4.29,43.62,-39.58,20.44,9.77,-36.62,21.37,7.8,Left Fall while Standing
01:43.9,0,0,0,0,292,2.5,399.45,1.43,137.1,290,149,149.3,149,22290,111314,746,0.64,0.66,0.3,-6.35,5.15,14.63,42.67,-39.73,19.73,10.16,-34.72,20.65,8.16,Left Fall while Standing
01:44.0,0,0,0,0,292,2.5,399.45,1.43,137.1,290,150,149.3,149,22290,133814,896,0.71,0.6,0.32,-16.45,-15.1,30.86,37.12,-44.48,17.76,8.04,-30.8,18.53,5.94,Left Fall while Standing
01:44.2,0,0,0,0,293,2.49,401.37,1.43,137.1,290,151,149.3,149,22290,156615,1047,0.76,0.55,0.34,-19.88,-7.07,25.65,32.56,-48.29,15.38,6.92,-27.54,16.07,4.72,Left Fall while Standing
01:44.3,0,0,0,0,293,2.49,401.37,1.43,137.1,290,151,149.3,149,22290,179416,1198,0.78,0.48,0.34,-19.17,-13.01,27.01,28.92,-51.55,13.1,5.08,-24.12,13.73,2.81,Left Fall while Standing
01:44.4,0,0,0,0,294,2.48,403.29,1.44,137.1,290,153,149.3,149,22290,202825,1351,0.86,0.42,0.32,-4.11,-10.42,9.95,23.84,-56.81,12.66,3.54,-22.79,13.1,1.12,Left Fall while Standing
01:44.5,0,0,0,0,294,2.48,403.29,1.44,140.67,292,151,150.21,150,22561,0,0,0.83,0.41,0.28,-8.84,-3.59,4.45,24.57,-57.58,11.65,2.86,-22.15,12.16,0.44,Left Fall while Standing
01:44.6,0,0,0,0,294,2.48,403.29,1.44,140.67,292,151,150.21,150,22561,22801,151,0.82,0.38,0.28,-22.69,-8.39,19.07,23.14,-58.54,8.92,1.58,-19.71,9.49,-0.83,Left Fall while Standing
01:44.8,0,0,0,0,294,2.48,403.29,1.44,140.67,292,150,150.21,150,22561,45301,301,0.88,0.34,0.26,-26.15,-10.77,32.24,19.78,-62.37,5.78,0.01,-15.65,6.34,-2.49,Left Fall while Standing
01:44.9,0,0,0,0,294,2.48,403.29,1.44,140.67,292,152,150.21,150,22561,68405,453,0.93,0.26,0.33,-13.58,-1.31,16.46,13.97,-64.49,4.16,-0.4,-13.51,4.55,-2.97,Left Fall while Standing
01:45.0,0,0,0,0,294,2.48,403.29,1.44,140.67,292,152,150.21,150,22561,91509,605,0.91,0.21,0.29,-19.92,-3.71,18.22,11.74,-67.1,1.78,-1.1,-11.17,2.18,-3.74,Left Fall while Standing
01:45.1,0,0,0,0,294,2.48,403.29,1.44,140.67,292,150,150.21,150,22561,114009,755,0.93,0.17,0.3,-24.76,-13.25,25.27,9.1,-68.23,-1.22,-3,-7.94,-0.81,-5.61,Left Fall while Standing
01:45.3,0,0,0,0,293,2.49,401.37,1.43,140.67,292,149,150.21,150,22561,136210,904,0.97,0.09,0.26,-20.66,-20.37,29.95,4.69,-72.64,-3.69,-5.75,-4.16,-3.36,-8.42,Left Fall while Standing
01:45.4,0,0,0,0,293,2.49,401.37,1.43,140.67,292,148,150.21,150,22561,158114,1052,1,0,0.22,-9.56,-15.05,17.18,-0.4,-76.01,-4.8,-7.84,-1.95,-4.62,-10.57,Left Fall while Standing
01:45.5,0,0,0,0,293,2.49,401.37,1.43,140.67,292,149,150.21,150,22561,180315,1201,0.99,-0.04,0.18,-11.73,-0.66,7.95,-2.73,-77.94,-6.18,-8.17,-0.86,-6.04,-10.96,Left Fall while Standing
01:45.6,0,0,0,0,293,2.49,401.37,1.43,140.67,292,149,150.21,150,22561,202516,1350,0.99,-0.05,0.19,-16.67,-2.26,9.68,-3.5,-77,-8.18,-8.7,0.43,-7.99,-11.43,Left Fall while Standing
01:45.8,0,0,0,0,293,2.49,401.37,1.43,143.55,293,151,150.1,150,22530,0,0,0.99,-0.07,0.19,-14.95,-3.24,10.21,-4.3,-76.99,-9.95,-9.35,1.79,-9.72,-12.05,Left Fall while Standing
01:45.9,0,0,0,0,293,2.49,401.37,1.43,143.55,293,151,150.1,150,22530,22801,151,0.99,-0.11,0.19,-13.56,-6.96,12.5,-6.55,-75.97,-11.56,-10.46,3.43,-11.36,-13.08,Left Fall while Standing
01:46.0,0,0,0,0,294,2.48,403.29,1.44,143.55,293,152,150.1,150,22530,45905,303,1,-0.14,0.17,2.29,-0.45,-1.51,-8.51,-76.05,-11.21,-10.76,3.34,-11.1,-13.37,Left Fall while Standing
01:46.1,0,0,0,0,294,2.48,403.29,1.44,143.55,293,153,150.1,150,22530,69314,456,0.98,-0.13,0.16,2.98,5.25,-5.47,-8.1,-76.48,-10.77,-10.36,2.77,-10.66,-13,Left Fall while Standing
01:46.3,0,0,0,0,294,2.48,403.29,1.44,143.55,293,153,150.1,150,22530,92723,609,0.99,-0.11,0.17,-4.04,2.57,-1.05,-6.6,-77.15,-11.2,-10.29,2.73,-11.01,-12.96,Left Fall while Standing
01:46.4,0,0,0,0,294,2.48,403.29,1.44,143.55,293,154,150.1,150,22530,116439,763,1,-0.11,0.18,-0.57,1.79,-1.11,-6.57,-76.48,-11.2,-10.31,2.69,-11.01,-12.96,Left Fall while Standing
01:46.5,0,0,0,0,293,2.49,401.37,1.43,143.55,293,153,150.1,150,22530,139848,916,0.98,-0.12,0.18,2.03,3.21,-2.42,-7.15,-75.96,-10.88,-10.16,2.49,-10.73,-12.8,Left Fall while Standing
01:46.6,0,0,0,0,292,2.5,399.45,1.43,143.55,293,151,150.1,150,22530,162649,1067,0.98,-0.1,0.17,0.6,4.67,-3.51,-6.26,-76.85,-10.74,-9.83,2.16,-10.56,-12.52,Left Fall while Standing
01:52.5,0,0,0,0,302,2.39,418.86,1.48,0,0,174,0,0,0,61252,350,0.95,-0.19,0.28,-3.3,2.87,-2.02,-11.31,-68.81,-0.56,-0.74,0.19,-0.99,-3.46,Right Fall while Standing
01:52.6,0,0,0,0,301,2.4,416.9,1.47,0,0,172,0,0,0,90836,522,0.93,-0.18,0.28,0.72,1,-5.79,-11.01,-68.71,-0.41,-0.86,-0.42,-0.83,-3.57,Right Fall while Standing
01:52.7,0,0,0,0,300,2.41,414.94,1.47,0,0,172,0,0,0,120420,694,0.95,-0.18,0.3,-6.28,2.15,2.05,-10.85,-68.16,-1.11,-0.84,-0.07,-1.5,-3.53,Right Fall while Standing
01:52.9,0,0,0,0,299,2.42,412.98,1.46,0,0,171,0,0,0,149661,865,0.94,-0.18,0.28,0.72,5.64,-1.66,-10.95,-69.08,-0.95,-0.4,-0.18,-1.35,-3.15,Right Fall while Standing
01:53.0,0,0,0,0,292,2.5,399.45,1.43,0,0,146,0,0,0,170977,1011,0.93,-0.18,0.27,-4.33,-11.19,2.06,-11.14,-69.3,-1.41,-2,0.17,-1.8,-4.69,Right Fall while Standing
01:53.1,0,0,0,0,285,2.59,386.18,1.39,0,0,140,0,0,0,190577,1151,0.97,-0.21,0.28,-4.31,-2.16,3.55,-12.45,-68.73,-1.87,-2.51,0.7,-2.29,-5.15,Right Fall while Standing
01:53.2,0,0,0,0,287,2.56,389.95,1.4,0,0,160,0,0,0,216177,1311,0.98,-0.2,0.29,1.44,6.98,-12.97,-11.94,-68.33,-1.62,-1.9,-0.78,-2.04,-4.56,Right Fall while Standing
01:53.4,0,0,0,0,289,2.54,393.73,1.41,0,0,164,0,0,0,243073,1475,0.97,-0.15,0.28,7.41,20.46,-19.82,-9.04,-70.13,-0.65,0.35,-3.1,-0.99,-2.47,Right Fall while Standing
01:53.5,0,0,0,0,291,2.52,397.54,1.42,146.53,294,165,164.4,164,27028,0,0,0.91,-0.09,0.31,13.81,18.14,-25.79,-5.93,-68.99,1.12,2.33,-6.17,0.83,-0.52,Right Fall while Standing
01:53.6,0,0,0,0,292,2.5,399.45,1.43,146.53,294,166,164.4,164,27028,27556,166,0.9,-0.04,0.32,4.64,12.52,-15.18,-3.16,-68.54,1.76,3.63,-7.94,1.56,0.74,Right Fall while Standing
01:53.7,0,0,0,0,291,2.52,397.54,1.42,146.53,294,157,164.4,164,27028,52205,323,0.91,0,0.38,-14.08,-3.24,1.64,-0.69,-65.51,0.09,2.98,-7.65,0.06,0.24,Right Fall while Standing
01:53.8,0,0,0,0,285,2.59,386.18,1.39,146.53,294,144,164.4,164,27028,72941,467,0.94,-0.02,0.38,-3.31,-10.53,0.52,-1.9,-66.59,-0.24,1.44,-7.48,-0.31,-1.28,Right Fall while Standing
01:54.0,0,0,0,0,285,2.59,386.18,1.39,146.53,294,151,164.4,164,27028,95742,618,0.95,-0.07,0.28,-3.78,-13.13,8.29,-4.51,-71.31,-0.64,-0.4,-6.38,-0.79,-3.24,Right Fall while Standing
01:54.1,0,0,0,0,282,2.63,380.57,1.38,146.53,294,143,164.4,164,27028,116191,761,0.97,-0.11,0.28,-7.56,-20.5,6.27,-6.63,-71.11,-1.51,-3.19,-5.5,-1.71,-5.91,Right Fall while Standing
01:54.2,0,0,0,0,282,2.63,380.57,1.38,146.53,294,157,164.4,164,27028,140840,918,0.96,-0.11,0.23,-6.54,-8.68,2.75,-6.71,-73.9,-2.24,-4.51,-5.07,-2.42,-7.28,Right Fall while Standing
01:54.3,0,0,0,0,287,2.56,389.95,1.4,146.53,294,165,164.4,164,27028,168065,1083,0.95,-0.13,0.25,-3.73,-2.23,6.25,-8.1,-71.87,-2.63,-5.03,-4.19,-2.85,-7.71,Right Fall while Standing
01:54.5,0,0,0,0,290,2.53,395.63,1.42,146.53,294,166,164.4,164,27028,195621,1249,0.95,-0.12,0.23,-4.37,-3.79,11.91,-7.43,-73.35,-3.11,-5.75,-2.62,-3.28,-8.45,Right Fall while Standing
01:54.6,0,0,0,0,291,2.52,397.54,1.42,146.53,294,162,164.4,164,27028,221865,1411,0.97,-0.14,0.23,-0.53,18.26,8.66,-8.5,-72.66,-3.1,-3.73,-1.45,-3.32,-6.49,Right Fall while Standing
01:54.7,0,0,0,0,286,2.58,388.06,1.4,130.01,287,147,156.04,155,24346,0,0,0.95,-0.19,0.3,0.82,13.59,12.94,-11.12,-67.87,-2.93,-2.32,0.23,-3.26,-4.94,Right Fall while Standing
01:54.8,0,0,0,0,282,2.63,380.57,1.38,130.01,287,143,156.04,155,24346,20449,143,0.93,-0.22,0.26,-6.35,-6.32,22.92,-13.66,-68.33,-3.65,-3.34,3.15,-4.05,-5.94,Right Fall while Standing
01:54.9,0,0,0,0,281,2.64,378.71,1.37,130.01,287,143,156.04,155,24346,40898,286,0.94,-0.28,0.25,-5.85,-6.68,29.03,-16.48,-66.79,-4.3,-4.42,6.84,-4.79,-6.91,Right Fall while Standing
01:55.1,0,0,0,0,281,2.64,378.71,1.37,130.01,287,143,156.04,155,24346,61347,429,0.93,-0.32,0.24,-7.37,-0.34,16.44,-19.24,-64.77,-5.14,-4.71,8.96,-5.7,-7.11,Right Fall while Standing
01:55.2,0,0,0,0,282,2.63,380.57,1.38,130.01,287,144,156.04,155,24346,82083,573,0.94,-0.36,0.25,-9.56,-8.08,11.74,-20.85,-63.48,-6.25,-5.95,10.5,-6.83,-8.25,Right Fall while Standing
01:55.3,0,0,0,0,281,2.64,378.71,1.37,130.01,287,144,156.04,155,24346,102819,717,0.91,-0.39,0.2,-8.1,-3.62,13.43,-23.13,-62.83,-7.18,-6.64,12.27,-7.82,-8.89,Right Fall while Standing
01:55.4,0,0,0,0,281,2.64,378.71,1.37,130.01,287,145,156.04,155,24346,123844,862,0.88,-0.43,0.2,-6.61,-2.79,13.09,-25.72,-60.37,-7.93,-7.24,13.99,-8.64,-9.36,Right Fall while Standing
01:55.6,0,0,0,0,282,2.63,380.57,1.38,130.01,287,145,156.04,155,24346,144869,1007,0.88,-0.44,0.17,-3.15,-4.75,16.41,-26.6,-60.27,-8.25,-8.07,16.12,-8.99,-10.16,Right Fall while Standing
01:55.7,0,0,0,0,282,2.63,380.57,1.38,130.01,287,147,156.04,155,24346,166478,1154,0.89,-0.48,0.15,-9.77,-2.73,20.98,-28.35,-59.14,-9.4,-8.66,18.82,-10.15,-10.68,Right Fall while Standing
01:55.8,0,0,0,0,283,2.61,382.43,1.38,130.01,287,147,156.04,155,24346,188087,1301,0.82,-0.53,0.22,-5.37,-2.51,10.61,-32.68,-53.36,-9.99,-9.22,20.23,-10.9,-10.98,Right Fall while Standing
01:55.9,0,0,0,0,282,2.63,380.57,1.38,117.55,281,147,144.81,144,20968,0,0,0.86,-0.55,0.16,-6.47,-5.81,8.46,-32.8,-54.79,-10.72,-10.18,21.37,-11.6,-11.96,Right Fall while Standing
01:56.1,0,0,0,0,283,2.61,382.43,1.38,117.55,281,161,144.81,144,20968,25921,161,0.85,-0.56,0.11,-6.47,-6.9,7.58,-33.84,-54.39,-11.46,-11.29,22.42,-12.35,-13.02,Right Fall while Standing
01:56.2,0,0,0,0,289,2.54,393.73,1.41,117.55,281,171,144.81,144,20968,55162,332,0.83,-0.58,0.1,-4.82,-3.87,6.76,-35.28,-53.13,-11.99,-12.02,23.35,-12.92,-13.66,Right Fall while Standing
01:56.3,0,0,0,0,291,2.52,397.54,1.42,117.55,281,160,144.81,144,20968,80762,492,0.81,-0.59,0.1,-6.13,0.76,9.11,-36.49,-51.95,-12.67,-12.17,24.57,-13.62,-13.76,Right Fall while Standing
01:56.4,0,0,0,0,285,2.59,386.18,1.39,117.55,281,152,144.81,144,20968,103866,644,0.82,-0.64,0.09,-5.88,3.33,13.55,-38.1,-50.46,-13.33,-12.01,26.35,-14.32,-13.55,Right Fall while Standing
01:56.6,0,0,0,0,282,2.63,380.57,1.38,117.55,281,148,144.81,144,20968,125770,792,0.8,-0.65,0.1,-9.34,4.71,8.46,-39.57,-48.88,-14.43,-11.67,27.51,-15.43,-13.16,Right Fall while Standing
01:56.7,0,0,0,0,280,2.65,376.85,1.37,117.55,281,147,144.81,144,20968,147379,939,0.78,-0.66,0.08,-5.84,1.92,9.94,-40.6,-48.02,-15.08,-11.68,28.84,-16.1,-13.13,Right Fall while Standing
01:56.8,0,0,0,0,284,2.6,384.3,1.39,117.55,281,167,144.81,144,20968,175268,1106,0.77,-0.67,0.09,-3.45,4.88,10.52,-41.4,-47.19,-15.44,-11.32,30.24,-16.48,-12.76,Right Fall while Standing
01:56.9,0,0,0,0,288,2.55,391.84,1.41,117.55,281,170,144.81,144,20968,204168,1276,0.75,-0.71,0.09,-1.24,4.8,9.44,-43.65,-44.92,-15.53,-10.97,31.52,-16.65,-12.33,Right Fall while Standing
01:57.1,0,0,0,0,290,2.53,395.63,1.42,117.55,281,170,144.81,144,20968,233068,1446,0.72,-0.7,0.1,-1.28,1.21,1.97,-44.36,-44.07,-15.62,-11.07,31.86,-16.77,-12.39,Right Fall while Standing
01:57.2,0,0,0,0,290,2.53,395.63,1.42,128.02,286,171,161.96,161,26229,0,0,0.71,-0.7,0.08,-2.79,0.88,6.48,-44.91,-43.76,-15.89,-11.21,32.75,-17.05,-12.51,Right Fall while Standing
01:57.3,0,0,0,0,290,2.53,395.63,1.42,128.02,286,171,161.96,161,26229,29241,171,0.75,-0.76,0.1,0.31,-2.63,6.54,-45.64,-42.82,-15.78,-11.78,33.66,-16.98,-13.02,Right Fall while Standing
01:57.4,0,0,0,0,291,2.52,397.54,1.42,128.02,286,171,161.96,161,26229,58482,342,0.68,-0.75,0.08,2.44,1.18,2.44,-48.06,-40.61,-15.41,-11.88,34.06,-16.72,-13.03,Right Fall while Standing
01:57.6,0,0,0,0,291,2.52,397.54,1.42,128.02,286,171,161.96,161,26229,87723,513,0.7,-0.74,0.1,-5.62,-2.52,2.92,-46.89,-41.61,-16.04,-12.44,34.52,-17.27,-13.61,Right Fall while Standing
01:57.7,0,0,0,0,291,2.52,397.54,1.42,128.02,286,170,161.96,161,26229,116623,683,0.69,-0.74,0.1,-5.56,-0.11,5.72,-47.32,-41.14,-16.65,-12.7,35.32,-17.88,-13.84,Right Fall while Standing
01:57.8,0,0,0,0,291,2.52,397.54,1.42,128.02,286,170,161.96,161,26229,145523,853,0.67,-0.76,0.08,-7.69,-2.64,6.2,-49.02,-39.62,-17.55,-13.28,36.2,-18.8,-14.34,Right Fall while Standing
01:57.9,0,0,0,0,291,2.52,397.54,1.42,128.02,286,170,161.96,161,26229,174423,1023,0.67,-0.78,0.06,-6.84,-4.12,3.79,-50.04,-38.75,-18.32,-14.04,36.76,-19.59,-15.03,Right Fall while Standing
01:58.1,0,0,0,0,291,2.52,397.54,1.42,128.02,286,172,161.96,161,26229,204007,1195,0.66,-0.79,0.05,-5.48,-4.73,4.5,-50.63,-38.21,-18.94,-14.88,37.42,-20.21,-15.82,Right Fall while Standing
01:58.2,0,0,0,0,292,2.5,399.45,1.43,128.02,286,170,161.96,161,26229,232907,1365,0.66,-0.78,0.04,-5.36,-5.8,2,-50.42,-38.5,-19.53,-15.85,37.77,-20.77,-16.76,Right Fall while Standing
01:58.3,0,0,0,0,290,2.53,395.63,1.42,128.02,286,169,161.96,161,26229,261468,1534,0.65,-0.8,0.01,-4.44,-3.4,2.87,-51.32,-37.67,-20.02,-16.53,38.23,-21.27,-17.37,Right Fall while Standing
01:58.4,0,0,0,0,290,2.53,395.63,1.42,137.95,290,169,170.3,170,29001,0,0,0.64,-0.79,0.01,-5.32,-3.29,2.57,-51.74,-37.26,-20.61,-17.18,38.64,-21.85,-17.98,Right Fall while Standing
01:58.5,0,0,0,0,289,2.54,393.73,1.41,137.95,290,169,170.3,170,29001,28561,169,0.63,-0.8,-0.01,-4.16,-3.58,2.48,-52.06,-36.93,-21.05,-17.87,39.05,-22.29,-18.63,Right Fall while Standing
01:58.7,0,0,0,0,289,2.54,393.73,1.41,137.95,290,169,170.3,170,29001,57122,338,0.63,-0.8,-0.02,-5.35,-2.65,3.11,-52.47,-36.51,-21.65,-18.45,39.53,-22.88,-19.17,Right Fall while Standing
01:58.8,0,0,0,0,290,2.53,395.63,1.42,137.95,290,169,170.3,170,29001,85683,507,0.63,-0.82,-0.04,-4.8,-3.74,0.88,-53.05,-35.88,-22.18,-19.16,39.74,-23.41,-19.83,Right Fall while Standing
01:58.9,0,0,0,0,289,2.54,393.73,1.41,137.95,290,168,170.3,170,29001,113907,675,0.63,-0.82,-0.05,-6.47,-4.08,1.73,-52.98,-35.89,-22.92,-19.92,40.06,-24.12,-20.56,Right Fall while Standing
01:59.0,0,0,0,0,288,2.55,391.84,1.41,137.95,290,167,170.3,170,29001,141796,842,0.62,-0.82,-0.05,-5.66,-3.35,2.15,-53.3,-35.57,-23.55,-20.59,40.42,-24.74,-21.19,Right Fall while Standing
01:59.2,0,0,0,0,287,2.56,389.95,1.4,137.95,290,168,170.3,170,29001,170020,1010,0.62,-0.81,-0.07,-4.31,-1.6,0.39,-52.9,-35.84,-24.01,-21.03,40.57,-25.17,-21.63,Right Fall while Standing
01:59.3,0,0,0,0,287,2.56,389.95,1.4,137.95,290,168,170.3,170,29001,198244,1178,0.62,-0.82,-0.07,-2.6,-0.44,0.16,-53.54,-35.17,-24.27,-21.34,40.69,-25.44,-21.89,Right Fall while Standing
01:59.4,0,0,0,0,286,2.58,388.06,1.4,137.95,290,166,170.3,170,29001,225800,1344,0.6,-0.84,-0.08,-4.24,-0.77,0.13,-54.6,-34.04,-24.73,-21.68,40.8,-25.92,-22.18,Right Fall while Standing
01:59.5,0,0,0,0,285,2.59,386.18,1.39,137.95,290,166,170.3,170,29001,253356,1510,0.61,-0.84,-0.07,-0.37,0.66,-1.79,-54.27,-34.44,-24.7,-21.85,40.68,-25.89,-22.35,Right Fall while Standing
01:59.7,0,0,0,0,284,2.6,384.3,1.39,130.64,287,165,167.51,167,28057,0,0,0.62,-0.84,-0.09,1.3,2.39,-4.21,-54.04,-34.55,-24.48,-21.8,40.25,-25.66,-22.31,Right Fall while Standing
01:59.8,0,0,0,0,284,2.6,384.3,1.39,130.64,287,166,167.51,167,28057,27556,166,0.62,-0.83,-0.09,-5.4,-0.33,1.4,-53.47,-35.05,-25.08,-22.09,40.53,-26.21,-22.61,Right Fall while Standing
01:59.9,0,0,0,0,284,2.6,384.3,1.39,130.64,287,166,167.51,167,28057,55112,332,0.64,-0.84,-0.05,4.56,8.27,-6.86,-53.16,-35.7,-24.44,-21.31,39.77,-25.59,-21.88,Right Fall while Standing
02:00.0,0,0,0,0,283,2.61,382.43,1.38,130.64,287,164,167.51,167,28057,82008,496,0.62,-0.81,-0.06,0.66,-1.79,-6.92,-53.14,-35.66,-24.28,-21.78,39.01,-25.44,-22.33,Right Fall while Standing
02:00.2,0,0,0,0,283,2.61,382.43,1.38,130.64,287,166,167.51,167,28057,109564,662,0.65,-0.82,-0.07,1.51,3.84,-4.11,-51.77,-36.96,-24.03,-21.55,38.6,-25.14,-22.17,Right Fall while Standing
02:00.3,0,0,0,0,284,2.6,384.3,1.39,130.64,287,168,167.51,167,28057,137788,830,0.67,-0.82,-0.03,10.98,10.04,-11.84,-51.37,-37.57,-22.58,-20.54,37.21,-23.74,-21.23,Right Fall while Standing
02:00.4,0,0,0,0,285,2.59,386.18,1.39,130.64,287,168,167.51,167,28057,166012,998,0.66,-0.79,0.02,10.9,8.82,-18.1,-50.76,-38.21,-21.15,-19.69,35.05,-22.34,-20.43,Right Fall while Standing
02:00.5,0,0,0,0,285,2.59,386.18,1.39,130.64,287,167,167.51,167,28057,193901,1165,0.68,-0.73,0,10.4,14.13,-15.03,-47.81,-41.19,-19.8,-18.2,33.3,-20.92,-19.12,Right Fall while Standing
02:00.7,0,0,0,0,284,2.6,384.3,1.39,130.64,287,166,167.51,167,28057,221457,1331,0.72,-0.73,0.05,4.57,10.33,-12.11,-45.79,-43.07,-19.16,-17.16,31.89,-20.23,-18.2,Right Fall while Standing
02:00.8,0,0,0,0,283,2.61,382.43,1.38,130.64,287,164,167.51,167,28057,248353,1495,0.74,-0.72,0.1,4.31,11.23,-15.55,-44.52,-43.97,-18.55,-16.01,30.04,-19.59,-17.12,Right Fall while Standing
02:00.9,0,0,0,0,283,2.61,382.43,1.38,122.5,283,163,165.81,165,27491,0,0,0.77,-0.69,0.1,1.04,7.48,-20.66,-42.05,-46.38,-18.36,-15.33,27.6,-19.3,-16.57,Right Fall while Standing
02:01.0,0,0,0,0,282,2.63,380.57,1.38,122.5,283,159,165.81,165,27491,25281,159,0.78,-0.65,0.16,6.47,10.39,-29.1,-39.99,-47.63,-17.48,-14.28,24.06,-18.38,-15.62,Right Fall while Standing
02:01.2,0,0,0,0,277,2.69,371.31,1.35,122.5,283,146,165.81,165,27491,46597,305,0.8,-0.59,0.15,2.79,12.21,-29.86,-36.55,-51.15,-17.06,-13.02,20.45,-17.84,-14.54,Right Fall while Standing
02:01.3,0,0,0,0,274,2.73,365.82,1.34,122.5,283,143,165.81,165,27491,67046,448,0.86,-0.54,0.21,-3.11,4.7,-36.98,-31.99,-54.48,-17.38,-12.68,15.96,-17.96,-14.35,Right Fall while Standing
02:01.4,0,0,0,0,272,2.76,362.18,1.33,122.5,283,143,165.81,165,27491,87495,591,0.87,-0.48,0.18,3.92,7.48,-48.05,-28.73,-58.23,-16.82,-12,10.06,-17.3,-13.85,Right Fall while Standing
02:01.5,0,0,0,0,272,2.76,362.18,1.33,122.5,283,143,165.81,165,27491,107944,734,0.89,-0.35,0.18,-0.9,26.73,-43.96,-21.64,-64.69,-16.86,-8.93,4.7,-17.05,-11.16,Right Fall while Standing
02:01.7,0,0,0,0,272,2.76,362.18,1.33,122.5,283,143,165.81,165,27491,128393,877,0.91,-0.28,0.26,6.44,12.04,-39.78,-17.27,-65.66,-15.99,-7.69,-0.13,-16.05,-10.01,Right Fall while Standing
02:01.8,0,0,0,0,273,2.75,364,1.33,122.5,283,143,165.81,165,27491,148842,1020,0.9,-0.21,0.24,-5.98,-13.55,-32.24,-13.18,-69.07,-16.67,-9.63,-4.06,-16.53,-12.01,Right Fall while Standing
02:01.9,0,0,0,0,273,2.75,364,1.33,122.5,283,143,165.81,165,27491,169291,1163,0.96,-0.17,0.28,-14.22,-26.28,1.09,-10.13,-69.45,-18.38,-13.16,-3.83,-18.05,-15.42,Right Fall while Standing
02:02.0,0,0,0,0,273,2.75,364,1.33,122.5,283,143,165.81,165,27491,189740,1306,1.02,-0.2,0.2,-0.76,-10.2,-22.37,-11.37,-73.07,-18.4,-14.68,-6.5,-18.12,-17.01,Right Fall while Standing
02:02.2,0,0,0,0,273,2.75,364,1.33,97.99,274,145,145.18,145,21075,0,0,1,-0.17,0.1,-9.09,-2.38,-27.21,-10.24,-77.28,-19.45,-15.22,-9.75,-19.08,-17.7,Right Fall while Standing
02:02.3,0,0,0,0,273,2.75,364,1.33,97.99,274,144,145.18,145,21075,20736,144,1.02,-0.07,0.13,-24.15,1.38,-16.5,-4.6,-79.9,-22.4,-15.29,-11.72,-21.69,-17.88,Right Fall while Standing
02:02.4,0,0,0,0,273,2.75,364,1.33,97.99,274,144,145.18,145,21075,41472,288,0.94,-0.07,0.17,-23.05,-4.66,-21.47,-4.9,-77.35,-25.19,-16.12,-14.28,-24.38,-18.57,Right Fall while Standing
02:02.5,0,0,0,0,272,2.76,362.18,1.33,97.99,274,145,145.18,145,21075,62497,433,0.93,-0.05,0.1,-25.44,-5.6,-15.87,-3.79,-81.51,-28.27,-17.06,-16.15,-27.3,-19.64,Right Fall while Standing
02:02.7,0,0,0,0,272,2.76,362.18,1.33,97.99,274,145,145.18,145,21075,83522,578,0.97,0.02,0.14,-28.23,-5.28,1.24,0.32,-79.92,-31.73,-17.97,-15.9,-30.45,-20.45,Right Fall while Standing
02:02.8,0,0,0,0,272,2.76,362.18,1.33,97.99,274,146,145.18,145,21075,104838,724,1.01,-0.01,0.13,-9.31,-0.79,0.62,-1.14,-81.1,-32.82,-18.32,-15.73,-31.55,-20.83,Right Fall while Standing
02:02.9,0,0,0,0,272,2.76,362.18,1.33,97.99,274,147,145.18,145,21075,126447,871,0.98,-0.04,0.13,-4.79,-1.4,13.41,-3.11,-80.55,-33.34,-18.74,-13.96,-32.13,-21.21,Right Fall while Standing
02:03.0,0,0,0,0,272,2.76,362.18,1.33,97.99,274,146,145.18,145,21075,147763,1017,1.02,-0.09,0.13,1.81,-3.87,9.02,-5.87,-79.48,-33.05,-19.47,-12.74,-31.96,-21.87,Right Fall while Standing
02:03.1,0,0,0,0,272,2.76,362.18,1.33,97.99,274,147,145.18,145,21075,169372,1164,1,-0.11,0.1,5.02,-2.5,3.53,-6.77,-79.94,-32.36,-20.03,-12.2,-31.33,-22.43,Right Fall while Standing
02:03.3,0,0,0,0,272,2.76,362.18,1.33,97.99,274,146,145.18,145,21075,190688,1310,1.02,-0.11,0.1,0.25,3.97,1.47,-6.64,-80.14,-32.25,-19.79,-11.92,-31.23,-22.2,Right Fall while Standing
02:03.4,0,0,0,0,273,2.75,364,1.33,92.8,272,146,145.6,145,21199,0,0,1,-0.12,0.11,2.05,5.87,-0.66,-7.62,-79.04,-31.94,-19.31,-11.91,-30.96,-21.7,Right Fall while Standing
02:03.5,0,0,0,0,273,2.75,364,1.33,92.8,272,147,145.6,145,21199,21609,147,0.98,-0.12,0.1,-1.53,2.26,1.72,-7.66,-79.13,-32.06,-19.28,-11.6,-31.08,-21.68,Right Fall while Standing
02:03.6,0,0,0,0,274,2.73,365.82,1.34,92.8,272,146,145.6,145,21199,42925,293,1.02,-0.11,0.13,0.57,3.73,2.38,-6.66,-78.84,-31.92,-19.07,-11.2,-30.91,-21.46,Right Fall while Standing
02:07.8,0,0,0,0,281,2.64,378.71,1.37,0,0,147,0,0,0,43513,295,0.97,-0.12,0.2,-1.11,-13.17,1.42,-7.59,-74.98,-0.12,-2.64,0.59,-0.42,-5.54,Forward Fall while Standing
02:07.9,0,0,0,0,282,2.63,380.57,1.38,0,0,148,0,0,0,65417,443,1,-0.12,0.15,-9.54,-13.6,0.6,-7.54,-77.4,-1.21,-4.53,0.76,-1.46,-7.44,Forward Fall while Standing
02:08.0,0,0,0,0,282,2.63,380.57,1.38,0,0,147,0,0,0,87026,590,0.97,-0.11,0.11,-8.76,-23.67,2.48,-7.32,-78.88,-2.2,-7.64,1.16,-2.4,-10.49,Forward Fall while Standing
02:08.2,0,0,0,0,283,2.61,382.43,1.38,0,0,148,0,0,0,108930,738,1.01,-0.15,0.08,-7.47,-40.34,5.69,-9.28,-78.74,-3.04,-12.8,1.95,-3.29,-15.44,Forward Fall while Standing
02:08.3,0,0,0,0,283,2.61,382.43,1.38,0,0,149,0,0,0,131131,887,1,-0.16,-0.03,-6.5,-58.89,3.02,-9.91,-78.97,-3.76,-20.17,2.41,-4.01,-22.52,Forward Fall while Standing
02:08.4,0,0,0,0,284,2.6,384.3,1.39,0,0,148,0,0,0,153035,1035,0.99,-0.15,-0.18,1.5,-45.6,0.31,-9.13,-75.25,-3.51,-25.98,2.54,-3.73,-27.95,Forward Fall while Standing
02:08.5,0,0,0,0,283,2.61,382.43,1.38,0,0,149,0,0,0,175236,1184,1,-0.17,-0.28,3.62,-15.33,-1.67,-9.64,-70.34,-3,-28.09,2.44,-3.27,-29.78,Forward Fall while Standing
02:08.6,0,0,0,0,283,2.61,382.43,1.38,0,0,148,0,0,0,197140,1332,0.98,-0.18,-0.27,-4.76,-11.66,-1.19,-10.79,-69.97,-3.51,-29.76,2.39,-3.8,-31.37,Forward Fall while Standing
02:08.8,0,0,0,0,283,2.61,382.43,1.38,119.7,282,149,148.1,148,21933,0,0,0.97,-0.16,-0.21,-3.72,-31.66,-0.08,-9.92,-73.05,-3.9,-33.93,2.47,-4.14,-35.49,Forward Fall while Standing
02:08.9,0,0,0,0,282,2.63,380.57,1.38,119.7,282,148,148.1,148,21933,21904,148,0.97,-0.15,-0.38,-6.04,-35.85,0.02,-8.62,-65.38,-4.58,-38.62,2.57,-4.74,-39.69,Forward Fall while Standing
02:09.0,0,0,0,0,282,2.63,380.57,1.38,119.7,282,148,148.1,148,21933,43808,296,0.93,-0.16,-0.48,-1.34,-15.63,-2.62,-9.39,-59.95,-4.68,-40.79,2.35,-4.87,-41.56,Forward Fall while Standing
02:09.1,0,0,0,0,283,2.61,382.43,1.38,119.7,282,148,148.1,148,21933,65712,444,0.91,-0.17,-0.52,-6.87,-23.96,0.39,-9.76,-57.68,-5.46,-44.01,2.5,-5.63,-44.56,Forward Fall while Standing
02:09.3,0,0,0,0,282,2.63,380.57,1.38,119.7,282,147,148.1,148,21933,87321,591,0.9,-0.16,-0.55,-4.5,-24.43,-1.1,-9.1,-56.05,-5.95,-47.29,2.46,-6.08,-47.64,Forward Fall while Standing
02:09.4,0,0,0,0,282,2.63,380.57,1.38,119.7,282,146,148.1,148,21933,108637,737,0.87,-0.15,-0.6,-4.98,-25.65,1.08,-8.85,-53.06,-6.5,-50.72,2.69,-6.59,-50.81,Forward Fall while Standing
02:09.5,0,0,0,0,282,2.63,380.57,1.38,119.7,282,147,148.1,148,21933,130246,884,0.84,-0.16,-0.65,-5.56,-24.74,0.51,-9,-49.93,-7.12,-54.03,2.85,-7.19,-53.87,Forward Fall while Standing
02:09.6,0,0,0,0,282,2.63,380.57,1.38,119.7,282,147,148.1,148,21933,151855,1031,0.78,-0.16,-0.69,-2.6,-30.24,2.82,-9.15,-46.33,-7.37,-58.03,3.3,-7.44,-57.56,Forward Fall while Standing
02:09.8,0,0,0,0,282,2.63,380.57,1.38,119.7,282,148,148.1,148,21933,173759,1179,0.77,-0.17,-0.74,-0.39,-32.75,5.73,-9.36,-44.01,-7.35,-62.34,4.11,-7.43,-61.6,Forward Fall while Standing
02:09.9,0,0,0,0,282,2.63,380.57,1.38,119.7,282,148,148.1,148,21933,195663,1327,0.72,-0.18,-0.82,0.47,-15.54,1.11,-10.16,-38.9,-7.22,-64.51,4.34,-7.34,-63.49,Forward Fall while Standing
02:10.0,0,0,0,0,282,2.63,380.57,1.38,118.51,282,148,147.5,147,21755,0,0,0.68,-0.18,-0.79,-2.58,-9.25,4.93,-10.19,-38.7,-7.47,-65.9,5.05,-7.58,-64.81,Forward Fall while Standing
02:10.1,0,0,0,0,283,2.61,382.43,1.38,118.51,282,150,147.5,147,21755,22500,150,0.66,-0.21,-0.8,-1.01,-27.98,4.96,-11.94,-36.74,-7.53,-69.62,5.76,-7.7,-68.3,Forward Fall while Standing
02:10.3,0,0,0,0,282,2.63,380.57,1.38,118.51,282,149,147.5,147,21755,44701,299,-0.32,-0.19,-0.12,0.69,1,2.1,-29.71,56.51,-7.37,-69.74,6.12,-8.26,-64.69,Forward Fall while Standing
02:10.4,0,0,0,0,281,2.64,378.71,1.37,118.51,282,149,147.5,147,21755,66902,448,0.58,-0.2,-0.91,1.83,-14.6,1.89,-11.03,-30.5,-7.08,-71.78,6.45,-7.23,-70.13,Forward Fall while Standing
02:10.5,0,0,0,0,281,2.64,378.71,1.37,118.51,282,148,147.5,147,21755,88806,596,0.54,-0.22,-0.91,1.15,-16,2.27,-12.24,-28.56,-6.86,-74.01,6.83,-7.08,-72.19,Forward Fall while Standing
02:10.6,0,0,0,0,281,2.64,378.71,1.37,118.51,282,148,147.5,147,21755,110710,744,0.51,-0.24,-0.94,0.29,-14.94,2.7,-12.98,-26.22,-6.76,-76.1,7.26,-7.01,-74.1,Forward Fall while Standing
02:10.7,0,0,0,0,281,2.64,378.71,1.37,118.51,282,150,147.5,147,21755,133210,894,0.49,-0.23,-0.96,-1.34,-9.18,2.15,-12.47,-25.12,-6.86,-77.48,7.62,-7.08,-75.39,Forward Fall while Standing
02:10.9,0,0,0,0,281,2.64,378.71,1.37,118.51,282,149,147.5,147,21755,155411,1043,0.46,-0.24,-0.92,3.1,-19.86,3.12,-13.73,-24.11,-6.4,-80.22,8.11,-6.69,-77.97,Forward Fall while Standing
02:11.0,0,0,0,0,281,2.64,378.71,1.37,118.51,282,147,147.5,147,21755,177020,1190,0.42,-0.26,-1,5.18,-18.89,5.82,-14.03,-20.45,-5.69,-82.81,8.93,-6.02,-80.31,Forward Fall while Standing
02:11.1,0,0,0,0,281,2.64,378.71,1.37,118.51,282,147,147.5,147,21755,198629,1337,0.4,-0.28,-1.01,0.18,-7.23,-0.18,-15.21,-19.59,-5.6,-83.95,9.01,-5.98,-81.38,Forward Fall while Standing
02:11.2,0,0,0,0,281,2.64,378.71,1.37,116.59,281,147,148.4,148,22022,0,0,0.37,-0.26,-0.98,-1.89,-11.13,0.24,-14.75,-18.28,-5.76,-85.56,9.13,-6.12,-82.87,Forward Fall while Standing
02:11.4,0,0,0,0,281,2.64,378.71,1.37,116.59,281,149,148.4,148,22022,22201,149,0.34,-0.28,-1,0.53,-16,1.99,-15.41,-16.82,-5.62,-87.8,9.48,-6.02,-84.96,Forward Fall while Standing
02:11.5,0,0,0,0,282,2.63,380.57,1.38,116.59,281,150,148.4,148,22022,44701,299,0.31,-0.28,-1.01,0.01,-12.96,-0.56,-15.34,-14.96,-5.55,-89.65,9.51,-5.94,-86.66,Forward Fall while Standing
02:11.6,0,0,0,0,282,2.63,380.57,1.38,116.59,281,148,148.4,148,22022,66605,447,0.27,-0.28,-1.02,-1.6,-15.09,-0.9,-15.56,-12.9,-5.68,-91.77,9.49,-6.08,-88.62,Forward Fall while Standing
02:11.7,0,0,0,0,282,2.63,380.57,1.38,116.59,281,146,148.4,148,22022,87921,593,0.25,-0.28,-1.02,-0.89,-14.35,-3.64,-15.57,-11.82,-5.72,-93.8,9.14,-6.12,-90.52,Forward Fall while Standing
02:11.9,0,0,0,0,282,2.63,380.57,1.38,116.59,281,146,148.4,148,22022,109237,739,0.2,-0.36,-0.92,4.24,-20.48,-2.52,-21.45,-9.73,-5.13,-96.59,8.92,-5.78,-93.11,Forward Fall while Standing
02:12.0,0,0,0,0,280,2.65,376.85,1.37,116.59,281,141,148.4,148,22022,129118,880,0.19,-0.29,-1.02,-0.9,-10.85,2.69,-16.15,-8.76,-5.17,-98.17,9.35,-5.61,-94.59,Forward Fall while Standing
02:12.1,0,0,0,0,278,2.68,373.15,1.36,116.59,281,141,148.4,148,22022,148999,1021,0.18,-0.3,-1.03,0.21,-6.13,0.61,-16.53,-7.94,-5.07,-99.18,9.53,-5.53,-95.53,Forward Fall while Standing
02:12.2,0,0,0,0,279,2.67,375,1.36,116.59,281,143,148.4,148,22022,169448,1164,0.16,-0.3,-1.03,0.21,-13.5,-2.02,-16.62,-6.84,-4.98,-101.09,9.38,-5.44,-97.32,Forward Fall while Standing
02:12.4,0,0,0,0,279,2.67,375,1.36,116.59,281,144,148.4,148,22022,190184,1308,0.12,-0.31,-1.05,0.34,-11.5,-2.89,-16.65,-4.57,-4.86,-102.78,9.11,-5.34,-98.85,Forward Fall while Standing
02:12.5,0,0,0,0,280,2.65,376.85,1.37,114.66,280,144,145.23,145,21091,0,0,0.1,-0.3,-1.03,-0.98,-6.77,-1.02,-16.56,-3.59,-4.92,-103.86,9.09,-5.38,-99.85,Forward Fall while Standing
02:12.6,0,0,0,0,280,2.65,376.85,1.37,114.66,280,145,145.23,145,21091,21025,145,0.09,-0.32,-1.04,0.16,-8.85,0.09,-17.41,-2.98,-4.83,-105.2,9.2,-5.33,-101.11,Forward Fall while Standing
02:12.7,0,0,0,0,280,2.65,376.85,1.37,114.66,280,145,145.23,145,21091,42050,290,0.07,-0.31,-1.05,0.29,-7.47,-1.56,-17.14,-1.94,-4.72,-106.38,9.1,-5.22,-102.2,Forward Fall while Standing
02:12.9,0,0,0,0,280,2.65,376.85,1.37,114.66,280,145,145.23,145,21091,63075,435,0.06,-0.32,-1.06,-1.67,-1.53,-0.84,-17.32,-1.34,-4.86,-106.81,9.09,-5.36,-102.59,Forward Fall while Standing
02:13.0,0,0,0,0,281,2.64,378.71,1.37,114.66,280,145,145.23,145,21091,84100,580,0.06,-0.32,-1.05,-1.41,6.5,-2.37,-17.49,-1.53,-4.97,-106.26,8.9,-5.47,-102.07,Forward Fall while Standing
02:13.1,0,0,0,0,281,2.64,378.71,1.37,114.66,280,145,145.23,145,21091,105125,725,0.08,-0.32,-1.04,-2.56,17.9,-2.41,-17.42,-2.37,-5.21,-104.28,8.7,-5.7,-100.21,Forward Fall while Standing
02:13.2,0,0,0,0,281,2.64,378.71,1.37,114.66,280,146,145.23,145,21091,126441,871,0.11,-0.31,-1.04,-3.78,4.52,-1.6,-17.38,-4.34,-5.61,-103.97,8.6,-6.08,-99.99,Forward Fall while Standing
02:13.4,0,0,0,0,281,2.64,378.71,1.37,114.66,280,147,145.23,145,21091,148050,1018,0.11,-0.31,-1.05,-5.5,3.55,-4.29,-17.12,-4.33,-6.23,-103.78,8.16,-6.66,-99.8,Forward Fall while Standing
02:13.5,0,0,0,0,281,2.64,378.71,1.37,114.66,280,147,145.23,145,21091,169659,1165,0.12,-0.31,-1.04,-4.01,4.47,-2.26,-16.84,-4.78,-6.65,-103.47,7.98,-7.06,-99.53,Forward Fall while Standing
02:13.6,0,0,0,0,281,2.64,378.71,1.37,114.66,280,148,145.23,145,21091,191563,1313,0.15,-0.31,-1.07,-6.11,3.1,-4.17,-16.62,-5.85,-7.34,-103.34,7.56,-7.71,-99.44,Forward Fall while Standing
02:13.7,0,0,0,0,282,2.63,380.57,1.38,115.38,280,147,146,146,21316,0,0,0.14,-0.29,-1.03,-7.85,3.05,-5.18,-16.08,-5.69,-8.24,-103.21,7.02,-8.55,-99.31,Forward Fall while Standing
02:13.9,0,0,0,0,282,2.63,380.57,1.38,115.38,280,147,146,146,21316,21609,147,0.14,-0.28,-1.04,-5.61,6.82,-2.79,-15.31,-6.02,-8.86,-102.61,6.78,-9.12,-98.75,Forward Fall while Standing
02:14.0,0,0,0,0,282,2.63,380.57,1.38,115.38,280,148,146,146,21316,43513,295,0.17,-0.26,-1.04,-6.7,16.02,-2.47,-14.7,-7.4,-9.63,-100.87,6.57,-9.83,-97.13,Forward Fall while Standing
02:14.1,0,0,0,0,282,2.63,380.57,1.38,115.38,280,147,146,146,21316,65122,442,0.21,-0.26,-1.01,-1.56,24.73,-3.4,-14.68,-9.93,-9.75,-98.05,6.24,-9.95,-94.53,Forward Fall while Standing
02:14.2,0,0,0,0,281,2.64,378.71,1.37,115.38,280,145,146,146,21316,86147,587,0.28,-0.26,-1.03,2.4,24.76,-6.22,-14.54,-13.1,-9.38,-95.23,5.57,-9.59,-91.95,Forward Fall while Standing
02:14.3,0,0,0,0,281,2.64,378.71,1.37,115.38,280,145,146,146,21316,107172,732,0.34,-0.26,-1.06,-6.16,27.84,-7.57,-13.71,-15.47,-10.08,-92.03,4.73,-10.22,-88.96,Forward Fall while Standing
02:14.5,0,0,0,0,281,2.64,378.71,1.37,115.38,280,146,146,146,21316,128488,878,0.37,-0.24,-1.01,-11.4,32.49,-8.01,-13.16,-18.15,-11.42,-88.25,3.83,-11.49,-85.44,Forward Fall while Standing
02:14.6,0,0,0,0,281,2.64,378.71,1.37,115.38,280,144,146,146,21316,149224,1022,0.41,-0.22,-0.98,-8.07,29.4,-7.58,-12.44,-20.78,-12.35,-84.85,2.99,-12.36,-82.29,Forward Fall while Standing
02:14.7,0,0,0,0,280,2.65,376.85,1.37,115.38,280,144,146,146,21316,169960,1166,0.51,-0.21,-0.97,-5.93,44.02,-5.74,-11.32,-25.68,-13.02,-79.6,2.37,-12.96,-77.44,Forward Fall while Standing
02:14.8,0,0,0,0,279,2.67,375,1.36,115.38,280,136,146,146,21316,188456,1302,0.61,-0.19,-0.89,-9.58,50.14,-10.76,-10.39,-32.39,-14.14,-73.63,1.14,-13.99,-71.98,Forward Fall while Standing
02:15.0,0,0,0,0,278,2.68,373.15,1.36,115.14,280,138,144.05,144,20749,0,0,0.68,-0.16,-0.82,-9.85,48.21,-13.37,-9.12,-37.25,-15.3,-67.9,-0.42,-15.05,-66.67,Forward Fall while Standing
02:15.1,0,0,0,0,279,2.67,375,1.36,115.14,280,139,144.05,144,20749,19321,139,0.74,-0.13,-0.76,-9.08,70.24,-10.43,-7.69,-42.19,-16.35,-59.44,-1.62,-16.01,-58.75,Forward Fall while Standing
02:15.2,0,0,0,0,280,2.65,376.85,1.37,115.14,280,140,144.05,144,20749,38921,279,0.82,-0.11,-0.55,-6.83,67.73,-5.01,-6.79,-54.21,-17.14,-51.22,-2.15,-16.72,-51.34,Forward Fall while Standing
02:15.3,0,0,0,0,280,2.65,376.85,1.37,115.14,280,141,144.05,144,20749,58802,420,0.91,-0.11,-0.5,-2.81,35.47,-2.7,-6.66,-59,-17.42,-47.07,-2.38,-16.98,-47.55,Forward Fall while Standing
02:15.5,0,0,0,0,280,2.65,376.85,1.37,115.14,280,141,144.05,144,20749,78683,561,0.95,-0.1,-0.46,-2.63,32.95,-3.12,-6.17,-61.95,-17.67,-43.2,-2.67,-17.21,-43.95,Forward Fall while Standing
02:15.6,0,0,0,0,281,2.64,378.71,1.37,115.14,280,141,144.05,144,20749,98564,702,0.98,-0.1,-0.4,-5.78,34.67,-5.26,-5.9,-65.82,-18.32,-39.15,-3.23,-17.82,-40.21,Forward Fall while Standing
02:15.7,0,0,0,0,281,2.64,378.71,1.37,115.14,280,141,144.05,144,20749,118445,843,0.99,-0.07,-0.34,-6.18,47.51,-8.11,-4.45,-69.26,-19.02,-33.46,-4.14,-18.44,-34.89,Forward Fall while Standing
02:15.8,0,0,0,0,255,3.01,332.03,1.25,115.14,280,141,144.05,144,20749,138326,984,1,-0.05,-0.18,-19.47,57.45,-6.45,-3.46,-77.66,-21.37,-26.58,-4.85,-20.65,-28.63,Forward Fall while Standing
02:16.0,0,0,0,0,280,2.65,376.85,1.37,115.14,280,137,144.05,144,20749,157095,1121,0.97,-0.05,0.02,-14.08,51.08,0.12,-3.42,-85.41,-23.04,-20.5,-4.73,-22.26,-23.09,Forward Fall while Standing
02:16.1,0,0,0,0,278,2.68,373.15,1.36,115.14,280,134,144.05,144,20749,175051,1255,1.05,-0.06,0.07,-8.67,25.21,-6.61,-4.08,-83.18,-24.06,-17.6,-5.46,-23.26,-20.22,Forward Fall while Standing
02:16.2,0,0,0,0,277,2.69,371.31,1.35,106.32,277,132,138.73,138,19246,0,0,1.16,-0.06,-0.11,1.47,43.92,-24.04,-3.48,-82.4,-23.81,-12.44,-8.32,-23,-15.24,Forward Fall while Standing
02:16.3,0,0,0,0,277,2.69,371.31,1.35,106.32,277,132,138.73,138,19246,17424,132,0.95,0.01,0.14,-12.21,41.86,0.01,0.09,-80.08,-25.25,-7.5,-8.22,-24.24,-10.4,Forward Fall while Standing
02:16.5,0,0,0,0,182,4.62,216.41,0.89,106.32,277,132,138.73,138,19246,34848,264,1.51,-0.42,-0.45,-20.77,2.87,7.21,-15.53,-66.18,-27.76,-7.39,-7.23,-27.27,-9.74,Forward Fall while Standing
02:16.6,0,0,0,0,277,2.69,371.31,1.35,106.32,277,138,138.73,138,19246,53892,402,0.91,0.01,0.28,-6.41,6.08,7.38,-0.17,-71.26,-28.48,-6.88,-6.22,-27.35,-9.46,Forward Fall while Standing
02:16.7,0,0,0,0,279,2.67,375,1.36,106.32,277,140,138.73,138,19246,73492,542,0.97,-0.08,0.28,-10.44,-6.8,11.21,-5.02,-71.79,-29.7,-7.97,-4.74,-28.71,-10.52,Forward Fall while Standing
02:16.8,0,0,0,0,280,2.65,376.85,1.37,106.32,277,142,138.73,138,19246,93656,684,1.01,-0.11,0.25,-5.68,-14.96,0.16,-6.41,-73.28,-30.33,-10.07,-4.62,-29.38,-12.6,Forward Fall while Standing
02:17.0,0,0,0,0,281,2.64,378.71,1.37,106.32,277,143,138.73,138,19246,114105,827,0.97,-0.09,0.2,-0.55,-2.39,1.79,-5.98,-75.59,-30.33,-10.62,-4.3,-29.36,-13.22,Forward Fall while Standing
02:17.1,0,0,0,0,282,2.63,380.57,1.38,106.32,277,143,138.73,138,19246,134554,970,0.99,-0.09,0.19,4.15,-0.4,1.74,-5.61,-76.42,-29.75,-10.92,-3.98,-28.78,-13.54,Forward Fall while Standing
02:17.2,0,0,0,0,282,2.63,380.57,1.38,106.32,277,144,138.73,138,19246,155290,1114,1.01,-0.1,0.2,-1.34,-1.85,1.3,-6.15,-75.91,-29.85,-11.39,-3.73,-28.9,-13.97,Forward Fall while Standing
02:17.3,0,0,0,0,282,2.63,380.57,1.38,106.32,277,143,138.73,138,19246,175739,1257,1,-0.09,0.18,2.79,-2.78,-1.44,-5.69,-76.9,-29.43,-11.99,-3.81,-28.48,-14.58,Forward Fall while Standing
02:17.4,0,0,0,0,282,2.63,380.57,1.38,91.93,270,143,140.06,140,19617,0,0,0.98,-0.1,0.18,1.82,-3.31,0.12,-6.12,-76.46,-29.14,-12.63,-3.69,-28.22,-15.19,Forward Fall while Standing
02:17.6,0,0,0,0,282,2.63,380.57,1.38,91.93,270,143,140.06,140,19617,20449,143,0.99,-0.08,0.17,3.23,1.69,-3.27,-5.43,-77.59,-28.67,-12.67,-4,-27.74,-15.27,Forward Fall while Standing
02:26.6,0,0,0,0,275,2.72,367.65,1.34,0,0,143,0,0,0,40898,286,0.99,-0.1,0.23,-7.57,-7.44,9.08,-6.08,-74.39,-1.58,-2.38,1.74,-1.76,-5.26,Sitting
02:26.7,0,0,0,0,275,2.72,367.65,1.34,0,0,143,0,0,0,61347,429,0.98,-0.12,0.22,-5.21,2.11,-2.05,-7.3,-74.05,-2.14,-2.36,1.58,-2.35,-5.23,Sitting
02:26.8,0,0,0,0,275,2.72,367.65,1.34,0,0,144,0,0,0,82083,573,0.96,-0.12,0.21,1.37,7.33,-2.68,-7.49,-74.31,-1.91,-1.72,1.35,-2.13,-4.62,Sitting
02:26.9,0,0,0,0,276,2.71,369.48,1.35,0,0,145,0,0,0,103108,718,1.02,-0.1,0.19,-3.53,-2.42,-3.02,-5.92,-76.54,-2.27,-2.25,1.08,-2.41,-5.22,Sitting
02:27.1,0,0,0,0,276,2.71,369.48,1.35,0,0,144,0,0,0,123844,862,0.97,-0.12,0.21,1.3,2.83,0.82,-7.48,-74.55,-2.04,-2.15,1.28,-2.26,-5.05,Sitting
02:27.2,0,0,0,0,276,2.71,369.48,1.35,0,0,144,0,0,0,144580,1006,0.99,-0.13,0.19,0.24,2.79,1.27,-7.71,-75.24,-1.95,-2.06,1.53,-2.18,-4.98,Sitting
02:27.3,0,0,0,0,276,2.71,369.48,1.35,0,0,146,0,0,0,165896,1152,0.98,-0.11,0.22,-0.63,5.5,-4.85,-7.11,-74.22,-1.95,-1.63,1.04,-2.16,-4.54,Sitting
02:27.4,0,0,0,0,276,2.71,369.48,1.35,0,0,144,0,0,0,186632,1296,0.96,-0.11,0.25,-5.21,1.72,-3.53,-6.88,-72.45,-2.52,-1.67,0.7,-2.7,-4.5,Sitting
02:27.5,0,0,0,0,275,2.72,367.65,1.34,101.53,275,138,143.41,143,20566,0,0,0.98,-0.09,0.2,-3.15,-1.92,-2.21,-5.85,-75.89,-2.84,-2.14,0.53,-2.96,-5.09,Sitting
02:27.7,0,0,0,0,274,2.73,365.82,1.34,101.53,275,141,143.41,143,20566,19881,141,0.99,-0.1,0.24,-2.35,-0.42,0.43,-5.91,-73.9,-3.06,-2.44,0.68,-3.17,-5.3,Sitting
02:27.8,0,0,0,0,275,2.72,367.65,1.34,101.53,275,142,143.41,143,20566,40045,283,0.97,-0.11,0.27,0.41,-0.57,-3.6,-6.59,-72,-2.94,-2.76,0.33,-3.08,-5.53,Sitting
02:27.9,0,0,0,0,276,2.71,369.48,1.35,101.53,275,144,143.41,143,20566,60781,427,0.96,-0.08,0.22,5.03,-10.51,-1.59,-4.98,-74.87,-2.25,-4.31,0.23,-2.35,-7.13,Sitting
02:28.0,0,0,0,0,276,2.71,369.48,1.35,101.53,275,142,143.41,143,20566,80945,569,0.97,-0.02,0.17,-3.4,-0.04,4.46,-1.73,-78.71,-2.59,-4.56,0.87,-2.56,-7.52,Sitting
02:28.2,0,0,0,0,275,2.72,367.65,1.34,101.53,275,140,143.41,143,20566,100545,709,0.6,-0.25,0.73,-0.88,-7.72,-3.55,-15.42,-36.34,-2.63,-5.75,0.53,-3.14,-6.98,Sitting
02:28.3,0,0,0,0,277,2.69,371.31,1.35,101.53,275,157,143.41,143,20566,125194,866,0.96,-0.1,0.22,-2.9,5.11,-4.9,-6.53,-74.15,-2.92,-5.37,0.02,-3.07,-8.12,Sitting
02:28.4,0,0,0,0,284,2.6,384.3,1.39,101.53,275,162,143.41,143,20566,151438,1028,0.98,-0.1,0.23,-11.42,1.82,-3.53,-6.28,-73.76,-4.27,-5.39,-0.32,-4.35,-8.12,Sitting
02:28.5,0,0,0,0,286,2.58,388.06,1.4,101.53,275,178,143.41,143,20566,183122,1206,0.96,-0.1,0.23,-6.07,-1.82,-3.63,-6.36,-73.72,-4.95,-5.86,-0.67,-5.01,-8.58,Sitting
02:28.7,0,0,0,0,290,2.53,395.63,1.42,101.53,275,165,143.41,143,20566,210347,1371,1.14,0,0.12,-17.55,24.47,-1.64,-0.75,-82.58,-7.04,-3.1,-0.77,-6.79,-6.28,Sitting
02:28.8,0,0,0,0,287,2.56,389.95,1.4,113.56,280,166,154.24,153,23789,0,0,0.95,-0.1,0.13,0.55,-17.27,0.93,-6.27,-78.7,-6.9,-5.47,-0.56,-6.88,-8.4,Sitting
02:28.9,0,0,0,0,287,2.56,389.95,1.4,113.56,280,168,154.24,153,23789,28224,168,0.92,-0.1,0.27,-1.07,-2.92,7.81,-6.74,-71.22,-6.97,-6.07,0.5,-6.96,-8.68,Sitting
02:29.0,0,0,0,0,288,2.55,391.84,1.41,113.56,280,167,154.24,153,23789,56113,335,0.98,-0.12,0.22,-3.36,-0.78,1.81,-7.2,-74.33,-7.31,-6.42,0.82,-7.31,-9.14,Sitting
02:29.2,0,0,0,0,288,2.55,391.84,1.41,113.56,280,168,154.24,153,23789,84337,503,0.99,-0.08,0.23,1.56,-1.11,-12.37,-5.2,-74.37,-7.05,-6.8,-0.59,-6.98,-9.5,Sitting
02:29.3,0,0,0,0,288,2.55,391.84,1.41,113.56,280,169,154.24,153,23789,112898,672,0.96,-0.06,0.13,6.09,-15.03,-6.3,-4.07,-79.89,-6.23,-8.91,-1.28,-6.14,-11.75,Sitting
02:29.4,0,0,0,0,288,2.55,391.84,1.41,113.56,280,169,154.24,153,23789,141459,841,1.07,-0.06,0.09,-8.27,2.03,3.48,-3.99,-82.71,-7.18,-8.91,-0.75,-7.05,-11.86,Sitting
02:29.5,0,0,0,0,289,2.54,393.73,1.41,113.56,280,169,154.24,153,23789,170020,1010,0.97,-0.11,0.29,10.66,18.49,-6.04,-6.64,-70.99,-5.79,-6.86,-1.4,-5.82,-9.43,Sitting
02:29.6,0,0,0,0,285,2.59,386.18,1.39,113.56,280,161,154.24,153,23789,195941,1171,1.01,-0.09,0.23,-11.37,0.93,-19.12,-5.42,-74.75,-7.13,-7,-3.67,-7.06,-9.71,Sitting
02:29.8,0,0,0,0,284,2.6,384.3,1.39,113.56,280,163,154.24,153,23789,222510,1334,0.95,-0.01,0.23,-28.04,-12.21,-13.95,-1.17,-75.1,-10.53,-8.76,-5.31,-10.16,-11.41,Sitting
02:29.9,0,0,0,0,285,2.59,386.18,1.39,113.56,280,164,154.24,153,23789,249406,1498,0.97,0.01,0.22,-13.11,-8.63,10.91,-0.17,-75.56,-12.1,-10.09,-3.84,-11.63,-12.7,Sitting
02:30.0,0,0,0,0,285,2.59,386.18,1.39,129.09,286,163,166.12,166,27596,0,0,1.01,-0.08,0.22,-3.4,2.13,21.16,-4.79,-75.39,-12.45,-10.07,-1.14,-12.15,-12.68,Sitting
02:30.1,0,0,0,0,285,2.59,386.18,1.39,129.09,286,161,166.12,166,27596,25921,161,1.01,-0.14,0.18,7.74,-1.5,5.32,-8.17,-75.69,-11.42,-10.5,-0.39,-11.29,-13.11,Sitting
02:30.3,0,0,0,0,284,2.6,384.3,1.39,129.09,286,160,166.12,166,27596,51521,321,0.99,-0.13,0.15,-1.96,11.5,0.44,-7.84,-77.12,-11.6,-9.33,-0.23,-11.45,-12.04,Sitting
02:30.4,0,0,0,0,283,2.61,382.43,1.38,129.09,286,161,166.12,166,27596,77442,482,0.99,-0.1,0.23,-4.05,8.25,-1.37,-6.09,-74.14,-12.03,-8.56,-0.3,-11.79,-11.18,Sitting
02:30.5,0,0,0,0,284,2.6,384.3,1.39,129.09,286,162,166.12,166,27596,103686,644,0.96,-0.1,0.22,-1.6,-5.4,4.44,-6.47,-74.22,-12.15,-9.47,0.34,-11.93,-12.06,Sitting
02:30.6,0,0,0,0,283,2.61,382.43,1.38,129.09,286,160,166.12,166,27596,129286,804,0.98,-0.14,0.2,0.73,-10.59,9.42,-8.63,-74.51,-12,-11.04,1.61,-11.86,-13.57,Sitting
02:30.8,0,0,0,0,283,2.61,382.43,1.38,129.09,286,160,166.12,166,27596,154886,964,1,-0.16,0.15,8.09,-1.55,-0.28,-9.84,-75.75,-10.92,-11.48,1.67,-10.88,-14.05,Sitting
02:30.9,0,0,0,0,283,2.61,382.43,1.38,129.09,286,160,166.12,166,27596,180486,1124,0.98,-0.14,0.12,-1.99,3.69,1.76,-8.88,-77.4,-11.1,-11.27,1.99,-11.01,-13.91,Sitting
02:31.0,0,0,0,0,282,2.63,380.57,1.38,129.09,286,160,166.12,166,27596,206086,1284,1.01,-0.15,0.18,-1.63,5.88,2.3,-8.94,-75.15,-11.23,-10.78,2.37,-11.14,-13.36,Sitting
02:31.1,0,0,0,0,282,2.63,380.57,1.38,129.09,286,161,166.12,166,27596,232007,1445,0.98,-0.16,0.19,1.21,0.12,-1.02,-9.56,-74.19,-11.01,-11.02,2.34,-10.95,-13.54,Sitting
02:31.3,0,0,0,0,283,2.61,382.43,1.38,121.11,283,162,160.7,160,25824,0,0,0.97,-0.15,0.17,-1.06,-3.84,-1.32,-9.28,-75.25,-11.07,-11.74,2.28,-11,-14.28,Sitting
02:31.4,0,0,0,0,283,2.61,382.43,1.38,121.11,283,163,160.7,160,25824,26569,163,0.98,-0.15,0.14,-2.69,-1.11,0.53,-9.49,-76.24,-11.34,-12.12,2.44,-11.26,-14.69,Sitting
02:31.5,0,0,0,0,283,2.61,382.43,1.38,121.11,283,163,160.7,160,25824,53138,326,0.99,-0.16,0.16,-1.89,7.15,-0.94,-9.47,-75.48,-11.5,-11.48,2.42,-11.42,-14.04,Sitting
02:31.6,0,0,0,0,283,2.61,382.43,1.38,121.11,283,161,160.7,160,25824,79059,487,0.98,-0.15,0.19,0.14,1.79,-0.4,-9.37,-74.39,-11.42,-11.51,2.47,-11.33,-14.02,Sitting
02:31.8,0,0,0,0,282,2.63,380.57,1.38,121.11,283,161,160.7,160,25824,104980,648,0.97,-0.15,0.17,-0.15,-2.01,0.22,-9.46,-75.15,-11.37,-12,2.6,-11.29,-14.53,Sitting
02:31.9,0,0,0,0,282,2.63,380.57,1.38,121.11,283,163,160.7,160,25824,131549,811,0.98,-0.17,0.17,-1.02,0.62,1.43,-10.33,-74.77,-11.42,-12.17,2.87,-11.38,-14.68,Sitting
02:32.0,0,0,0,0,283,2.61,382.43,1.38,121.11,283,164,160.7,160,25824,158445,975,0.99,-0.17,0.17,1.27,4.58,-5.75,-9.96,-75.01,-11.19,-11.85,2.25,-11.14,-14.38,Sitting
02:32.1,0,0,0,0,284,2.6,384.3,1.39,121.11,283,165,160.7,160,25824,185670,1140,0.98,-0.14,0.17,-3.66,-0.7,-3.08,-8.35,-76,-11.58,-12.19,1.97,-11.45,-14.74,Sitting
02:32.2,0,0,0,0,284,2.6,384.3,1.39,121.11,283,165,160.7,160,25824,212895,1305,0.97,-0.15,0.18,-0.86,1.18,2.08,-9.06,-74.99,-11.62,-12.29,2.32,-11.51,-14.8,Sitting
02:32.4,0,0,0,0,283,2.61,382.43,1.38,121.11,283,165,160.7,160,25824,240120,1470,0.98,-0.17,0.17,-2.78,-2.15,5.47,-10.1,-74.9,-11.89,-12.8,3.1,-11.82,-15.29,Sitting
02:32.5,0,0,0,0,283,2.61,382.43,1.38,120.64,283,165,163.51,163,26733,0,0,0.99,-0.19,0.18,-3.24,-3.25,2.98,-11.16,-73.7,-12.22,-13.45,3.56,-12.18,-15.86,Sitting
02:32.6,0,0,0,0,284,2.6,384.3,1.39,120.64,283,167,163.51,163,26733,27889,167,0.99,-0.18,0.16,0.37,0.76,-0.28,-10.78,-74.87,-12.1,-13.6,3.63,-12.05,-16.05,Sitting
02:32.7,0,0,0,0,284,2.6,384.3,1.39,120.64,283,166,163.51,163,26733,55445,333,0.99,-0.18,0.14,-2.5,0.93,1.88,-10.71,-75.58,-12.34,-13.73,3.96,-12.28,-16.21,Sitting
02:32.9,0,0,0,0,284,2.6,384.3,1.39,120.64,283,167,163.51,163,26733,83334,500,0.99,-0.18,0.15,1.4,3.11,-2.11,-10.96,-75.03,-12.1,-13.6,3.79,-12.06,-16.06,Sitting
02:33.0,0,0,0,0,284,2.6,384.3,1.39,120.64,283,168,163.51,163,26733,111558,668,0.97,-0.17,0.16,-2.51,-0.98,-2.13,-10.59,-74.76,-12.35,-13.97,3.63,-12.28,-16.4,Sitting
02:33.2,0,0,0,0,284,2.6,384.3,1.39,120.64,283,167,163.51,163,26733,139447,835,0.98,-0.18,0.16,-2.27,0.16,-0.34,-10.62,-74.91,-12.56,-14.2,3.68,-12.48,-16.62,Sitting
02:33.3,0,0,0,0,284,2.6,384.3,1.39,120.64,283,167,163.51,163,26733,167336,1002,0.97,-0.19,0.17,-2.44,1.65,-1.29,-11.51,-73.77,-12.79,-14.24,3.62,-12.74,-16.62,Sitting
02:33.4,0,0,0,0,284,2.6,384.3,1.39,120.64,283,168,163.51,163,26733,195560,1170,0.98,-0.19,0.17,-3.47,0.03,-2.11,-11.26,-74.02,-13.15,-14.48,3.46,-13.08,-16.87,Sitting
02:33.5,0,0,0,0,284,2.6,384.3,1.39,120.64,283,168,163.51,163,26733,223784,1338,0.98,-0.19,0.15,-0.48,-0.05,-0.62,-11.15,-74.8,-13.14,-14.74,3.48,-13.06,-17.14,Sitting
02:33.6,0,0,0,0,284,2.6,384.3,1.39,120.64,283,169,163.51,163,26733,252345,1507,0.99,-0.18,0.16,-2.62,0.71,-1.21,-10.86,-74.86,-13.4,-14.9,3.43,-13.3,-17.3,Sitting
02:33.7,0,0,0,0,284,2.6,384.3,1.39,122.96,284,169,167.6,167,28089,0,0,0.97,-0.19,0.17,-2.97,2.36,-2.31,-11.38,-73.95,-13.7,-14.86,3.24,-13.61,-17.22,Sitting
02:33.9,0,0,0,0,284,2.6,384.3,1.39,122.96,284,167,167.6,167,28089,27889,167,0.98,-0.19,0.16,-1.56,3.93,-1.85,-11.21,-74.14,-13.82,-14.62,3.11,-13.72,-17,Sitting
02:34.0,0,0,0,0,284,2.6,384.3,1.39,122.96,284,167,167.6,167,28089,55778,334,0.99,-0.17,0.16,-2.35,2.05,-1.73,-10.19,-75.21,-14.05,-14.61,2.99,-13.89,-17.03,Sitting
02:34.1,0,0,0,0,283,2.61,382.43,1.38,122.96,284,166,167.6,167,28089,83334,500,0.99,-0.19,0.17,-1.47,6.16,0.53,-11.17,-74.15,-14.16,-14.09,3.16,-14.04,-16.5,Sitting
02:34.2,0,0,0,0,283,2.61,382.43,1.38,122.96,284,167,167.6,167,28089,111223,667,0.98,-0.17,0.17,-1.8,-0.21,-5.25,-10.44,-74.36,-14.31,-14.37,2.61,-14.16,-16.76,Sitting
02:34.4,0,0,0,0,283,2.61,382.43,1.38,122.96,284,169,167.6,167,28089,139784,836,0.96,-0.18,0.17,-7.31,-3.11,-0.94,-10.9,-74.09,-15.15,-15,2.59,-14.98,-17.36,Sitting
02:34.5,0,0,0,0,284,2.6,384.3,1.39,122.96,284,169,167.6,167,28089,168345,1005,0.98,-0.17,0.17,-0.81,2.34,-2.46,-10.51,-74.66,-15.18,-14.96,2.38,-14.99,-17.34,Sitting
02:34.6,0,0,0,0,284,2.6,384.3,1.39,122.96,284,169,167.6,167,28089,196906,1174,0.99,-0.17,0.17,-4.04,0.38,-0.35,-10.38,-74.74,-15.61,-15.16,2.44,-15.4,-17.54,Sitting
02:34.7,0,0,0,0,284,2.6,384.3,1.39,122.96,284,170,167.6,167,28089,225806,1344,0.96,-0.18,0.16,-10.52,-0.53,0.24,-10.88,-74.53,-16.86,-15.47,2.56,-16.62,-17.84,Sitting
02:34.9,0,0,0,0,284,2.6,384.3,1.39,122.96,284,169,167.6,167,28089,254367,1513,0.99,-0.2,0.17,-3.31,3.66,1.31,-11.68,-73.58,-17.2,-15.27,2.82,-16.98,-17.6,Sitting
02:35.0,0,0,0,0,284,2.6,384.3,1.39,122.27,283,169,168.2,168,28291,0,0,0.98,-0.21,0.18,-5.85,5.19,-3.11,-12.24,-72.79,-17.85,-14.88,2.54,-17.62,-17.19,Sitting
02:35.1,0,0,0,0,284,2.6,384.3,1.39,122.27,283,169,168.2,168,28291,28561,169,0.96,-0.18,0.17,-6.18,5.04,-6.79,-11.27,-73.83,-18.54,-14.5,1.79,-18.25,-16.87,Sitting
02:35.2,0,0,0,0,284,2.6,384.3,1.39,122.27,283,169,168.2,168,28291,57122,338,0.96,-0.18,0.19,-7.24,-0.59,-3.25,-10.9,-73.18,-19.37,-14.82,1.49,-19.03,-17.15,Sitting
02:35.3,0,0,0,0,284,2.6,384.3,1.39,122.27,283,169,168.2,168,28291,85683,507,0.97,-0.18,0.18,-8.33,-6.92,3.04,-10.92,-73.79,-20.34,-15.93,1.96,-19.96,-18.24,Sitting
02:35.5,0,0,0,0,284,2.6,384.3,1.39,122.27,283,170,168.2,168,28291,114583,677,0.98,-0.2,0.15,-2.24,-4.02,3.17,-12.22,-74.03,-20.54,-16.67,2.45,-20.21,-18.96,Sitting
02:35.6,0,0,0,0,283,2.61,382.43,1.38,122.27,283,168,168.2,168,28291,142807,845,0.98,-0.22,0.14,-0.17,0.61,-0.44,-12.96,-73.69,-20.49,-16.84,2.49,-20.19,-19.11,Sitting
02:35.7,0,0,0,0,282,2.63,380.57,1.38,122.27,283,167,168.2,168,28291,170696,1012,0.98,-0.21,0.14,-4.18,-3.02,-2.73,-12.42,-74.01,-20.94,-17.46,2.25,-20.6,-19.72,Sitting
02:35.8,0,0,0,0,282,2.63,380.57,1.38,122.27,283,167,168.2,168,28291,198585,1179,0.97,-0.2,0.14,-3.53,-2.11,-0.9,-12.03,-74.34,-21.31,-17.98,2.24,-20.94,-20.23,Sitting
02:36.0,0,0,0,0,282,2.63,380.57,1.38,122.27,283,166,168.2,168,28291,226141,1345,0.99,-0.22,0.13,-1.23,0.71,1.38,-12.97,-74.02,-21.4,-18.14,2.51,-21.06,-20.37,Sitting
02:36.1,0,0,0,0,281,2.64,378.71,1.37,122.27,283,167,168.2,168,28291,254030,1512,0.99,-0.22,0.13,-2.91,1.86,-0.63,-13.18,-73.76,-21.69,-18.15,2.53,-21.35,-20.38,Sitting
02:36.2,0,0,0,0,281,2.64,378.71,1.37,119.93,282,167,167.9,167,28190,0,0,0.98,-0.21,0.14,-1.58,3.47,-3.2,-12.75,-73.8,-21.81,-17.97,2.23,-21.45,-20.21,Sitting
02:36.3,0,0,0,0,281,2.64,378.71,1.37,119.93,282,168,167.9,167,28190,28224,168,0.99,-0.2,0.14,-2.12,-0.36,-0.97,-11.95,-74.6,-22.01,-18.26,2.21,-21.6,-20.52,Sitting
02:36.5,0,0,0,0,282,2.63,380.57,1.38,119.93,282,169,167.9,167,28190,56785,337,0.97,-0.21,0.14,-2.01,-1.47,0.6,-12.62,-73.99,-22.19,-18.7,2.38,-21.8,-20.91,Sitting
02:36.6,0,0,0,0,282,2.63,380.57,1.38,119.93,282,169,167.9,167,28190,85346,506,0.98,-0.22,0.13,-0.31,2.39,-0.05,-13.04,-73.81,-22.16,-18.65,2.47,-21.79,-20.86,Sitting
02:36.7,0,0,0,0,281,2.64,378.71,1.37,119.93,282,169,167.9,167,28190,113907,675,0.99,-0.22,0.14,-2.85,0.4,-1.14,-13.15,-73.56,-22.44,-18.85,2.43,-22.07,-21.04,Sitting
02:36.8,0,0,0,0,281,2.64,378.71,1.37,119.93,282,168,167.9,167,28190,142131,843,0.98,-0.21,0.14,-1.51,1.3,-1.82,-12.58,-73.95,-22.56,-18.93,2.3,-22.16,-21.14,Sitting
02:37.0,0,0,0,0,281,2.64,378.71,1.37,119.93,282,168,167.9,167,28190,170355,1011,0.99,-0.22,0.13,-2.47,-0.47,-0.22,-12.87,-74.01,-22.79,-19.24,2.37,-22.4,-21.43,Sitting
02:37.1,0,0,0,0,281,2.64,378.71,1.37,119.93,282,169,167.9,167,28190,198916,1180,0.98,-0.23,0.14,-0.51,0.7,-0.77,-13.54,-73.07,-22.79,-19.4,2.38,-22.42,-21.55,Sitting
02:37.2,0,0,0,0,281,2.64,378.71,1.37,119.93,282,168,167.9,167,28190,227140,1348,0.99,-0.22,0.14,-1.92,-1.5,-2.18,-12.97,-73.71,-22.96,-19.84,2.2,-22.56,-21.99,Sitting
02:37.3,0,0,0,0,281,2.64,378.71,1.37,119.93,282,170,167.9,167,28190,256040,1518,0.97,-0.21,0.12,-1.76,-0.12,-0.97,-12.74,-74.5,-23.11,-20.1,2.18,-22.69,-22.28,Sitting
02:37.5,0,0,0,0,281,2.64,378.71,1.37,116.35,281,170,168.8,168,28493,0,0,0.99,-0.21,0.13,-1.84,2.96,-0.63,-12.63,-74.28,-23.26,-19.99,2.2,-22.84,-22.16,Sitting
02:37.6,0,0,0,0,281,2.64,378.71,1.37,116.35,281,170,168.8,168,28493,28900,170,0.98,-0.21,0.13,-1.55,-0.11,-1.6,-12.7,-74.14,-23.39,-20.25,2.1,-22.96,-22.4,Sitting
02:37.7,0,0,0,0,282,2.63,380.57,1.38,116.35,281,171,168.8,168,28493,58141,341,0.97,-0.22,0.13,-1.85,-0.95,-1.31,-13.09,-73.69,-23.55,-20.61,2.04,-23.13,-22.74,Sitting
02:37.8,0,0,0,0,281,2.64,378.71,1.37,116.35,281,171,168.8,168,28493,87382,512,0.98,-0.22,0.12,-2.47,1.57,-0.75,-13.14,-74.17,-23.78,-20.67,2.04,-23.36,-22.81,Sitting
02:38.0,0,0,0,0,282,2.63,380.57,1.38,116.35,281,171,168.8,168,28493,116623,683,0.98,-0.22,0.12,-1.31,1.95,-1.51,-13.3,-73.81,-23.88,-20.67,1.95,-23.45,-22.8,Sitting
02:38.1,0,0,0,0,282,2.63,380.57,1.38,116.35,281,173,168.8,168,28493,146552,856,0.99,-0.22,0.12,-1.92,0.87,-1.62,-12.75,-74.37,-24.04,-20.81,1.85,-23.59,-22.95,Sitting
02:38.2,0,0,0,0,282,2.63,380.57,1.38,116.35,281,173,168.8,168,28493,176481,1029,0.98,-0.21,0.12,-1.11,0.83,-1.39,-12.32,-74.81,-24.11,-20.96,1.77,-23.64,-23.11,Sitting
02:38.3,0,0,0,0,282,2.63,380.57,1.38,116.35,281,174,168.8,168,28493,206757,1203,0.98,-0.22,0.13,-1.05,1.71,0.39,-13.12,-73.78,-24.17,-20.99,1.92,-23.73,-23.1,Sitting
02:38.4,0,0,0,0,283,2.61,382.43,1.38,116.35,281,173,168.8,168,28493,236686,1376,0.98,-0.21,0.12,-0.39,-0.42,-1.5,-12.69,-74.37,-24.15,-21.29,1.83,-23.69,-23.42,Sitting
02:38.6,0,0,0,0,282,2.63,380.57,1.38,116.35,281,173,168.8,168,28493,266615,1549,0.98,-0.21,0.12,-0.19,0.33,-0.3,-12.54,-74.65,-24.11,-21.5,1.89,-23.64,-23.63,Sitting
02:38.7,0,0,0,0,283,2.61,382.43,1.38,118.27,282,174,172.3,172,29688,0,0,0.99,-0.23,0.11,-1.54,0.19,1.36,-13.45,-74,-24.23,-21.72,2.16,-23.8,-23.82,Sitting
02:38.8,0,0,0,0,282,2.63,380.57,1.38,118.27,282,174,172.3,172,29688,30276,174,0.99,-0.22,0.12,-2.99,-0.73,-1.03,-13.26,-74.09,-24.53,-22.06,2.13,-24.08,-24.14,Sitting
02:38.9,0,0,0,0,283,2.61,382.43,1.38,118.27,282,176,172.3,172,29688,61252,350,0.99,-0.23,0.11,-1.86,1.52,-0.76,-13.4,-74.2,-24.69,-22.12,2.13,-24.24,-24.21,Sitting
02:39.1,0,0,0,0,284,2.6,384.3,1.39,118.27,282,175,172.3,172,29688,91877,525,0.98,-0.23,0.13,-2.11,0.71,-1.81,-13.67,-73.47,-24.88,-22.28,2,-24.44,-24.33,Sitting
02:39.2,0,0,0,0,284,2.6,384.3,1.39,118.27,282,176,172.3,172,29688,122853,701,0.98,-0.22,0.12,-1.5,2.24,-0.79,-12.83,-74.46,-25,-22.25,2,-24.51,-24.34,Sitting
02:39.3,0,0,0,0,284,2.6,384.3,1.39,118.27,282,177,172.3,172,29688,154182,878,0.99,-0.23,0.13,-0.91,0.02,0.12,-13.39,-73.67,-25.04,-22.5,2.12,-24.58,-24.55,Sitting
02:39.4,0,0,0,0,284,2.6,384.3,1.39,118.27,282,176,172.3,172,29688,185158,1054,0.97,-0.23,0.14,-0.54,1.01,-3.1,-13.95,-72.82,-25.04,-22.62,1.83,-24.6,-24.63,Sitting
02:39.6,0,0,0,0,283,2.61,382.43,1.38,118.27,282,175,172.3,172,29688,215783,1229,1,-0.23,0.1,0.44,0.05,-1.81,-13.27,-74.55,-24.92,-22.86,1.71,-24.45,-24.93,Sitting
02:43.0,0,0,0,0,265,2.86,349.6,1.3,0,0,178,0,0,0,63725,357,0.96,0,0.36,6.28,5.32,4.22,-0.37,-67.95,1.02,1.03,0.94,0.96,-1.73,Left Fall while Sitting
02:43.1,0,0,0,0,271,2.77,360.37,1.32,0,0,179,0,0,0,95766,536,0.96,-0.04,0.32,15.93,14.43,-1.27,-2.65,-69.97,3,2.52,0.88,2.77,-0.38,Left Fall while Sitting
02:43.2,0,0,0,0,272,2.76,362.18,1.33,0,0,179,0,0,0,127807,715,0.93,-0.05,0.32,2.54,2.01,-3.03,-3.62,-69.04,3.37,2.52,0.61,3.09,-0.34,Left Fall while Sitting
02:43.4,0,0,0,0,274,2.73,365.82,1.34,0,0,179,0,0,0,159848,894,0.93,-0.02,0.34,-10.54,-1.24,-2.73,-1.96,-68.13,2.16,2.13,0.37,2,-0.68,Left Fall while Sitting
02:43.5,0,0,0,0,276,2.71,369.48,1.35,0,0,179,0,0,0,191889,1073,0.95,-0.01,0.38,-15.71,5.05,-3.79,-1.06,-66.62,0.35,2.49,0.01,0.29,-0.27,Left Fall while Sitting
02:43.6,0,0,0,0,277,2.69,371.31,1.35,0,0,179,0,0,0,223930,1252,0.93,-0.01,0.41,-1.44,10.95,-8.34,-0.88,-64.72,0.24,3.57,-0.9,0.19,0.84,Left Fall while Sitting
02:43.7,0,0,0,0,277,2.69,371.31,1.35,0,0,180,0,0,0,256330,1432,0.9,-0.01,0.41,2.79,10.58,-9.52,-1.23,-64.06,0.65,4.61,-1.96,0.57,1.87,Left Fall while Sitting
02:43.8,0,0,0,0,278,2.68,373.15,1.36,0,0,180,0,0,0,288730,1612,0.87,-0.01,0.41,-0.23,17.37,-7.3,-0.99,-63.21,0.69,6.47,-2.75,0.62,3.68,Left Fall while Sitting
02:44.0,0,0,0,0,278,2.68,373.15,1.36,99.98,274,180,179.2,179,32112,0,0,0.9,0.05,0.51,32.3,42.31,-29.73,2.09,-58.5,4.69,11.39,-6.28,4.59,8.59,Left Fall while Sitting
02:44.1,0,0,0,0,278,2.68,373.15,1.36,99.98,274,180,179.2,179,32112,32400,180,0.81,0.15,0.51,35.01,48.18,-60.79,8.36,-55.51,9.07,17.07,-13.66,9.04,14.17,Left Fall while Sitting
02:44.2,0,0,0,0,278,2.68,373.15,1.36,99.98,274,179,179.2,179,32112,64441,359,0.64,0.29,0.54,8.05,21.72,-49.48,18.48,-44.55,10.13,19.5,-19.65,10.46,16.93,Left Fall while Sitting
02:44.3,0,0,0,0,277,2.69,371.31,1.35,99.98,274,178,179.2,179,32112,96125,537,0.63,0.41,0.6,-10.44,-10.39,-4.67,24.64,-39.36,8.92,17.98,-20.12,9.55,15.69,Left Fall while Sitting
02:44.5,0,0,0,0,276,2.71,369.48,1.35,99.98,274,179,179.2,179,32112,128166,716,0.68,0.37,0.61,0.74,-16.18,9.07,21.39,-42.06,9.08,15.73,-18.9,9.58,13.42,Left Fall while Sitting
02:44.6,0,0,0,0,275,2.72,367.65,1.34,99.98,274,179,179.2,179,32112,160207,895,0.72,0.35,0.55,11.11,-24.92,2.94,20.57,-46.18,10.52,12.42,-18.44,10.92,10.08,Left Fall while Sitting
02:44.7,0,0,0,0,275,2.72,367.65,1.34,99.98,274,180,179.2,179,32112,192607,1075,0.78,0.36,0.5,2.98,-12.25,5.76,20.74,-50.04,10.95,10.67,-17.63,11.35,8.24,Left Fall while Sitting
02:44.9,0,0,0,0,274,2.73,365.82,1.34,99.98,274,180,179.2,179,32112,225007,1255,0.79,0.34,0.49,6.43,-6.26,-2.33,19.52,-51.35,11.82,9.64,-17.82,12.13,7.2,Left Fall while Sitting
02:45.0,0,0,0,0,274,2.73,365.82,1.34,99.98,274,179,179.2,179,32112,257048,1434,0.79,0.36,0.43,9.27,-0.5,-10.62,21.41,-52.7,13.03,9.34,-19.03,13.37,6.85,Left Fall while Sitting
02:45.1,0,0,0,0,273,2.75,364,1.33,99.98,274,180,179.2,179,32112,289448,1614,0.8,0.39,0.44,3.38,3.4,-9.12,22.43,-52.11,13.52,9.51,-20.06,13.87,7.04,Left Fall while Sitting
02:45.2,0,0,0,0,272,2.76,362.18,1.33,101,275,180,179.4,179,32183,0,0,0.78,0.41,0.44,4.4,5.25,-10.49,24.2,-50.5,14.12,9.9,-21.24,14.52,7.49,Left Fall while Sitting
02:45.3,0,0,0,0,272,2.76,362.18,1.33,101,275,179,179.4,179,32183,32041,179,0.75,0.44,0.45,5.56,6.69,-15.24,25.94,-48.55,14.87,10.48,-23,15.31,8.12,Left Fall while Sitting
02:45.4,0,0,0,0,271,2.77,360.37,1.32,101,275,180,179.4,179,32183,64441,359,0.71,0.47,0.44,7.96,1.11,-13.34,28.57,-46.47,15.92,10.37,-24.56,16.43,8.09,Left Fall while Sitting
02:45.6,0,0,0,0,271,2.77,360.37,1.32,101,275,180,179.4,179,32183,96841,539,0.72,0.48,0.44,6.02,-6.36,-2.53,28.85,-46.29,16.73,9.34,-24.77,17.22,7.11,Left Fall while Sitting
02:45.7,0,0,0,0,271,2.77,360.37,1.32,101,275,181,179.4,179,32183,129602,720,0.73,0.5,0.42,7.66,-4.47,-4.72,29.87,-46.91,17.75,8.54,-25.26,18.23,6.32,Left Fall while Sitting
02:45.8,0,0,0,0,271,2.77,360.37,1.32,101,275,181,179.4,179,32183,162363,901,0.72,0.52,0.38,4.63,3.44,-11.69,32.28,-46.3,18.38,8.72,-26.6,18.94,6.52,Left Fall while Sitting
02:45.9,0,0,0,0,271,2.77,360.37,1.32,101,275,181,179.4,179,32183,195124,1082,0.7,0.54,0.38,2.17,3.5,-10.23,33.32,-45.31,18.72,8.9,-27.77,19.31,6.74,Left Fall while Sitting
02:46.1,0,0,0,0,271,2.77,360.37,1.32,101,275,182,179.4,179,32183,162712,1264,0.7,0.55,0.4,0.66,6.41,-8.12,33.9,-44.08,18.87,9.45,-28.67,19.47,7.31,Left Fall while Sitting
02:46.2,0,0,0,0,272,2.76,362.18,1.33,101,275,183,179.4,179,32183,130665,1447,0.66,0.57,0.39,-4.64,1.71,-5.24,36.1,-42.35,18.37,9.41,-29.22,19.08,7.34,Left Fall while Sitting
02:46.3,0,0,0,0,271,2.77,360.37,1.32,101,275,184,179.4,179,32183,98985,1631,0.7,0.57,0.4,2.42,4.39,-7.85,34.78,-43.32,18.74,9.71,-30.09,19.38,7.58,Left Fall while Sitting
02:46.4,0,0,0,0,272,2.76,362.18,1.33,89.82,271,184,82.04,181,6729,0,0,0.66,0.6,0.38,6.43,10.09,-14.35,37.39,-41.33,19.58,10.68,-31.73,20.29,8.6,Left Fall while Sitting
02:46.6,0,0,0,0,273,2.75,364,1.33,89.82,271,184,82.04,181,6729,4294935616,184,0.63,0.62,0.4,1.18,7.12,-10.51,39.15,-38.93,19.8,11.31,-32.92,20.57,9.3,Left Fall while Sitting
02:46.7,0,0,0,0,273,2.75,364,1.33,89.82,271,183,82.04,181,6729,4294903569,367,0.62,0.62,0.42,-1.37,6.69,-7.1,39.18,-37.86,19.7,11.9,-33.7,20.48,9.91,Left Fall while Sitting
02:46.8,0,0,0,0,273,2.75,364,1.33,89.82,271,184,82.04,181,6729,4294871889,551,0.6,0.65,0.41,3.09,5.88,-9.49,40.95,-36.68,20.15,12.37,-34.77,20.98,10.41,Left Fall while Sitting
02:46.9,0,0,0,0,273,2.75,364,1.33,89.82,271,182,82.04,181,6729,4294839477,733,0.58,0.65,0.41,1.92,5.35,-11.14,42.16,-35.18,20.45,12.79,-36.06,21.32,10.87,Left Fall while Sitting
02:47.0,0,0,0,0,273,2.75,364,1.33,89.82,271,184,82.04,181,6729,4294807797,917,0.56,0.67,0.39,-0.07,4.29,-8.57,43.72,-34.25,20.51,13.07,-37.02,21.44,11.18,Left Fall while Sitting
02:47.2,0,0,0,0,274,2.73,365.82,1.34,89.82,271,182,82.04,181,6729,4294775385,1099,0.55,0.67,0.4,-1.51,2.74,-4.49,43.88,-33.59,20.4,13.16,-37.48,21.34,11.29,Left Fall while Sitting
02:47.3,0,0,0,0,274,2.73,365.82,1.34,89.82,271,183,82.04,181,6729,4294743338,1282,0.54,0.68,0.41,-0.68,4.53,-5.22,44.28,-32.86,20.38,13.48,-38.03,21.34,11.62,Left Fall while Sitting
02:47.4,0,0,0,0,274,2.73,365.82,1.34,89.82,271,183,82.04,181,6729,4294711291,1465,0.52,0.69,0.4,-1.44,6.32,-4.89,45.61,-31.58,20.27,14.01,-38.53,21.29,12.19,Left Fall while Sitting
02:47.5,0,0,0,0,274,2.73,365.82,1.34,89.82,271,183,82.04,181,6729,4294679244,1648,0.52,0.69,0.41,-4.85,1.2,0.53,45.82,-31.15,19.75,13.92,-38.37,20.79,12.11,Left Fall while Sitting
02:47.7,0,0,0,0,273,2.75,364,1.33,95.97,273,185,20723.53,183,429464800,0,0,0.52,0.69,0.41,-6.76,-2.11,7.72,45.33,-31.69,18.98,13.41,-37.32,20.04,11.61,Left Fall while Sitting
02:47.8,0,0,0,0,273,2.75,364,1.33,95.97,273,184,20723.53,183,429464800,4294935616,184,0.56,0.66,0.45,-4.6,-2.21,4.55,41.73,-33.69,18.48,12.88,-36.66,19.41,11.02,Left Fall while Sitting
02:47.9,0,0,0,0,273,2.75,364,1.33,95.97,273,184,20723.53,183,429464800,4294903936,368,0.56,0.66,0.42,-1.64,2.64,-4.85,42.84,-33.83,18.34,12.96,-37.16,19.32,11.09,Left Fall while Sitting
02:48.0,0,0,0,0,273,2.75,364,1.33,95.97,273,184,20723.53,183,429464800,4294872256,552,0.53,0.66,0.44,-1.95,1.27,-1.93,42.96,-32.52,18.17,12.87,-37.31,19.16,11.06,Left Fall while Sitting
02:48.2,0,0,0,0,272,2.76,362.18,1.33,95.97,273,185,20723.53,183,429464800,4294840945,737,0.56,0.66,0.44,-3.21,1.01,0.63,42.36,-33.57,17.84,12.75,-37.13,18.82,10.9,Left Fall while Sitting
02:48.3,0,0,0,0,272,2.76,362.18,1.33,95.97,273,185,20723.53,183,429464800,4294809634,922,0.56,0.67,0.44,-2.6,3.18,-3.53,42.55,-33.38,17.58,12.9,-37.47,18.58,11.05,Left Fall while Sitting
02:48.4,0,0,0,0,272,2.76,362.18,1.33,95.97,273,185,20723.53,183,429464800,4294778323,1107,0.55,0.67,0.44,-1.08,3.2,-6.16,43.07,-32.91,17.52,13.05,-38.14,18.54,11.21,Left Fall while Sitting
02:48.5,0,0,0,0,272,2.76,362.18,1.33,95.97,273,186,20723.53,183,429464800,4294747383,1293,0.55,0.68,0.42,-1.58,7.08,-7.68,43.9,-32.76,17.39,13.69,-39.01,18.45,11.83,Left Fall while Sitting
02:48.7,0,0,0,0,272,2.76,362.18,1.33,95.97,273,184,20723.53,183,429464800,4294715703,1477,0.52,0.67,0.45,-3.12,5.23,-6.83,43.74,-31.13,17.07,14.09,-39.77,18.14,12.28,Left Fall while Sitting
02:48.8,0,0,0,0,272,2.76,362.18,1.33,95.97,273,185,20723.53,183,429464800,4294684392,1662,0.5,0.69,0.45,-1.5,4.47,-7.05,45.02,-30.02,16.95,14.4,-40.55,18.07,12.62,Left Fall while Sitting
02:48.9,0,0,0,0,272,2.76,362.18,1.33,92.8,272,187,20723.55,184,429465376,0,0,0.48,0.69,0.44,-3.56,3.67,-5.58,45.82,-28.99,16.58,14.6,-41.14,17.75,12.86,Left Fall while Sitting
02:49.0,0,0,0,0,271,2.77,360.37,1.32,92.8,272,179,20723.55,184,429465376,32041,179,0.49,0.7,0.45,-2.4,4.52,-1.81,45.66,-28.9,16.35,14.92,-41.26,17.53,13.16,Left Fall while Sitting
02:49.2,0,0,0,0,268,2.82,354.97,1.31,92.8,272,177,20723.55,184,429465376,63370,356,0.48,0.69,0.46,0.47,-1.94,1.81,45.76,-28.39,16.48,14.43,-40.94,17.65,12.72,Left Fall while Sitting
02:49.3,0,0,0,0,267,2.83,353.17,1.3,92.8,272,177,20723.55,184,429465376,94699,533,0.46,0.69,0.46,0.46,-3.01,7.43,45.83,-27.53,16.61,13.81,-39.92,17.78,12.15,Left Fall while Sitting
02:49.4,0,0,0,0,266,2.85,351.39,1.3,92.8,272,176,20723.55,184,429465376,125675,709,0.5,0.69,0.43,-3.44,-6.16,8.66,45.56,-30.05,16.25,12.8,-38.75,17.42,11.08,Left Fall while Sitting
02:49.5,0,0,0,0,266,2.85,351.39,1.3,92.8,272,179,20723.55,184,429465376,157716,888,0.54,0.68,0.42,-4.81,-3.34,10.18,44.05,-32.71,15.72,12.13,-37.39,16.86,10.34,Left Fall while Sitting
02:49.7,0,0,0,0,267,2.83,353.17,1.3,92.8,272,181,20723.55,184,429465376,190477,1069,0.58,0.66,0.42,-3.93,-6.37,8.37,41.99,-34.99,15.3,11.09,-36.25,16.37,9.24,Left Fall while Sitting
02:49.8,0,0,0,0,267,2.83,353.17,1.3,92.8,272,179,20723.55,184,429465376,222518,1248,0.59,0.64,0.43,1.06,-4.21,3.94,40.73,-35.99,15.5,10.32,-35.66,16.51,8.46,Left Fall while Sitting
02:49.9,0,0,0,0,267,2.83,353.17,1.3,92.8,272,180,20723.55,184,429465376,254918,1428,0.6,0.64,0.41,-1.19,-7.32,5.37,40.98,-36.61,15.43,9.16,-34.9,16.45,7.33,Left Fall while Sitting
02:50.0,0,0,0,0,267,2.83,353.17,1.3,92.8,272,180,20723.55,184,429465376,287318,1608,0.62,0.63,0.4,-0.64,-4.03,2.76,39.91,-37.96,15.42,8.41,-34.45,16.4,6.55,Left Fall while Sitting
02:50.2,0,0,0,0,267,2.83,353.17,1.3,76.91,267,182,159.66,179,25489,0,0,0.6,0.62,0.38,-0.24,-0.85,0.12,40.31,-38.14,15.45,8.06,-34.34,16.45,6.21,Left Fall while Sitting
02:50.3,0,0,0,0,268,2.82,354.97,1.31,76.91,267,183,159.66,179,25489,4294935249,183,0.6,0.58,0.35,-10.37,-1.22,17.84,39.08,-40.08,14.24,7.66,-32.03,15.23,5.75,Left Fall while Sitting
02:50.4,0,0,0,0,268,2.82,354.97,1.31,76.91,267,182,159.66,179,25489,4294902837,365,0.64,0.58,0.4,-16.74,-1.9,24.45,36.73,-40.62,12.25,7.18,-28.93,13.23,5.27,Left Fall while Sitting
02:50.5,0,0,0,0,268,2.82,354.97,1.31,76.91,267,182,159.66,179,25489,4294870425,547,0.72,0.55,0.44,-11.46,-3.06,22.2,32.89,-43.83,10.9,6.56,-26.08,11.77,4.54,Left Fall while Sitting
02:50.7,0,0,0,0,268,2.82,354.97,1.31,76.91,267,182,159.66,179,25489,4294838013,729,0.72,0.5,0.48,-15.15,-6.69,20.86,29.5,-44.32,9.09,5.48,-23.39,9.9,3.49,Left Fall while Sitting
02:50.8,0,0,0,0,268,2.82,354.97,1.31,76.91,267,184,159.66,179,25489,4294806333,913,0.73,0.43,0.41,-13.36,-21.27,38.11,26.61,-49.52,7.5,2.59,-18.57,8.26,0.51,Left Fall while Sitting
02:50.9,0,0,0,0,269,2.8,356.76,1.31,76.91,267,185,159.66,179,25489,4294775022,1098,0.83,0.32,0.36,-6.28,-15.74,61.6,18.55,-58.39,6.79,0.39,-10.83,7.26,-1.96,Left Fall while Sitting
02:51.0,0,0,0,0,269,2.8,356.76,1.31,76.91,267,183,159.66,179,25489,4294742975,1281,0.97,0.17,0.37,-1.2,-6.74,49.5,8.72,-65.85,6.71,-0.69,-4.6,6.79,-3.3,Left Fall while Sitting
02:51.1,0,0,0,0,269,2.8,356.76,1.31,76.91,267,184,159.66,179,25489,4294711295,1465,1,0.09,0.34,-8.66,1.38,34.87,4.04,-69.23,5.71,-0.77,-0.17,5.64,-3.5,Left Fall while Sitting
02:51.3,0,0,0,0,269,2.8,356.76,1.31,76.91,267,185,159.66,179,25489,4294679984,1650,0.92,0.03,0.35,-4.43,-2.74,20.82,1.14,-67.7,5.23,-1.35,2.48,5.07,-4,Left Fall while Sitting
02:51.4,0,0,0,0,270,2.79,358.57,1.32,81.3,268,186,20723.54,183,429464896,0,0,0.89,-0.01,0.34,-13.03,-15.75,19.3,-1.15,-67.25,3.7,-3.53,4.95,3.5,-6.08,Left Fall while Sitting
02:51.5,0,0,0,0,270,2.79,358.57,1.32,81.3,268,186,20723.54,183,429464896,4294936356,186,0.92,-0.02,0.3,-10.05,-7.9,17.38,-1.51,-70.32,2.51,-4.77,7.23,2.35,-7.39,Left Fall while Sitting
02:51.6,0,0,0,0,269,2.8,356.76,1.31,81.3,268,185,20723.54,183,429464896,4294905045,371,1.03,-0.13,0.33,-0.03,15.19,21.37,-7.24,-69.32,2.58,-3.13,9.97,2.18,-5.78,Left Fall while Sitting
02:51.8,0,0,0,0,270,2.79,358.57,1.32,81.3,268,185,20723.54,183,429464896,4294873734,556,0.96,-0.15,0.29,-10.14,0.01,-5.29,-9.06,-69.42,1.39,-3.38,9.42,0.97,-6.02,Left Fall while Sitting
02:51.9,0,0,0,0,269,2.8,356.76,1.31,81.3,268,183,20723.54,183,429464896,4294841687,739,0.97,-0.11,0.25,-9.26,0.46,-1.71,-6.68,-72.73,0.3,-3.57,9.3,0.02,-6.34,Left Fall while Sitting
02:52.0,0,0,0,0,269,2.8,356.76,1.31,81.3,268,183,20723.54,183,429464896,4294809640,922,0.96,-0.12,0.39,-4.68,-7.67,-8.27,-7.04,-65.49,-0.21,-4.78,8.37,-0.49,-7.21,Left Fall while Sitting
02:52.1,0,0,0,0,268,2.82,354.97,1.31,81.3,268,184,20723.54,183,429464896,4294777960,1106,0.98,-0.1,0.27,-10.01,-10.04,5.47,-6.13,-72.1,-1.4,-6.29,9.15,-1.58,-8.92,Left Fall while Sitting
02:52.3,0,0,0,0,269,2.8,356.76,1.31,81.3,268,186,20723.54,183,429464896,4294747020,1292,1.05,-0.14,0.25,3.29,4.41,7.22,-8.05,-73.1,-0.91,-5.99,10.15,-1.2,-8.67,Left Fall while Sitting
02:52.4,0,0,0,0,270,2.79,358.57,1.32,81.3,268,186,20723.54,183,429464896,4294716080,1478,0.98,-0.17,0.26,1.46,7.24,-3.48,-9.9,-70.77,-0.66,-5.33,9.81,-1.03,-7.95,Left Fall while Sitting
02:52.5,0,0,0,0,270,2.79,358.57,1.32,81.3,268,186,20723.54,183,429464896,4294685140,1664,0.96,-0.1,0.25,-2.18,-0.55,-6.67,-6.51,-72.68,-0.86,-5.65,9.08,-1.09,-8.33,Left Fall while Sitting
02:52.6,0,0,0,0,269,2.8,356.76,1.31,83.58,269,186,20723.55,185,429465408,0,0,0.93,-0.11,0.28,-3.04,-3.74,3.3,-7.3,-70.34,-1.17,-6.36,9.58,-1.41,-8.92,Left Fall while Sitting
02:52.8,0,0,0,0,270,2.79,358.57,1.32,83.58,269,188,20723.55,185,429465408,4294937104,188,0.96,-0.14,0.27,1.5,-1.84,8.45,-8.62,-71.03,-0.91,-6.84,10.74,-1.22,-9.4,Left Fall while Sitting
02:52.9,0,0,0,0,270,2.79,358.57,1.32,83.58,269,188,20723.55,185,429465408,4294906912,376,0.96,-0.17,0.25,0.86,-1.63,2.82,-10.36,-70.82,-0.73,-7.29,11.19,-1.12,-9.83,Left Fall while Sitting
02:53.0,0,0,0,0,270,2.79,358.57,1.32,83.58,269,185,20723.55,185,429465408,4294875601,561,0.96,-0.16,0.25,-1.47,-0.06,-4.16,-9.45,-71.33,-0.85,-7.55,10.76,-1.19,-10.1,Left Fall while Sitting
02:53.1,0,0,0,0,269,2.8,356.76,1.31,83.58,269,184,20723.55,185,429465408,4294843921,745,0.95,-0.14,0.26,-1.1,3.07,-1.3,-8.82,-70.85,-0.92,-7.41,10.7,-1.23,-9.95,Left Fall while Sitting
02:53.3,0,0,0,0,269,2.8,356.76,1.31,83.58,269,184,20723.55,185,429465408,4294812241,929,0.95,-0.17,0.28,-1.79,1.27,-0.18,-10.06,-69.58,-1.07,-7.5,10.78,-1.43,-9.99,Left Fall while Sitting
02:53.4,0,0,0,0,269,2.8,356.76,1.31,83.58,269,184,20723.55,185,429465408,4294780561,1113,0.97,-0.14,0.27,0.47,-0.15,0.76,-8.54,-70.88,-0.94,-7.78,10.97,-1.24,-10.3,Left Fall while Sitting
02:53.5,0,0,0,0,269,2.8,356.76,1.31,83.58,269,183,20723.55,185,429465408,4294748514,1296,0.95,-0.16,0.25,-1.99,1.09,1.09,-10.11,-70.79,-1.12,-7.89,11.21,-1.48,-10.4,Left Fall while Sitting
02:53.6,0,0,0,0,269,2.8,356.76,1.31,83.58,269,186,20723.55,185,429465408,4294717574,1482,0.96,-0.17,0.25,-4.7,1.09,0.73,-10.33,-70.91,-1.64,-8,11.4,-1.98,-10.52,Left Fall while Sitting
02:56.6,0,0,0,0,274,2.73,365.82,1.34,0,0,188,0,0,0,4294907289,377,0.92,-0.02,0.3,-12.54,-8.27,10.31,-1.82,-70.13,-1.02,-0.5,-0.72,-1.05,-3.29,Right Fall while Sitting
02:56.7,0,0,0,0,273,2.75,364,1.33,0,0,188,0,0,0,4294877097,565,0.97,-0.08,0.29,-5.69,-11.31,10.92,-4.88,-71.21,-1.65,-2.13,0.71,-1.77,-4.89,Right Fall while Sitting
02:56.9,0,0,0,0,273,2.75,364,1.33,0,0,188,0,0,0,4294846905,753,0.98,-0.09,0.19,-2.69,-12.37,7.8,-5.73,-76.33,-1.91,-3.89,1.77,-2.06,-6.79,Right Fall while Sitting
02:57.0,0,0,0,0,273,2.75,364,1.33,0,0,187,0,0,0,4294816338,940,0.97,-0.11,0.18,-10.82,-10.93,15.15,-6.95,-75.95,-3.16,-5.47,3.71,-3.31,-8.29,Right Fall while Sitting
02:57.1,0,0,0,0,273,2.75,364,1.33,0,0,188,0,0,0,4294786146,1128,0.99,-0.16,0.19,-2.61,-5.87,11.34,-9.84,-74.01,-3.41,-6.44,5.2,-3.67,-9.14,Right Fall while Sitting
02:57.2,0,0,0,0,273,2.75,364,1.33,0,0,188,0,0,0,4294755954,1316,0.97,-0.17,0.14,-3.26,-6.63,6.63,-10.45,-75.73,-3.74,-7.48,6.1,-4.01,-10.21,Right Fall while Sitting
02:57.4,0,0,0,0,273,2.75,364,1.33,0,0,188,0,0,0,4294725762,1504,0.96,-0.19,0.14,-5.41,-5.5,12.85,-11.67,-74.66,-4.34,-8.41,7.78,-4.63,-11.06,Right Fall while Sitting
02:57.5,0,0,0,0,274,2.73,365.82,1.34,0,0,189,0,0,0,4294695947,1693,0.96,-0.22,0.13,-6.11,-4.07,13.98,-13.59,-73.37,-5.01,-9.15,9.58,-5.36,-11.71,Right Fall while Sitting
02:57.6,0,0,0,0,274,2.73,365.82,1.34,95.97,273,190,20723.58,188,429466656,0,0,0.95,-0.25,0.13,-11.24,-8.16,20.68,-15.3,-71.91,-6.34,-10.41,12.24,-6.69,-12.87,Right Fall while Sitting
02:57.7,0,0,0,0,275,2.72,367.65,1.34,95.97,273,192,20723.58,188,429466656,4294938624,192,0.98,-0.31,0.11,-2.91,-8.05,19.67,-18.2,-69.66,-6.63,-11.67,14.82,-7.09,-13.99,Right Fall while Sitting
02:57.9,0,0,0,0,275,2.72,367.65,1.34,95.97,273,191,20723.58,188,429466656,4294909569,383,0.96,-0.36,0.07,-4.45,-11.26,17.32,-21.29,-67.31,-7.12,-13.33,17.09,-7.68,-15.49,Right Fall while Sitting
02:58.0,0,0,0,0,275,2.72,367.65,1.34,95.97,273,190,20723.58,188,429466656,4294880133,573,0.95,-0.41,0.04,-2.35,-6.71,18.09,-24.18,-64.73,-7.34,-14.43,19.47,-8.02,-16.44,Right Fall while Sitting
02:58.1,0,0,0,0,274,2.73,365.82,1.34,95.97,273,190,20723.58,188,429466656,4294850697,763,0.93,-0.43,0.02,2.68,3.84,17.55,-25.21,-63.76,-6.94,-14.19,21.78,-7.67,-16.18,Right Fall while Sitting
02:58.2,0,0,0,0,275,2.72,367.65,1.34,95.97,273,190,20723.58,188,429466656,4294821261,953,0.9,-0.48,0.05,-7.69,0.25,21.37,-28.79,-60.03,-7.83,-14.41,24.55,-8.66,-16.24,Right Fall while Sitting
02:58.4,0,0,0,0,275,2.72,367.65,1.34,95.97,273,192,20723.58,188,429466656,4294792589,1145,0.91,-0.52,0.06,4.37,-3.8,12.15,-30.36,-58.4,-7.21,-15.14,26.18,-8.13,-16.87,Right Fall while Sitting
02:58.5,0,0,0,0,275,2.72,367.65,1.34,95.97,273,192,20723.58,188,429466656,4294763917,1337,0.86,-0.53,-0.01,-4.24,-5.27,7.76,-32.06,-56.93,-7.67,-16.06,27.25,-8.65,-17.7,Right Fall while Sitting
02:58.6,0,0,0,0,275,2.72,367.65,1.34,95.97,273,189,20723.58,188,429466656,4294734102,1526,0.86,-0.53,0.01,-5.58,0.44,10.9,-32.15,-56.85,-8.3,-16.26,28.73,-9.26,-17.88,Right Fall while Sitting
02:58.7,0,0,0,0,274,2.73,365.82,1.34,95.97,273,189,20723.58,188,429466656,4294704287,1715,0.9,-0.59,-0.01,-3.66,4.05,10.28,-33.63,-55.37,-8.69,-16,30.11,-9.69,-17.58,Right Fall while Sitting
02:58.9,0,0,0,0,274,2.73,365.82,1.34,99.62,274,192,20723.6,190,429467552,0,0,0.86,-0.61,0.01,-5.22,-1.49,6.51,-35.57,-53.42,-9.27,-16.43,31.02,-10.32,-17.91,Right Fall while Sitting
02:59.0,0,0,0,0,275,2.72,367.65,1.34,99.62,274,193,20723.6,190,429467552,4294939009,193,0.84,-0.6,-0.01,-6.45,-0.89,6.44,-36.13,-52.87,-10,-16.8,31.92,-11.05,-18.24,Right Fall while Sitting
02:59.1,0,0,0,0,274,2.73,365.82,1.34,99.62,274,192,20723.6,190,429467552,4294910337,385,0.83,-0.62,-0.03,-11.69,-0.12,9.37,-37.43,-51.53,-11.41,-17.06,33.2,-12.45,-18.44,Right Fall while Sitting
02:59.2,0,0,0,0,275,2.72,367.65,1.34,99.62,274,192,20723.6,190,429467552,4294881665,577,0.82,-0.64,-0.02,-7.56,-4.37,10.62,-38.66,-50.32,-12.29,-17.87,34.64,-13.34,-19.16,Right Fall while Sitting
02:59.4,0,0,0,0,274,2.73,365.82,1.34,99.62,274,192,20723.6,190,429467552,4294852993,769,0.75,-0.62,0.02,0.41,-2.6,7.05,-40.41,-48.57,-12.16,-18.45,35.63,-13.29,-19.65,Right Fall while Sitting
02:59.5,0,0,0,0,273,2.75,364,1.33,99.62,274,191,20723.6,190,429467552,4294823938,960,-0.11,-0.68,0.76,-1.24,31.51,7.88,-41.83,7.7,-12.25,-14.73,36.72,-13.43,-13.83,Right Fall while Sitting
02:59.6,0,0,0,0,273,2.75,364,1.33,99.62,274,190,20723.6,190,429467552,4294794502,1150,0.84,-0.68,-0.03,6.07,2.31,-1.54,-39.87,-49.09,-11.42,-14.69,36.62,-12.55,-16.06,Right Fall while Sitting
02:59.7,0,0,0,0,274,2.73,365.82,1.34,99.62,274,191,20723.6,190,429467552,4294765447,1341,0.76,-0.66,-0.04,-4.63,2.34,0.05,-41.61,-47.29,-11.93,-14.65,36.73,-13.12,-15.95,Right Fall while Sitting
02:59.9,0,0,0,0,273,2.75,364,1.33,99.62,274,191,20723.6,190,429467552,4294736392,1532,0.77,-0.68,0,-7.29,2.61,3.24,-41.91,-47.09,-12.78,-14.57,37.24,-13.94,-15.87,Right Fall while Sitting
03:00.0,0,0,0,0,274,2.73,365.82,1.34,99.62,274,193,20723.6,190,429467552,4294708105,1725,0.76,-0.69,-0.03,-4.45,-0.23,2.4,-42.48,-46.46,-13.27,-14.85,37.64,-14.44,-16.11,Right Fall while Sitting
03:00.1,0,0,0,0,274,2.73,365.82,1.34,97.39,273,192,20723.61,191,429467936,0,0,0.75,-0.69,-0.03,-10.4,2.56,4.77,-43.25,-45.7,-14.49,-14.78,38.33,-15.64,-16.02,Right Fall while Sitting
03:00.2,0,0,0,0,274,2.73,365.82,1.34,97.39,273,193,20723.61,191,429467936,4294939009,193,0.71,-0.68,-0.01,-11.53,5.9,15.11,-44.49,-44.51,-15.87,-14.29,40.33,-17.01,-15.5,Right Fall while Sitting
03:00.4,0,0,0,0,274,2.73,365.82,1.34,97.39,273,193,20723.61,191,429467936,4294910722,386,0.73,-0.76,-0.01,-0.55,-5.53,5.33,-47.07,-41.93,-15.87,-15.24,41.1,-17.11,-16.3,Right Fall while Sitting
03:00.5,0,0,0,0,274,2.73,365.82,1.34,97.39,273,192,20723.61,191,429467936,4294882050,578,0.74,-0.75,-0.08,4.05,4.99,-17.89,-46,-42.63,-15.29,-14.86,38.95,-16.52,-15.97,Right Fall while Sitting
03:00.6,0,0,0,0,274,2.73,365.82,1.34,97.39,273,191,20723.61,191,429467936,4294852995,769,0.72,-0.69,-0.1,-1.09,15.65,-8.18,-44.04,-44.43,-15.35,-13.14,38.02,-16.5,-14.39,Right Fall while Sitting
03:00.8,0,0,0,0,273,2.75,364,1.33,97.39,273,192,20723.61,191,429467936,4294824323,961,0.75,-0.72,0.04,-10.35,13.35,2.7,-44.42,-44.47,-16.6,-11.7,38.46,-17.71,-13.01,Right Fall while Sitting
03:00.9,0,0,0,0,273,2.75,364,1.33,97.39,273,192,20723.61,191,429467936,4294795651,1153,0.75,-0.71,0,3.71,6.19,-3.24,-43.94,-45.06,-16.06,-11.17,38.15,-17.17,-12.53,Right Fall while Sitting
03:01.0,0,0,0,0,273,2.75,364,1.33,97.39,273,192,20723.61,191,429467936,4294766979,1345,0.76,-0.69,0,-6.5,-1.47,1.1,-42.88,-46.12,-16.81,-11.61,38.39,-17.85,-12.99,Right Fall while Sitting
03:01.1,0,0,0,0,273,2.75,364,1.33,97.39,273,193,20723.61,191,429467936,4294738692,1538,0.74,-0.71,-0.02,-9.4,-3.17,4.43,-44.33,-44.65,-17.92,-12.26,39.05,-18.98,-13.55,Right Fall while Sitting
03:01.3,0,0,0,0,273,2.75,364,1.33,97.39,273,193,20723.61,191,429467936,4294710405,1731,0.76,-0.73,-0.03,-4.44,1.47,-0.09,-44.18,-44.76,-18.41,-12.32,39.14,-19.44,-13.62,Right Fall while Sitting
03:01.4,0,0,0,0,272,2.76,362.18,1.33,95.69,273,194,20723.62,192,429468256,0,0,0.71,-0.72,-0.02,-2.95,0.59,-2.5,-45.8,-43.17,-18.7,-12.5,38.92,-19.79,-13.72,Right Fall while Sitting
03:01.5,0,0,0,0,273,2.75,364,1.33,95.69,273,193,20723.62,192,429468256,4294939009,193,0.74,-0.74,-0.02,-2.84,1.67,-0.75,-45.44,-43.55,-18.99,-12.54,38.93,-20.05,-13.78,Right Fall while Sitting
03:01.6,0,0,0,0,272,2.76,362.18,1.33,95.69,273,193,20723.62,192,429468256,4294910722,386,0.75,-0.72,-0.02,1.5,3.4,-4.72,-44.26,-44.72,-18.73,-12.36,38.43,-19.75,-13.66,Right Fall while Sitting
03:01.8,0,0,0,0,272,2.76,362.18,1.33,95.69,273,193,20723.62,192,429468256,4294882435,579,0.73,-0.71,-0.02,0.23,4.23,-5.25,-44.72,-44.26,-18.63,-12.08,37.87,-19.68,-13.37,Right Fall while Sitting
03:01.9,0,0,0,0,272,2.76,362.18,1.33,95.69,273,194,20723.62,192,429468256,4294854535,773,0.75,-0.7,-0.01,-2.09,2.44,-3.85,-43.68,-45.31,-18.83,-12.03,37.49,-19.82,-13.36,Right Fall while Sitting
03:02.0,0,0,0,0,272,2.76,362.18,1.33,95.69,273,193,20723.62,192,429468256,4294826248,966,0.74,-0.7,0.01,-2.4,1.52,-4.24,-44.09,-44.91,-19.06,-12.09,37.05,-20.06,-13.4,Right Fall while Sitting
03:02.1,0,0,0,0,272,2.76,362.18,1.33,95.69,273,194,20723.62,192,429468256,4294798348,1160,0.75,-0.71,-0.01,-3.91,1.92,-1.66,-44.14,-44.85,-19.48,-12.1,36.94,-20.47,-13.41,Right Fall while Sitting
03:02.3,0,0,0,0,273,2.75,364,1.33,95.69,273,195,20723.62,192,429468256,4294770837,1355,0.76,-0.71,0,2.81,5.99,-10.98,-43.37,-45.63,-19.05,-11.59,35.66,-20.03,-12.96,Right Fall while Sitting
03:02.4,0,0,0,0,273,2.75,364,1.33,95.69,273,195,20723.62,192,429468256,4294743326,1550,0.78,-0.68,0.02,5.71,13.34,-19.97,-41.79,-47.19,-18.26,-10.17,33.24,-19.21,-11.65,Right Fall while Sitting
03:02.5,0,0,0,0,272,2.76,362.18,1.33,95.69,273,192,20723.62,192,429468256,4294714654,1742,0.82,-0.65,0.07,14.38,17.57,-30.63,-39,-49.75,-16.37,-8.19,29.45,-17.27,-9.85,Right Fall while Sitting
03:02.6,0,0,0,0,273,2.75,364,1.33,93.09,272,189,20723.62,193,429468480,0,0,0.85,-0.59,0.11,13.2,24.43,-38.31,-34.89,-53.45,-14.66,-5.41,24.8,-15.47,-7.33,Right Fall while Sitting
03:02.8,0,0,0,0,269,2.8,356.76,1.31,93.09,272,179,20723.62,193,429468480,32041,179,0.88,-0.51,0.2,18.96,21.62,-51.47,-30.04,-56.55,-12.22,-2.95,18.47,-12.93,-5.1,Right Fall while Sitting
03:02.9,0,0,0,0,265,2.86,349.6,1.3,93.09,272,174,20723.62,193,429468480,62317,353,0.9,-0.37,0.22,10.52,9.77,-59.79,-22.55,-62.6,-10.84,-1.98,11.09,-11.3,-4.41,Right Fall while Sitting
03:03.0,0,0,0,0,262,2.9,344.28,1.28,93.09,272,171,20723.62,193,429468480,91558,524,0.83,-0.24,0.24,-4.66,1.59,-48.27,-16.03,-66.35,-11.35,-2.04,5.16,-11.54,-4.61,Right Fall while Sitting
03:03.1,0,0,0,0,261,2.92,342.52,1.28,93.09,272,175,20723.62,193,429468480,122183,699,0.93,-0.15,0.23,-7.41,-6.11,-30.01,-9.76,-71.96,-12.2,-3.04,1.53,-12.1,-5.8,Right Fall while Sitting
03:03.3,0,0,0,0,263,2.89,346.05,1.29,93.09,272,176,20723.62,193,429468480,153159,875,0.97,-0.12,0.24,4.6,-11.02,-28.89,-7.4,-73.07,-11.55,-4.67,-1.98,-11.39,-7.4,Right Fall while Sitting
03:03.4,0,0,0,0,264,2.88,347.83,1.29,93.09,272,177,20723.62,193,429468480,184488,1052,1.04,-0.09,0.14,12.47,-17.3,-33.39,-5.6,-79.06,-9.92,-7.08,-6.05,-9.75,-9.96,Right Fall while Sitting
03:03.5,0,0,0,0,264,2.88,347.83,1.29,93.09,272,177,20723.62,193,429468480,215817,1229,0.64,0.03,0.39,2.35,-26,-29.57,1.98,-57.2,-9.56,-10.55,-9.62,-9.1,-12.42,Right Fall while Sitting
03:03.6,0,0,0,0,264,2.88,347.83,1.29,93.09,272,179,20723.62,193,429468480,247858,1408,0.98,0.08,0.11,-6.89,-15.3,-12.45,4.2,-80.6,-10.35,-12.71,-11.08,-9.77,-15.43,Right Fall while Sitting
03:03.8,0,0,0,0,264,2.88,347.83,1.29,93.09,272,178,20723.62,193,429468480,279542,1586,0.96,0.11,0.11,-6.53,-16.21,2.54,5.78,-79.2,-11.11,-15.01,-10.66,-10.43,-17.58,Right Fall while Sitting
03:03.9,0,0,0,0,262,2.9,344.28,1.28,63.7,263,170,175.62,175,30843,0,0,0.95,0.07,0,-0.1,-12.36,16.36,3.56,-84.28,-11.05,-16.78,-8.55,-10.47,-19.48,Right Fall while Sitting
03:04.0,0,0,0,0,258,2.97,337.25,1.26,63.7,263,166,175.62,175,30843,27556,166,0.97,0.01,-0.04,-2.1,-5.68,10.67,0.13,-86.14,-11.24,-17.73,-7.13,-10.79,-20.46,Right Fall while Sitting
03:04.1,0,0,0,0,256,3,333.77,1.25,63.7,263,169,175.62,175,30843,56117,335,1.02,0,-0.02,6.25,8.67,-5.59,-0.68,-87.08,-10.4,-16.91,-7.72,-10.01,-19.71,Right Fall while Sitting
03:04.3,0,0,0,0,256,3,333.77,1.25,63.7,263,171,175.62,175,30843,85358,506,1.03,0.02,0,-4.94,5.5,0.84,0.52,-87.32,-10.95,-16.47,-7.52,-10.49,-19.31,Right Fall while Sitting
03:04.4,0,0,0,0,256,3,333.77,1.25,63.7,263,172,175.62,175,30843,114942,678,1.02,0.03,0.03,-3.76,6.76,2.92,1.07,-85.98,-11.34,-15.88,-7.06,-10.85,-18.69,Right Fall while Sitting
03:04.5,0,0,0,0,257,2.98,335.51,1.26,63.7,263,173,175.62,175,30843,144871,851,1.02,0.02,0.02,-1.56,-1.53,7.53,0.81,-86.72,-11.46,-16.32,-6.03,-10.97,-19.13,Right Fall while Sitting
03:04.6,0,0,0,0,257,2.98,335.51,1.26,63.7,263,172,175.62,175,30843,174455,1023,1.01,-0.01,0.01,-2.13,-5.19,15.19,-0.94,-87.84,-11.66,-17.21,-4.05,-11.23,-20.03,Right Fall while Sitting
03:04.8,0,0,0,0,258,2.97,337.25,1.26,63.7,263,171,175.62,175,30843,203696,1194,1.02,-0.06,-0.01,0.63,-4.44,16.66,-3.91,-85.08,-11.51,-18.01,-1.87,-11.21,-20.7,Right Fall while Sitting
03:04.9,0,0,0,0,256,3,333.77,1.25,63.7,263,172,175.62,175,30843,233280,1366,1.02,-0.1,-0.03,3.38,0.31,7.77,-6.19,-82.63,-11.03,-18.22,-0.82,-10.83,-20.8,Right Fall while Sitting
03:05.0,0,0,0,0,257,2.98,335.51,1.26,63.7,263,175,175.62,175,30843,263905,1541,1.02,-0.1,-0.05,-4.32,1.8,0.28,-6.41,-82.03,-11.49,-18.25,-0.68,-11.29,-20.8,Right Fall while Sitting
03:05.1,0,0,0,0,258,2.97,337.25,1.26,21.49,256,175,171.62,171,29452,0,0,0.99,-0.1,0.01,-1.58,3.8,-4.13,-6.11,-82.88,-11.62,-18.03,-1.09,-11.4,-20.62,Right Fall while Sitting
