Datetime, ECGRaw , AvgECG , ampECG , MAX , GSRRaw , Resistance , GSR(kohm) , SCL , GSRRMS , GSRMAV , EMGRaw , EMGRMS , EMGMAV , EMGVAR , EMGSSI , IEMG , AccX , AccY, AccZ , GyroX , GyroY , GyroZ , Aroll , Apitch , Groll , Gpitch, Gyaw , Combroll , Combpitch,Features
43:24.5,726,726,1089,726,404,1.53,652.67,1.97,0,0,209,0,0,0,4294923169,417,1.02,-0.05,0.09,14.05,8.76,-10.57,-3.4,-82.39,2.8,-1.33,-0.26,2.56,-4.57,Standing
43:24.6,703,714,1071,726,405,1.53,655.34,1.98,0,0,207,0,0,0,4294900482,624,1.01,-0.03,0.11,3.73,-3.02,-4.13,-2.05,-81.92,3.34,-1.95,-0.67,3.12,-5.15,Standing
43:24.7,464,631,946.5,726,404,1.53,652.67,1.97,0,0,208,0,0,0,4294878210,832,1,0,0.15,6.78,0.37,-6.79,-0.5,-79.65,4.24,-2.15,-1.41,4.05,-5.25,Standing
43:24.8,283,544,816,726,405,1.53,655.34,1.98,0,0,209,0,0,0,4294856355,1041,0.98,0.03,0.08,9.96,0.05,-6.83,1.28,-83.22,5.53,-2.39,-2.15,5.36,-5.62,Standing
43:24.9,320,499,748.5,726,402,1.54,647.34,1.96,0,0,202,0,0,0,4294831623,1243,1.02,0.03,0.08,0.06,3.21,-1.36,1.13,-83.7,5.61,-2.24,-2.22,5.43,-5.5,Standing
43:25.1,330,471,706.5,726,396,1.58,631.58,1.94,0,0,198,0,0,0,4294805291,1441,1.03,0,0.1,-3.15,9.34,-0.49,-0.35,-83.1,5.29,-1.34,-2.18,5.06,-4.61,Standing
43:25.2,562,484,726,726,391,1.62,618.67,1.91,0,0,194,0,0,0,4294777391,1635,1.02,0.02,0.06,-19.4,-7.95,0.93,0.32,-84.77,2.99,-2.55,-1.97,2.89,-5.84,Standing
43:25.3,671,507,760.5,726,389,1.63,613.56,1.9,0,0,194,0,0,0,4294749491,1829,0.98,-0.01,0.12,-12.63,6.11,2.01,-1.16,-81.52,1.51,-2.04,-1.63,1.4,-5.22,Standing
43:25.4,601,517,775.5,726,389,1.63,613.56,1.9,119.77,398,195,20723.71,202,429472192,0,0,0.92,0,0.1,-15.86,0.3,-5.08,-0.61,-82.35,-0.4,-2.26,-2.17,-0.41,-5.46,Standing
43:25.6,361,502,753,726,389,1.63,613.56,1.9,119.77,398,197,20723.71,202,429472192,4294940569,197,0.98,0.03,0.16,-15.46,-12.53,9.12,0.93,-78.82,-2.28,-4.09,-0.92,-2.15,-7.08,Standing
43:25.7,419,494,741,726,390,1.62,616.11,1.91,119.77,398,197,20723.71,202,429472192,4294913842,394,0.95,-0.05,0.18,-10.71,1.17,4.53,-3.52,-77.16,-3.57,-4.19,-0.24,-3.57,-7.11,Standing
43:25.8,706,512,768,726,391,1.62,618.67,1.91,119.77,398,198,20723.71,202,429472192,4294887510,592,1.01,-0.06,0.1,-5.2,4.69,0.81,-3.91,-82.06,-4.16,-3.85,-0.04,-4.15,-6.98,Standing
43:25.9,287,494,741,726,393,1.6,623.81,1.92,119.77,398,204,20723.71,202,429472192,4294863590,796,1.03,-0.09,0.08,6.86,8.21,-0.58,-5.79,-81.41,-3.21,-3.07,-0.01,-3.32,-6.2,Standing
43:26.1,464,492,738,726,395,1.59,628.98,1.93,119.77,398,202,20723.71,202,429472192,4294838858,998,0.99,-0.08,0.02,-7.4,1.95,-1.59,-5.05,-83.83,-4.07,-3.07,-0.11,-4.11,-6.3,Standing
43:26.2,706,506,759,726,394,1.6,626.39,1.93,119.77,398,201,20723.71,202,429472192,4294813723,1199,1.01,-0.03,0.08,-11.4,5.08,-2.08,-2.19,-83.48,-5.45,-2.68,-0.28,-5.32,-5.91,Standing
43:26.3,326,495,742.5,726,393,1.6,623.81,1.92,119.77,398,199,20723.71,202,429472192,4294787788,1398,1.01,-0.08,0.12,-8.74,7.13,2.58,-5.14,-80,-6.49,-2.03,0.15,-6.44,-5.15,Standing
43:26.4,832,515,772.5,832,393,1.6,623.81,1.92,119.77,398,199,20723.71,202,429472192,4294761853,1597,1.02,-0.07,0.16,-7.19,7.05,-5.4,-4.66,-78.61,-7.33,-1.39,-0.43,-7.22,-4.48,Standing
43:26.6,758,528,792,832,392,1.61,621.24,1.92,119.77,398,199,20723.71,202,429472192,4294735918,1796,1.01,-0.07,0.15,-6.6,0.39,-2.53,-4.53,-79.02,-8.09,-1.6,-0.65,-7.95,-4.69,Standing
43:26.7,325,518,777,832,392,1.61,621.24,1.92,150.83,392,199,20723.68,199,429471008,0,0,0.99,-0.05,0.17,-1.15,0.31,-4.88,-3.63,-78.34,-8.17,-1.81,-1.16,-7.99,-4.87,Standing
43:26.8,347,509,763.5,832,393,1.6,623.81,1.92,150.83,392,202,20723.68,199,429471008,4294942564,202,1.03,-0.03,0.12,-2.03,-0.92,-2.94,-2.5,-81.25,-8.35,-2.18,-1.43,-8.12,-5.34,Standing
43:27.0,732,520,780,832,394,1.6,626.39,1.93,150.83,392,201,20723.68,199,429471008,4294917429,403,1,-0.04,0.12,-5.89,-4.21,-5.5,-2.82,-81.37,-9.03,-2.97,-2.03,-8.78,-6.1,Standing
43:27.1,418,515,772.5,832,393,1.6,623.81,1.92,150.83,392,198,20723.68,199,429471008,4294891097,601,1.01,-0.03,0.1,1.34,3.14,-3.76,-2.03,-82.6,-8.79,-2.82,-2.4,-8.52,-6.02,Standing
43:27.2,420,511,766.5,832,392,1.61,621.24,1.92,150.83,392,198,20723.68,199,429471008,4294864765,799,0.99,-0.02,0.12,0.02,0.37,4.37,-1.8,-81.67,-8.72,-3.03,-1.75,-8.44,-6.18,Standing
43:27.3,703,519,778.5,832,392,1.61,621.24,1.92,150.83,392,199,20723.68,199,429471008,4294838830,998,0.99,-0.02,0.1,1.58,2.98,-2.57,-1.95,-82.52,-8.45,-2.91,-1.97,-8.19,-6.09,Standing
43:27.5,473,517,775.5,832,391,1.62,618.67,1.91,150.83,392,196,20723.68,199,429471008,4294811710,1194,0.99,-0.04,0.13,-4.52,0.75,-2.21,-2.9,-80.81,-8.95,-3.07,-2.15,-8.7,-6.18,Standing
43:27.6,286,508,762,832,390,1.62,616.11,1.91,150.83,392,196,20723.68,199,429471008,4294784590,1390,1.01,-0.02,0.12,0.92,4.37,-4.06,-1.45,-81.3,-8.76,-2.76,-2.57,-8.47,-5.91,Standing
43:27.7,759,517,775.5,832,390,1.62,616.11,1.91,150.83,392,196,20723.68,199,429471008,4294757470,1586,0.98,-0.01,0.12,-1.56,-1.35,-0.24,-1.13,-81.34,-8.89,-3.19,-2.5,-8.57,-6.32,Standing
43:27.8,439,515,772.5,832,393,1.6,623.81,1.92,150.83,392,203,20723.68,199,429471008,4294733143,1789,1,-0.03,0.12,-1.09,1.27,2.48,-2.2,-81.38,-8.95,-3.28,-2.09,-8.68,-6.41,Standing
43:28.0,321,508,762,832,395,1.59,628.98,1.93,151.09,392,203,20723.68,199,429470880,0,0,1.02,-0.04,0.14,-1.69,-0.47,1.12,-2.73,-80.43,-9.09,-3.59,-1.85,-8.84,-6.66,Standing
43:28.1,489,507,760.5,832,395,1.59,628.98,1.93,151.09,392,201,20723.68,199,429470880,4294942161,201,1.01,-0.04,0.11,-1.84,-4.38,-0.66,-2.71,-82.13,-9.25,-4.4,-1.83,-8.99,-7.51,Standing
43:28.2,629,511,766.5,832,395,1.59,628.98,1.93,151.09,392,200,20723.68,199,429470880,4294916625,401,1,-0.04,0.11,-1.17,4.29,-1.11,-2.87,-81.73,-9.33,-4.11,-1.87,-9.07,-7.22,Standing
43:28.3,242,503,754.5,832,395,1.59,628.98,1.93,151.09,392,192,20723.68,199,429470880,4294887953,593,1.01,-0.06,0.1,-3.86,-1.68,-0.86,-3.77,-82.01,-9.75,-4.58,-1.88,-9.51,-7.67,Standing
43:28.5,552,504,756,832,383,1.67,598.44,1.87,151.09,392,181,20723.68,199,429470880,4294920714,774,1.02,-0.04,0.12,-4.37,-0.44,-1.01,-2.84,-81.18,-10.23,-4.89,-1.91,-9.94,-7.94,Standing
43:28.6,978,518,777,978,384,1.66,600.94,1.88,151.09,392,197,20723.68,199,429470880,4294893987,971,1,-0.04,0.11,-1.25,4.41,-2.11,-3.03,-81.89,-10.32,-4.58,-2.08,-10.03,-7.67,Standing
43:28.7,288,512,768,978,390,1.62,616.11,1.91,151.09,392,198,20723.68,199,429470880,4294867655,1169,0.99,-0.04,0.11,-1.57,0.66,-0.74,-2.64,-81.69,-10.45,-4.75,-2.07,-10.14,-7.83,Standing
43:28.8,648,515,772.5,978,392,1.61,621.24,1.92,151.09,392,201,20723.68,199,429470880,4294842520,1370,1,-0.04,0.1,-2.68,-1.18,-1.37,-2.61,-82.1,-10.72,-5.15,-2.14,-10.39,-8.23,Standing
43:29.0,474,514,771,978,393,1.6,623.81,1.92,151.09,392,200,20723.68,199,429470880,4294816984,1570,1.01,-0.04,0.11,-3.59,-1.56,-0.87,-2.89,-81.52,-11.1,-5.61,-2.15,-10.78,-8.64,Standing
43:29.1,257,507,760.5,978,388,1.64,611.02,1.9,151.09,392,186,20723.68,199,429470880,4294786044,1756,1.01,-0.04,0.1,-4.91,2.77,-3.18,-2.96,-82.26,-11.66,-5.51,-2.46,-11.31,-8.58,Standing
43:29.2,700,512,768,978,380,1.69,590.98,1.86,143.75,389,182,20723.79,193,429475360,0,0,1,-0.02,0.1,-3.82,-2.41,-1.37,-1.67,-82.49,-12.06,-6.06,-2.53,-11.65,-9.12,Standing
43:29.4,575,514,771,978,378,1.71,586.05,1.85,143.75,389,183,20723.79,193,429475360,4294935249,183,1,-0.04,0.1,-4.58,-0.69,-2.95,-2.69,-82.22,-12.57,-6.4,-2.8,-12.18,-9.44,Standing
43:29.5,304,509,763.5,978,383,1.67,598.44,1.87,143.75,389,196,20723.79,193,429475360,4294908129,379,1,-0.02,0.1,-2.62,2.84,-2.88,-1.52,-82.39,-12.84,-6.3,-3.07,-12.38,-9.34,Standing
43:29.6,696,513,769.5,978,389,1.63,613.56,1.9,143.75,389,197,20723.79,193,429475360,4294881402,576,1.01,-0.02,0.09,-3.32,-0.38,-2.08,-1.96,-83,-13.19,-6.6,-3.23,-12.74,-9.66,Standing
43:29.7,415,511,766.5,978,389,1.63,613.56,1.9,143.75,389,197,20723.79,193,429475360,4294854675,773,1,-0.03,0.11,-1.99,4.5,-0.08,-2.13,-82.01,-13.37,-6.28,-3.14,-12.92,-9.31,Standing
43:29.9,426,509,763.5,978,389,1.63,613.56,1.9,143.75,389,190,20723.79,193,429475360,4294825239,963,1,-0.02,0.11,0.34,6.15,-0.66,-1.5,-82.29,-13.25,-5.76,-3.13,-12.78,-8.82,Standing
43:30.0,714,513,769.5,978,382,1.68,595.94,1.87,143.75,389,183,20723.79,193,429475360,4294793192,1146,0.99,-0.03,0.12,-4.15,0.18,0.56,-2.09,-81.46,-13.7,-5.99,-2.96,-13.24,-9,Standing
43:30.1,410,511,766.5,978,377,1.71,583.59,1.84,143.75,389,181,20723.79,193,429475360,4294825953,1327,1.01,-0.03,0.11,-4.21,-1.38,0.91,-2.17,-81.98,-14.17,-6.42,-2.74,-13.69,-9.44,Standing
43:30.2,877,519,778.5,978,378,1.71,586.05,1.85,143.75,389,188,20723.79,193,429475360,4294795761,1515,1.01,-0.03,0.12,-1.93,2.52,-1.13,-2.44,-81.62,-14.34,-6.35,-2.78,-13.87,-9.36,Standing
43:30.4,793,525,787.5,978,385,1.66,603.45,1.88,143.75,389,195,20723.79,193,429475360,4294768250,1710,1,-0.05,0.13,-4.08,-1.99,-3.15,-3.26,-80.63,-14.79,-6.86,-3.08,-14.33,-9.81,Standing
43:30.5,308,520,780,978,388,1.64,611.02,1.9,127.48,383,191,20723.75,190,429473920,0,0,0.99,-0.03,0.1,-4.79,0.37,-1.15,-2.07,-82.18,-15.32,-7.06,-3.13,-14.79,-10.06,Standing
43:30.6,355,517,775.5,978,387,1.64,608.49,1.89,127.48,383,203,20723.75,190,429473920,4294942969,203,1.02,-0.04,0.12,-6.4,1.92,1.79,-2.91,-81.51,-16.06,-7.07,-2.8,-15.53,-10.05,Standing
43:30.8,709,521,781.5,978,399,1.56,639.42,1.95,127.48,383,208,20723.75,190,429473920,4294920697,411,1.02,-0.03,0.13,-1.6,6.75,-6.25,-2.49,-80.94,-16.19,-6.47,-3.49,-15.64,-9.45,Standing
43:30.9,355,518,777,978,402,1.54,647.34,1.96,127.48,383,210,20723.75,190,429473920,4294899261,621,0.98,-0.03,0.15,-4.73,-0.21,-1.74,-2.13,-79.76,-16.72,-6.75,-3.62,-16.14,-9.67,Standing
43:31.0,424,516,774,978,402,1.54,647.34,1.96,127.48,383,210,20723.75,190,429473920,4294877825,831,1,-0.02,0.11,-4.73,-3.63,-0.38,-1.74,-81.8,-17.25,-7.46,-3.56,-16.63,-10.44,Standing
43:31.1,721,520,780,978,402,1.54,647.34,1.96,127.48,383,209,20723.75,190,429473920,4294855970,1040,0.99,-0.03,0.12,-3.34,-0.66,-2.11,-2.09,-81.41,-17.61,-7.8,-3.73,-16.99,-10.75,Standing
43:31.3,250,515,772.5,978,401,1.55,644.69,1.96,127.48,383,209,20723.75,190,429473920,4294834115,1249,1,-0.03,0.12,-2.88,-0.82,0.63,-2.46,-81.51,-17.9,-8.16,-3.55,-17.28,-11.1,Standing
43:31.4,475,514,771,978,400,1.56,642.05,1.96,127.48,383,208,20723.75,190,429473920,4294811843,1457,1.01,-0.04,0.11,-2.82,0.66,-1.19,-2.81,-81.99,-18.19,-8.33,-3.6,-17.57,-11.28,Standing
43:31.5,685,517,775.5,978,400,1.56,642.05,1.96,127.48,383,209,20723.75,190,429473920,4294789988,1666,1.02,-0.04,0.12,-2.47,1.23,-1.82,-2.8,-81.56,-18.43,-8.43,-3.73,-17.81,-11.36,Standing
43:31.6,239,512,768,978,400,1.56,642.05,1.96,127.48,383,208,20723.75,190,429473920,4294767716,1874,1,-0.03,0.1,-0.85,-1.12,-1.77,-2.13,-82.73,-18.47,-8.83,-3.86,-17.82,-11.79,Standing
43:31.8,640,514,771,978,399,1.56,639.42,1.95,168.24,399,210,20723.77,208,429474624,0,0,1,-0.03,0.11,-1.94,1.63,-1.45,-2.25,-82.07,-18.64,-8.88,-3.94,-17.99,-11.8,Standing
43:31.9,600,516,774,978,399,1.56,639.42,1.95,168.24,399,208,20723.77,208,429474624,4294945024,208,0.99,-0.02,0.11,-2.48,3.51,-0.67,-1.82,-82.02,-18.88,-8.68,-3.93,-18.2,-11.62,Standing
43:32.0,259,511,766.5,978,398,1.57,636.8,1.95,168.24,399,210,20723.77,208,429474624,4294923588,418,1.01,-0.03,0.12,-3.57,-1.75,1.05,-2.04,-81.66,-19.27,-9.16,-3.69,-18.58,-12.06,Standing
43:32.1,720,515,772.5,978,401,1.55,644.69,1.96,168.24,399,214,20723.77,208,429474624,4294903848,632,1.02,-0.04,0.11,-1.22,0.02,-0.25,-2.87,-81.94,-19.35,-9.41,-3.63,-18.69,-12.31,Standing
43:32.3,503,515,772.5,978,402,1.54,647.34,1.96,168.24,399,211,20723.77,208,429474624,4294882833,843,1.02,-0.05,0.09,-0.44,-0.24,-1.4,-3.39,-82.48,-19.34,-9.7,-3.7,-18.7,-12.61,Standing
43:32.4,292,511,766.5,978,402,1.54,647.34,1.96,168.24,399,212,20723.77,208,429474624,4294862241,1055,1.01,-0.03,0.09,0.04,1.69,-1.17,-2.51,-82.82,-19.26,-9.74,-3.75,-18.59,-12.66,Standing
43:32.5,725,514,771,978,404,1.53,652.67,1.97,168.24,399,216,20723.77,208,429474624,4294843361,1271,1.01,-0.04,0.1,-0.39,3.09,-2.09,-2.58,-82.44,-19.24,-9.6,-3.92,-18.57,-12.51,Standing
43:32.7,362,512,768,978,405,1.53,655.34,1.98,168.24,399,215,20723.77,208,429474624,4294824050,1486,1.01,-0.04,0.11,-1.5,0.02,-1.46,-2.84,-81.92,-19.36,-9.85,-4,-18.7,-12.74,Standing
43:32.8,376,510,765,978,403,1.54,650,1.97,168.24,399,211,20723.77,208,429474624,4294803035,1697,1.01,-0.04,0.11,-2.69,0.23,-1.91,-2.72,-82.02,-19.63,-10.08,-4.14,-18.95,-12.96,Standing
43:32.9,836,515,772.5,978,399,1.56,639.42,1.95,168.24,399,211,20723.77,208,429474624,4294782020,1908,0.98,-0.03,0.1,-7.15,-0.21,-3.6,-2.06,-82.47,-20.47,-10.36,-4.5,-19.73,-13.24,Standing
43:33.0,291,512,768,978,405,1.53,655.34,1.98,131.41,401,218,20723.81,212,429476384,0,0,1.01,-0.05,0.09,-4.46,-4.16,3.73,-3.51,-82.4,-20.96,-11.13,-3.93,-20.26,-13.98,Standing
43:33.2,392,510,765,978,408,1.51,663.41,1.99,131.41,401,220,20723.81,212,429476384,4294950160,220,1.02,-0.05,0.12,0.83,0.24,0.05,-3.53,-81.26,-20.78,-11.36,-3.82,-20.09,-14.15,Standing
43:33.3,782,514,771,978,408,1.51,663.41,1.99,131.41,401,221,20723.81,212,429476384,4294933465,441,1.01,-0.05,0.08,2.31,4.08,-3.76,-3.15,-83.24,-20.42,-11.09,-4.2,-19.73,-13.98,Standing
43:33.4,219,510,765,978,408,1.51,663.41,1.99,131.41,401,220,20723.81,212,429476384,4294916329,661,1,-0.04,0.09,-1.18,0.95,-2.97,-2.78,-82.87,-20.5,-11.23,-4.48,-19.79,-14.09,Standing
43:33.5,506,510,765,978,409,1.5,666.12,2,131.41,401,221,20723.81,212,429476384,4294899634,882,1,-0.03,0.08,-3.64,-2.9,-1.97,-2.52,-83.63,-20.89,-11.85,-4.63,-20.15,-14.72,Standing
43:33.7,656,512,768,978,410,1.5,668.84,2,131.41,401,222,20723.81,212,429476384,4294883382,1104,1.01,-0.03,0.08,-3.69,-1.38,-2.43,-2.51,-83.72,-21.28,-12.28,-4.84,-20.53,-15.14,Standing
43:33.8,251,508,762,978,410,1.5,668.84,2,131.41,401,222,20723.81,212,429476384,4294867130,1326,1.01,-0.03,0.08,-3.04,4.06,-2.28,-2.2,-83.46,-21.6,-12.02,-5.03,-20.83,-14.87,Standing
43:33.9,647,510,765,978,409,1.5,666.12,2,131.41,401,220,20723.81,212,429476384,4294849994,1546,1,-0.02,0.1,-2.73,-0.11,-1.66,-1.7,-82.71,-21.88,-12.28,-5.14,-21.07,-15.1,Standing
43:34.1,424,509,763.5,978,407,1.51,660.71,1.99,131.41,401,220,20723.81,212,429476384,4294832858,1766,1.02,-0.03,0.08,-2.02,0.72,-0.15,-2.22,-83.72,-22.06,-12.45,-5.05,-21.27,-15.3,Standing
43:34.2,326,506,759,978,407,1.51,660.71,1.99,131.41,401,220,20723.81,212,429476384,4294815722,1986,1.02,-0.03,0.1,-3.06,-0.87,-1.94,-2.25,-82.77,-22.38,-12.81,-5.2,-21.58,-15.61,Standing
43:34.3,833,511,766.5,978,408,1.51,663.41,1.99,20723.58,408,220,20723.9,220,429479872,0,0,1.01,-0.03,0.08,-2.43,2.85,-1.76,-2.02,-83.67,-22.62,-12.71,-5.32,-21.79,-15.55,Standing
43:34.4,366,509,763.5,978,407,1.51,660.71,1.99,20723.58,408,220,20723.9,220,429479872,4294950160,220,1,-0.02,0.07,-1.22,1.24,-1.92,-1.47,-84.04,-22.7,-12.8,-5.47,-21.85,-15.65,Standing
43:34.6,359,507,760.5,978,407,1.51,660.71,1.99,20723.58,408,218,20723.9,220,429479872,4294932148,438,1,-0.02,0.09,-2.17,0.05,0.08,-1.79,-83.21,-22.91,-13.05,-5.35,-22.06,-15.86,Standing
43:34.7,735,510,765,978,406,1.52,658.02,1.98,20723.58,408,218,20723.9,220,429479872,4294914136,656,1.01,-0.03,0.07,-1.5,0.21,0.4,-2.14,-84.38,-23.03,-13.28,-5.2,-22.19,-16.12,Standing
43:34.8,226,506,759,978,405,1.53,655.34,1.98,20723.58,408,217,20723.9,220,429479872,4294895689,873,1.02,-0.05,0.09,-2.08,2.69,-0.97,-3.32,-82.87,-23.22,-13.19,-5.23,-22.43,-15.98,Standing
43:34.9,589,507,760.5,978,405,1.53,655.34,1.98,20723.58,408,217,20723.9,220,429479872,4294877242,1090,1.01,-0.03,0.08,-0.86,0.33,-1.6,-2,-83.53,-23.26,-13.4,-5.33,-22.41,-16.21,Standing
43:35.1,531,507,760.5,978,406,1.52,658.02,1.98,20723.58,408,218,20723.9,220,429479872,4294859230,1308,1.02,-0.05,0.09,-0.92,2.12,-1.53,-3.18,-82.75,-23.31,-13.39,-5.42,-22.5,-16.16,Standing
43:35.2,290,505,757.5,978,405,1.53,655.34,1.98,20723.58,408,217,20723.9,220,429479872,4294840783,1525,1,-0.01,0.07,0.64,1.49,-1.34,-1.32,-84.43,-23.15,-13.45,-5.49,-22.28,-16.29,Standing
43:35.3,733,508,762,978,405,1.53,655.34,1.98,20723.58,408,214,20723.9,220,429479872,4294821043,1739,1.04,-0.03,0.09,0.28,6.48,-0.49,-1.99,-83.29,-23.05,-12.88,-5.45,-22.2,-15.7,Standing
43:35.5,318,505,757.5,978,402,1.54,647.34,1.96,20723.58,408,211,20723.9,220,429479872,4294800028,1950,1.01,-0.02,0.08,-1.07,4.2,-7.05,-1.54,-83.75,-23.11,-12.6,-6.26,-22.25,-15.45,Standing
43:35.6,440,505,757.5,978,401,1.55,644.69,1.96,20723.83,404,208,20723.85,215,429477760,0,0,1,-0.01,0.08,-5.6,-2.8,-2.35,-1.29,-83.63,-23.74,-13.2,-6.45,-22.84,-16.02,Standing
43:35.7,804,508,762,978,393,1.6,623.81,1.92,20723.83,404,195,20723.85,215,429477760,4294939785,195,1.02,-0.01,0.11,0.05,8.04,-4.02,-0.89,-82.23,-23.66,-12.43,-6.86,-22.75,-15.22,Standing
43:35.8,270,505,757.5,978,387,1.64,608.49,1.89,20723.83,404,193,20723.85,215,429477760,4294911498,388,0.99,0,0.13,2.11,11.16,-0.94,-0.73,-80.96,-23.32,-11.26,-6.88,-22.42,-14.04,Standing
43:36.0,506,505,757.5,978,385,1.66,603.45,1.88,20723.83,404,192,20723.85,215,429477760,4294882826,580,0.99,-0.01,0.13,-2.98,8.66,-2.43,-1.22,-81.05,-23.63,-10.41,-7.09,-22.73,-13.24,Standing
43:36.1,622,507,760.5,978,385,1.66,603.45,1.88,20723.83,404,196,20723.85,215,429477760,4294855706,776,0.99,-0.02,0.19,-5.15,3.11,4.17,-1.75,-77.66,-24.22,-10.27,-6.46,-23.32,-12.96,Standing
43:36.2,847,510,765,978,395,1.59,628.98,1.93,20723.83,404,211,20723.85,215,429477760,4294834691,987,0.97,-0.03,0.18,-11.21,-3.55,2.87,-2.1,-77.78,-25.57,-10.97,-5.99,-24.63,-13.65,Standing
43:36.3,753,513,769.5,978,400,1.56,642.05,1.96,20723.83,404,212,20723.85,215,429477760,4294814099,1199,1,-0.04,0.19,-4.33,-4.03,3.03,-2.89,-77.26,-26.05,-11.75,-5.5,-25.12,-14.37,Standing
43:36.5,368,511,766.5,978,394,1.6,626.39,1.93,20723.83,404,198,20723.85,215,429477760,4294787767,1397,1,-0.03,0.16,0.55,-5.27,0.29,-2.51,-79.38,-25.91,-12.67,-5.37,-24.97,-15.34,Standing
43:36.6,411,510,765,978,392,1.61,621.24,1.92,20723.83,404,212,20723.85,215,429477760,4294767175,1609,1.04,-0.04,0.14,-7.11,-10.92,0.32,-2.72,-80.63,-26.75,-14.32,-5.22,-25.79,-16.97,Standing
43:36.7,704,512,768,978,400,1.56,642.05,1.96,20723.83,404,216,20723.85,215,429477760,4294748295,1825,1,-0.05,0.07,3.02,0.31,-7.6,-3.26,-83.48,-26.29,-14.54,-6.1,-25.37,-17.3,Standing
43:36.9,278,510,765,978,402,1.54,647.34,1.96,153.78,393,213,20723.73,203,429472800,0,0,0.99,-0.01,0.06,-1.15,-2.34,-4.57,-1.13,-84.87,-26.37,-15.08,-6.57,-25.36,-17.87,Standing
43:37.0,482,510,765,978,402,1.54,647.34,1.96,153.78,393,213,20723.73,203,429472800,4294947129,213,1.01,-0.01,0.09,-5.92,-0.34,-0.45,-1.25,-83.29,-27.05,-15.38,-6.53,-26.01,-18.09,Standing
43:37.1,733,510,765,978,402,1.54,647.34,1.96,153.78,393,214,20723.73,203,429472800,4294927389,427,1.02,-0.02,0.09,-0.31,0.18,-1.7,-1.85,-83.44,-27.01,-15.61,-6.64,-26.01,-18.32,Standing
43:37.2,267,505,757.5,978,402,1.54,647.34,1.96,153.78,393,214,20723.73,203,429472800,4294907649,641,1.01,-0.02,0.1,-2.77,1.42,-5.63,-1.9,-82.53,-27.29,-15.68,-7.26,-26.28,-18.36,Standing
43:37.4,635,507,760.5,978,403,1.54,650,1.97,153.78,393,214,20723.73,203,429472800,4294887909,855,0.99,0,0.09,1.08,5.73,-3.44,-0.71,-83.13,-27.08,-15.21,-7.59,-26.03,-17.93,Standing
43:37.5,495,509,763.5,978,403,1.54,650,1.97,153.78,393,214,20723.73,203,429472800,4294868169,1069,0.99,0,0.1,-5.84,-0.61,-0.57,-0.52,-82.86,-27.76,-15.54,-7.57,-26.67,-18.24,Standing
43:37.6,298,509,763.5,978,403,1.54,650,1.97,153.78,393,215,20723.73,203,429472800,4294848858,1284,0.99,-0.01,0.13,-3.29,0.37,3.04,-1.08,-80.84,-28.1,-15.75,-7.08,-27.02,-18.35,Standing
43:37.7,793,513,769.5,793,403,1.54,650,1.97,153.78,393,214,20723.73,203,429472800,4294829118,1498,1.01,-0.03,0.12,0.33,-1.24,3.6,-2.54,-81.45,-27.99,-16.16,-6.52,-26.97,-18.77,Standing
43:37.9,330,511,766.5,793,403,1.54,650,1.97,153.78,393,214,20723.73,203,429472800,4294809378,1712,1.02,-0.03,0.09,-0.05,2.4,-0.59,-2.48,-83.2,-27.93,-16.11,-6.49,-26.91,-18.8,Standing
43:38.0,390,508,762,793,404,1.53,652.67,1.97,153.78,393,216,20723.73,203,429472800,4294790498,1928,1.01,-0.03,0.07,-1.48,0.37,-0.87,-2.03,-83.94,-28.04,-16.32,-6.5,-27,-19.02,Standing
43:38.1,695,509,763.5,793,405,1.53,655.34,1.98,157.43,403,217,20723.83,214,429477216,0,0,1.01,-0.04,0.1,-3.04,0.64,-0.95,-2.64,-82.38,-28.35,-16.49,-6.52,-27.33,-19.13,Standing
43:38.3,315,509,763.5,793,406,1.52,658.02,1.98,157.43,403,218,20723.83,214,429477216,4294949284,218,1.01,-0.03,0.12,-2.05,3.94,-1.73,-2.07,-81.37,-28.54,-16.24,-6.64,-27.48,-18.85,Standing
43:38.4,481,509,763.5,793,406,1.52,658.02,1.98,157.43,403,216,20723.83,214,429477216,4294930404,434,1.01,-0.02,0.11,1.09,-0.11,-2.45,-1.75,-81.83,-28.33,-16.51,-6.85,-27.27,-19.12,Standing
43:38.5,691,509,763.5,793,405,1.53,655.34,1.98,157.43,403,216,20723.83,214,429477216,4294911524,650,1,-0.01,0.1,0.39,2.59,-3.41,-1.05,-82.63,-28.21,-16.44,-7.19,-27.13,-19.08,Standing
43:38.6,272,509,763.5,793,404,1.53,652.67,1.97,157.43,403,216,20723.83,214,429477216,4294892644,866,0.99,-0.01,0.09,-2.81,0.62,-2,-1.3,-83.11,-28.5,-16.61,-7.34,-27.41,-19.27,Standing
43:38.8,520,510,765,793,405,1.53,655.34,1.98,157.43,403,217,20723.83,214,429477216,4294874197,1083,0.99,-0.01,0.11,-2.5,2.61,0.38,-1.1,-82.05,-28.74,-16.53,-7.19,-27.64,-19.16,Standing
43:38.9,590,509,763.5,793,405,1.53,655.34,1.98,157.43,403,216,20723.83,214,429477216,4294855317,1299,1.01,-0.01,0.11,-1.6,0.21,2.03,-1.36,-82.01,-28.88,-16.76,-6.84,-27.78,-19.37,Standing
43:39.0,348,509,763.5,793,406,1.52,658.02,1.98,157.43,403,216,20723.83,214,429477216,4294836437,1515,1.02,-0.03,0.12,-1.5,-0.34,-0.73,-2.15,-81.49,-29,-17.06,-6.83,-27.92,-19.64,Standing
43:39.1,696,507,760.5,793,405,1.53,655.34,1.98,157.43,403,215,20723.83,214,429477216,4294817126,1730,1.01,-0.03,0.11,-1.22,-0.83,-1.84,-2.04,-82.28,-29.08,-17.42,-6.96,-28,-20.01,Standing
43:44.5,619,619,928.5,619,408,1.51,663.41,1.99,0,0,196,0,0,0,4294914241,395,0.98,0.25,0.14,3.24,5.76,-13.41,13.5,-72.15,0.53,0.73,-2.75,1.05,-2.18,Left Fall while Standing
43:44.6,309,464,696,619,407,1.51,660.71,1.99,0,0,200,0,0,0,4294888705,595,0.98,0.29,0.14,7.27,6.47,-21.05,15.92,-70.14,1.5,1.28,-5.24,2.07,-1.57,Left Fall while Standing
43:44.8,421,449,673.5,619,407,1.51,660.71,1.99,0,0,211,0,0,0,4294867690,806,0.95,0.35,0.13,1.18,2.68,-18.24,19.2,-67.17,1.71,1.37,-7.39,2.41,-1.37,Left Fall while Standing
43:44.9,635,496,744,635,407,1.51,660.71,1.99,0,0,211,0,0,0,4294846675,1017,0.92,0.35,0.16,14.21,7.02,-15.51,20.19,-65.61,3.53,1.99,-9.2,4.19,-0.72,Left Fall while Standing
43:45.0,756,548,822,756,406,1.52,658.02,1.98,0,0,208,0,0,0,4294824403,1225,0.93,0.4,0.09,7.82,5.02,-24.62,22.76,-64.43,4.56,2.36,-12.13,5.29,-0.31,Left Fall while Standing
43:45.1,477,536,804,756,405,1.53,655.34,1.98,0,0,209,0,0,0,4294802548,1434,0.85,0.45,0.12,-3.94,5.31,-12.77,27.29,-59.5,4.14,2.76,-13.6,5.07,0.27,Left Fall while Standing
43:45.3,361,511,766.5,756,405,1.53,655.34,1.98,0,0,206,0,0,0,4294779448,1640,0.86,0.43,0.18,-1.81,3.72,-2.44,25.48,-59.87,3.99,2.98,-13.81,4.85,0.46,Left Fall while Standing
43:45.4,255,479,718.5,756,404,1.53,652.67,1.97,0,0,204,0,0,0,4294755528,1844,0.87,0.47,0.17,-1.96,-0.15,-6.24,27.08,-58.83,3.82,2.71,-14.48,4.75,0.25,Left Fall while Standing
43:45.5,357,465,697.5,756,404,1.53,652.67,1.97,20723.86,406,209,20723.74,205,429473376,0,0,0.85,0.46,0.15,1.76,0.05,-9.35,27.63,-58.64,4.1,2.47,-15.54,5.04,0.02,Left Fall while Standing
43:45.6,670,486,729,756,404,1.53,652.67,1.97,20723.86,406,208,20723.74,205,429473376,4294945024,208,0.85,0.47,0.13,-5.33,0.88,-5.46,28.39,-58.31,3.5,2.33,-16.13,4.5,-0.1,Left Fall while Standing
43:45.7,495,486,729,756,403,1.54,650,1.97,20723.86,406,209,20723.74,205,429473376,4294923169,417,0.84,0.48,0.17,-4.11,-4.41,-2.39,28.66,-57.25,3.05,1.51,-16.33,4.08,-0.84,Left Fall while Standing
43:45.9,329,473,709.5,756,403,1.54,650,1.97,20723.86,406,211,20723.74,205,429473376,4294902154,628,0.85,0.48,0.16,0.2,-1.83,-5.38,28.51,-57.58,3.15,1.03,-16.91,4.16,-1.31,Left Fall while Standing
43:46.0,602,483,724.5,756,403,1.54,650,1.97,20723.86,406,211,20723.74,205,429473376,4294881139,839,0.86,0.5,0.17,11.4,3.95,-5.82,29.17,-56.92,4.65,1.28,-17.54,5.63,-1.05,Left Fall while Standing
43:46.1,588,491,736.5,756,403,1.54,650,1.97,20723.86,406,211,20723.74,205,429473376,4294860124,1050,0.86,0.53,0.1,6.28,7.74,-7.74,30.59,-56.67,5.52,2.01,-18.43,6.53,-0.34,Left Fall while Standing
43:46.3,274,476,714,756,399,1.56,639.42,1.95,20723.86,406,223,20723.74,205,429473376,4294844317,1273,0.82,0.52,0.16,-0.66,5.95,-7.76,31.45,-54.81,5.51,2.5,-19.3,6.55,0.21,Left Fall while Standing
43:46.4,415,472,708,756,393,1.6,623.81,1.92,20723.86,406,190,20723.74,205,429473376,4294814881,1463,0.81,0.57,0.08,6.84,3.29,-0.03,34.36,-53.04,6.45,2.67,-19.21,7.57,0.44,Left Fall while Standing
43:46.5,716,487,730.5,756,392,1.61,621.24,1.92,20723.86,406,268,20723.74,205,429473376,4294821169,1731,0.8,0.54,0.09,-3.24,-7.95,7.3,32.93,-54.38,6.11,1.41,-18.19,7.19,-0.82,Left Fall while Standing
43:46.6,259,474,711,756,394,1.6,626.39,1.93,20723.86,406,260,20723.74,205,429473376,4294823233,1991,0.9,0.47,0.1,-5.33,-20.82,4.78,26.78,-60.38,5.51,-1.46,-17.49,6.36,-3.82,Left Fall while Standing
43:46.8,514,476,714,756,376,1.72,581.14,1.84,163.11,397,231,20723.93,222,429481088,0,0,0.89,0.52,0.16,2.47,-0.67,-11.45,29.64,-56.74,5.89,-1.8,-18.82,6.84,-4,Left Fall while Standing
43:46.9,750,490,735,756,366,1.8,557.08,1.79,163.11,397,231,20723.93,222,429481088,4294955121,231,0.82,0.55,0.12,3.63,6.94,-15.67,33,-53.9,6.42,-1.17,-20.69,7.48,-3.28,Left Fall while Standing
43:47.0,249,478,717,756,364,1.81,552.35,1.78,163.11,397,229,20723.93,222,429481088,4294942026,460,0.78,0.54,0.13,6.06,-0.15,-7.1,33.78,-53.01,7.25,-1.45,-21.49,8.31,-3.51,Left Fall while Standing
43:47.1,411,475,712.5,756,365,1.8,554.71,1.78,163.11,397,230,20723.93,222,429481088,4294929390,690,0.79,0.56,0.09,5.56,-3.15,-4.04,34.72,-52.62,8.03,-2.1,-21.9,9.1,-4.12,Left Fall while Standing
43:47.3,748,487,730.5,756,367,1.79,559.45,1.79,163.11,397,232,20723.93,222,429481088,4294917678,922,0.82,0.58,0.06,0.25,-0.06,-4.2,34.87,-52.77,8.13,-2.36,-22.33,9.2,-4.38,Left Fall while Standing
43:47.4,408,484,726,756,368,1.78,561.83,1.8,163.11,397,232,20723.93,222,429481088,4294905966,1154,0.8,0.56,0.08,-0.67,6.01,-2.29,34.36,-53.1,8.12,-1.86,-22.52,9.17,-3.91,Left Fall while Standing
43:47.5,380,479,718.5,756,369,1.77,564.22,1.8,163.11,397,233,20723.93,222,429481088,4294894719,1387,0.79,0.57,0.11,-0.3,2.18,-1.18,35.13,-51.99,8.15,-1.83,-22.57,9.23,-3.84,Left Fall while Standing
43:47.6,999,499,748.5,999,371,1.76,569.02,1.81,163.11,397,235,20723.93,222,429481088,4294884408,1622,0.81,0.59,0.06,2.77,4.05,1.5,35.19,-52.44,8.57,-1.57,-22.28,9.64,-3.61,Left Fall while Standing
43:47.8,516,500,750,999,371,1.76,569.02,1.81,163.11,397,234,20723.93,222,429481088,4294873628,1856,0.81,0.57,0.08,1.35,4.31,0.8,34.33,-53.12,8.81,-1.29,-22.08,9.83,-3.36,Left Fall while Standing
43:47.9,305,493,739.5,999,371,1.76,569.02,1.81,163.11,397,234,20723.93,222,429481088,4294862848,2090,0.81,0.57,0.1,0.07,1.08,0.91,34.39,-52.85,8.89,-1.4,-21.87,9.91,-3.46,Left Fall while Standing
43:48.0,642,498,747,999,372,1.75,571.43,1.82,68.21,368,234,20724.03,232,429485216,0,0,0.82,0.56,0.08,-0.48,2.03,-1.81,33.34,-54.1,8.9,-1.4,-22,9.88,-3.51,Left Fall while Standing
43:48.1,757,507,760.5,999,373,1.74,573.85,1.82,68.21,368,234,20724.03,232,429485216,4294956516,234,0.81,0.58,0.08,-0.33,5.3,-6.79,34.82,-52.6,8.93,-0.98,-22.75,9.96,-3.05,Left Fall while Standing
43:48.3,272,499,748.5,999,373,1.74,573.85,1.82,68.21,368,235,20724.03,232,429485216,4294946205,469,0.79,0.58,0.08,-0.42,8.81,-8.69,35.85,-51.63,8.95,-0.12,-23.75,10.02,-2.18,Left Fall while Standing
43:48.4,393,496,744,999,374,1.74,576.27,1.83,68.21,368,234,20724.03,232,429485216,4294935425,703,0.74,0.61,0.1,-3.69,4.6,-0.66,38.58,-48.62,8.55,0.2,-23.73,9.75,-1.75,Left Fall while Standing
43:48.5,811,505,757.5,999,374,1.74,576.27,1.83,68.21,368,235,20724.03,232,429485216,4294925114,938,0.79,0.59,0.09,-6.14,2.09,10.81,36.06,-51.31,7.85,0.21,-22.27,8.98,-1.85,Left Fall while Standing
43:48.6,405,502,753,999,375,1.73,578.7,1.83,68.21,368,234,20724.03,232,429485216,4294914334,1172,0.82,0.57,0.14,-6.83,-6.92,8.17,34.09,-52.57,7.06,-0.91,-21.14,8.14,-2.98,Left Fall while Standing
43:48.8,290,496,744,999,375,1.73,578.7,1.83,68.21,368,234,20724.03,232,429485216,4294903554,1406,0.77,0.56,0.13,-7.66,-1.73,12.85,35.24,-51.57,6.16,-1.38,-19.42,7.33,-3.39,Left Fall while Standing
43:48.9,705,502,753,999,376,1.72,581.14,1.84,68.21,368,236,20724.03,232,429485216,4294893714,1642,0.82,0.52,0.11,-16.68,-2.4,25.12,31.85,-55.21,4.12,-1.94,-16.13,5.23,-4.07,Left Fall while Standing
43:49.0,467,501,751.5,999,377,1.71,583.59,1.84,68.21,368,235,20724.03,232,429485216,4294883403,1877,0.91,0.45,0.14,-10.2,-3.47,21.83,25.64,-60.9,2.9,-2.63,-13.28,3.81,-4.96,Left Fall while Standing
43:49.2,363,497,745.5,999,377,1.71,583.59,1.84,68.21,368,234,20724.03,232,429485216,4294872623,2111,0.93,0.4,0.11,-6.98,-5.44,11.92,22.72,-64.24,2.09,-3.57,-11.67,2.91,-6,Left Fall while Standing
43:49.3,694,503,754.5,999,377,1.71,583.59,1.84,98.13,375,234,20724.05,234,429486176,0,0,0.92,0.38,0.1,-9.79,-4.66,6.63,21.75,-65.23,0.94,-4.4,-10.74,1.77,-6.83,Left Fall while Standing
43:49.4,675,507,760.5,999,377,1.71,583.59,1.84,98.13,375,233,20724.05,234,429486176,4294956049,233,0.92,0.37,0.13,-7.05,-2.82,3.4,21.05,-65.44,0.12,-5.01,-10.22,0.96,-7.42,Left Fall while Standing
43:49.5,254,501,751.5,999,376,1.72,581.14,1.84,98.13,375,232,20724.05,234,429486176,4294944337,465,0.9,0.37,0.08,-7.5,-5.85,10.15,21.68,-65.67,-0.75,-6,-8.84,0.15,-8.38,Left Fall while Standing
43:49.7,400,498,747,999,378,1.71,586.05,1.85,98.13,375,234,20724.05,234,429486176,4294933557,699,0.86,0.35,0.07,-17.01,-12.13,35.22,21.62,-65.74,-2.82,-7.78,-4.3,-1.84,-10.1,Left Fall while Standing
43:49.8,761,504,756,999,379,1.7,588.51,1.85,98.13,375,234,20724.05,234,429486176,4294922777,933,0.94,0.19,0.06,-16.67,-12.53,39.47,10.78,-76.51,-4.87,-9.62,0.81,-4.24,-12.3,Left Fall while Standing
43:49.9,248,498,747,999,379,1.7,588.51,1.85,98.13,375,231,20724.05,234,429486176,4294910602,1164,1.08,0.11,0.09,-2.26,-7.61,23.69,5.14,-81.08,-5.08,-10.84,3.92,-4.67,-13.65,Left Fall while Standing
43:50.0,430,497,745.5,999,373,1.74,573.85,1.82,98.13,375,223,20724.05,234,429486176,4294894795,1387,1.03,0.08,0.05,-4.57,1.55,16.5,3.97,-83.02,-5.59,-10.9,6.1,-5.21,-13.78,Left Fall while Standing
43:50.2,701,501,751.5,999,371,1.76,569.02,1.81,98.13,375,223,20724.05,234,429486176,4294878988,1610,0.98,0.07,0.03,-5.31,3.92,9.56,3.26,-84.23,-6.19,-10.66,7.41,-5.81,-13.6,Left Fall while Standing
43:50.3,271,496,744,999,370,1.76,566.62,1.81,98.13,375,220,20724.05,234,429486176,4294861852,1830,1.01,0.05,0.05,-12.92,9.39,15.75,2.02,-84.7,-7.75,-9.72,9.5,-7.36,-12.72,Left Fall while Standing
43:50.4,459,496,744,999,368,1.78,561.83,1.8,98.13,375,221,20724.05,234,429486176,4294845157,2051,1.03,0,0.06,-7.88,9.08,14.08,-0.66,-84.97,-8.67,-8.83,11.37,-8.35,-11.88,Left Fall while Standing
43:50.5,729,500,750,999,368,1.78,561.83,1.8,93.52,373,219,20723.97,227,429482752,0,0,1.03,-0.04,0.1,-5.65,9.11,2.88,-3.05,-82.16,-9.3,-7.95,11.83,-9.05,-10.92,Left Fall while Standing
43:50.7,421,499,748.5,999,367,1.79,559.45,1.79,93.52,373,220,20723.97,227,429482752,4294950160,220,0.99,-0.04,0.1,-7.67,9.32,4.05,-2.87,-82,-10.2,-7.03,12.44,-9.9,-10.03,Left Fall while Standing
43:50.8,325,495,742.5,999,368,1.78,561.83,1.8,93.52,373,221,20723.97,227,429482752,4294933465,441,1,-0.05,0.13,-6.6,2.15,4.36,-3.44,-80.63,-10.97,-7.01,13.09,-10.66,-9.96,Left Fall while Standing
43:50.9,717,500,750,999,369,1.77,564.22,1.8,93.52,373,221,20723.97,227,429482752,4294916770,662,1,-0.05,0.14,-3.1,6.29,-2.34,-3.21,-80.05,-11.29,-6.47,12.89,-10.96,-9.41,Left Fall while Standing
43:51.0,501,500,750,999,370,1.76,566.62,1.81,93.52,373,223,20723.97,227,429482752,4294900963,885,1,-0.06,0.12,-3.75,0.25,-0.89,-3.8,-80.66,-11.69,-6.69,12.88,-11.37,-9.65,Left Fall while Standing
43:51.2,354,497,745.5,999,372,1.75,571.43,1.82,93.52,373,224,20723.97,227,429482752,4294885603,1109,1,-0.04,0.14,-1.07,3.79,-4.4,-2.82,-80.37,-11.76,-6.46,12.42,-11.4,-9.42,Left Fall while Standing
43:51.3,759,502,753,999,373,1.74,573.85,1.82,93.52,373,224,20723.97,227,429482752,4294870243,1333,0.98,-0.06,0.13,-3.45,1.94,-0.38,-3.78,-80.21,-12.12,-6.47,12.47,-11.79,-9.42,Left Fall while Standing
43:51.4,386,500,750,999,374,1.74,576.27,1.83,93.52,373,225,20723.97,227,429482752,4294855332,1558,0.99,-0.07,0.16,-5.99,-2.54,1.85,-4.31,-78.5,-12.81,-7.05,12.81,-12.47,-9.91,Left Fall while Standing
43:51.6,395,498,747,999,377,1.71,583.59,1.84,93.52,373,227,20723.97,227,429482752,4294841325,1785,1,-0.06,0.16,2.76,6.31,-2.57,-3.94,-78.75,-12.39,-6.5,12.58,-12.05,-9.39,Left Fall while Standing
43:51.7,823,503,754.5,999,378,1.71,586.05,1.85,93.52,373,225,20723.97,227,429482752,4294826414,2010,0.99,-0.06,0.16,1.65,-1.15,3.81,-4.18,-78.51,-12.11,-6.9,13.16,-11.79,-9.76,Left Fall while Standing
43:51.8,349,501,751.5,999,377,1.71,583.59,1.84,87.74,372,224,20723.93,223,429481088,0,0,1.01,-0.07,0.15,2.72,0.98,0.83,-4.73,-78.87,-11.7,-7.02,13.37,-11.42,-9.9,Left Fall while Standing
43:51.9,337,498,747,999,377,1.71,583.59,1.84,87.74,372,222,20723.93,223,429481088,4294951044,222,1,-0.05,0.15,3.61,3.6,-3.21,-3.52,-79.15,-11.18,-6.82,13.06,-10.87,-9.72,Left Fall while Standing
43:56.5,519,519,778.5,519,392,1.61,621.24,1.92,0,0,217,0,0,0,4294929538,432,0.87,-0.49,0.05,-2.63,-4.62,6.05,-29.93,-58.91,-0.24,-1.65,1.65,-1.43,-3.94,Right Fall while Standing
43:56.6,785,652,978,785,393,1.6,623.81,1.92,0,0,217,0,0,0,4294911091,649,0.9,-0.51,0.07,-0.43,-5.78,17.88,-30.23,-58.46,-0.23,-2.61,3.95,-1.43,-4.84,Right Fall while Standing
43:56.7,592,632,948,785,396,1.58,631.58,1.94,0,0,219,0,0,0,4294893516,868,0.87,-0.53,0.1,1.8,-6.89,13.5,-32,-56.35,0.07,-3.71,5.72,-1.22,-5.82,Right Fall while Standing
43:56.9,329,556,834,785,395,1.59,628.98,1.93,0,0,218,0,0,0,4294875504,1086,0.85,-0.57,0.07,-3.63,1.37,12.08,-34.65,-54.09,-0.31,-3.79,7.31,-1.68,-5.8,Right Fall while Standing
43:57.0,259,496,744,785,396,1.58,631.58,1.94,0,0,218,0,0,0,4294857492,1304,0.81,-0.61,0.09,-2.83,3.22,11.88,-37.44,-51.07,-0.59,-3.64,8.88,-2.07,-5.53,Right Fall while Standing
43:57.1,451,489,733.5,785,397,1.58,634.19,1.94,0,0,218,0,0,0,4294839480,1522,0.83,-0.6,0.07,-3.44,1.68,7.5,-36.65,-52.07,-0.95,-3.68,9.91,-2.38,-5.61,Right Fall while Standing
43:57.2,655,512,768,785,397,1.58,634.19,1.94,0,0,217,0,0,0,4294821033,1739,0.8,-0.64,0.09,-1.38,2.75,5.65,-39.14,-49.4,-1.05,-3.58,10.7,-2.57,-5.42,Right Fall while Standing
43:57.4,737,540,810,785,396,1.58,631.58,1.94,0,0,217,0,0,0,4294802586,1956,0.78,-0.64,0.09,-0.63,3.06,6.3,-39.88,-48.67,-1.06,-3.45,11.57,-2.61,-5.26,Right Fall while Standing
43:57.5,369,521,781.5,785,396,1.58,631.58,1.94,157.73,394,215,20723.86,217,429478336,0,0,0.78,-0.66,0.08,-6.12,1.15,4.11,-40.73,-47.9,-1.75,-3.56,12.18,-3.31,-5.33,Right Fall while Standing
43:57.6,322,501,751.5,785,397,1.58,634.19,1.94,157.73,394,217,20723.86,217,429478336,4294948849,217,0.76,-0.67,0.1,-4.59,1.5,0.21,-41.63,-46.8,-2.26,-3.62,12.31,-3.84,-5.35,Right Fall while Standing
43:57.7,594,510,765,785,397,1.58,634.19,1.94,157.73,394,216,20723.86,217,429478336,4294929969,433,0.77,-0.68,0.08,-5.4,0.41,2.35,-41.94,-46.73,-2.88,-3.82,12.71,-4.44,-5.54,Right Fall while Standing
43:57.9,661,522,783,785,396,1.58,631.58,1.94,157.73,394,213,20723.86,217,429478336,4294909802,646,0.77,-0.68,0.08,-6.37,0.13,-1.27,-41.99,-46.67,-3.61,-4.06,12.65,-5.14,-5.76,Right Fall while Standing
43:58.0,563,525,787.5,785,393,1.6,623.81,1.92,157.73,394,211,20723.86,217,429478336,4294888787,857,0.76,-0.67,0.11,-4.48,3.65,-2.72,-41.62,-46.75,-4.11,-3.85,12.4,-5.61,-5.57,Right Fall while Standing
43:58.1,644,534,801,785,392,1.61,621.24,1.92,157.73,394,209,20723.86,217,429478336,4294866932,1066,0.76,-0.65,0.05,-3.68,2.65,5.63,-41.02,-47.81,-4.5,-3.77,13.22,-5.96,-5.53,Right Fall while Standing
43:58.2,573,536,804,785,390,1.62,616.11,1.91,157.73,394,208,20723.86,217,429478336,4294844660,1274,0.78,-0.69,0.1,-1.73,8.66,-5.89,-41.96,-46.51,-4.65,-2.93,12.57,-6.14,-4.67,Right Fall while Standing
43:58.4,266,519,778.5,785,390,1.62,616.11,1.91,157.73,394,207,20723.86,217,429478336,4294821973,1481,0.72,-0.67,0.09,-2.32,1.95,-0.5,-43.03,-45.52,-4.87,-2.94,12.61,-6.4,-4.64,Right Fall while Standing
43:58.5,643,527,790.5,785,391,1.62,618.67,1.91,157.73,394,209,20723.86,217,429478336,4294800118,1690,0.78,-0.69,0.1,-0.21,2.89,3.05,-41.88,-46.54,-4.83,-2.82,13.1,-6.31,-4.57,Right Fall while Standing
43:58.6,499,525,787.5,785,391,1.62,618.67,1.91,157.73,394,210,20723.86,217,429478336,4294778682,1900,0.73,-0.69,0.08,0.86,1.45,1.5,-43.95,-44.64,-4.65,-2.89,13.39,-6.22,-4.56,Right Fall while Standing
43:58.7,326,515,772.5,785,391,1.62,618.67,1.91,152.4,392,207,20723.79,210,429475584,0,0,0.75,-0.69,0.11,0.43,2.98,0.02,-42.8,-45.51,-4.53,-2.77,13.49,-6.06,-4.48,Right Fall while Standing
43:58.9,471,512,768,785,391,1.62,618.67,1.91,152.4,392,208,20723.79,210,429475584,4294945024,208,0.71,-0.69,0.11,-1.44,-0.85,6.21,-44.19,-44.1,-4.64,-3.13,14.38,-6.22,-4.77,Right Fall while Standing
43:59.0,654,519,778.5,785,391,1.62,618.67,1.91,152.4,392,207,20723.79,210,429475584,4294922337,415,0.76,-0.71,0.11,-2.42,-5.02,4.1,-43.33,-45.05,-4.87,-4.02,15,-6.41,-5.66,Right Fall while Standing
43:59.1,263,507,760.5,785,391,1.62,618.67,1.91,152.4,392,208,20723.79,210,429475584,4294900065,623,0.71,-0.71,0.08,5.15,2.44,0.09,-45.17,-43.48,-4.15,-3.96,15.11,-5.79,-5.54,Right Fall while Standing
43:59.2,440,505,757.5,785,384,1.66,600.94,1.88,152.4,392,191,20723.79,210,429475584,4294871010,814,0.75,-0.73,0.09,0.9,0.71,-1.6,-44.52,-44.03,-3.96,-4.12,15.01,-5.58,-5.72,Right Fall while Standing
43:59.4,681,512,768,785,378,1.71,586.05,1.85,152.4,392,191,20723.79,210,429475584,4294841955,1005,0.71,-0.72,0.07,-0.11,-1.1,-2.2,-45.7,-43.06,-3.9,-4.51,14.83,-5.58,-6.06,Right Fall while Standing
43:59.5,330,505,757.5,785,376,1.72,581.14,1.84,152.4,392,190,20723.79,210,429475584,4294812519,1195,0.75,-0.72,0.08,-4.45,2.53,-3.63,-44.3,-44.38,-4.4,-4.45,14.47,-5.99,-6.04,Right Fall while Standing
43:59.6,546,506,759,785,377,1.71,583.59,1.84,152.4,392,194,20723.79,210,429475584,4294784619,1389,0.71,-0.72,0.1,-7.43,5.5,2.4,-45.71,-42.79,-5.27,-4,14.87,-6.89,-5.55,Right Fall while Standing
43:59.8,624,510,765,785,380,1.69,590.98,1.86,152.4,392,198,20723.79,210,429475584,4294758287,1587,0.71,-0.73,0.11,-4.26,6.62,1.59,-45.9,-42.37,-5.74,-3.42,15.17,-7.35,-4.97,Right Fall while Standing
43:59.9,294,503,754.5,785,383,1.67,598.44,1.87,152.4,392,200,20723.79,210,429475584,4294732751,1787,0.69,-0.72,0.11,-5.27,0.56,3.84,-46.64,-41.71,-6.33,-3.6,15.76,-7.95,-5.12,Right Fall while Standing
44:00.0,579,505,757.5,785,383,1.67,598.44,1.87,126.31,383,195,20723.67,198,429470528,0,0,0.71,-0.73,0.11,-3.71,2.74,4.59,-46.02,-42.36,-6.73,-3.5,16.43,-8.3,-5.06,Right Fall while Standing
44:00.1,782,515,772.5,785,381,1.69,593.46,1.86,126.31,383,194,20723.67,198,429470528,4294939396,194,0.71,-0.72,0.1,-4.39,-0.65,-1.56,-45.88,-42.58,-7.21,-3.84,16.33,-8.76,-5.39,Right Fall while Standing
44:00.3,256,506,759,785,381,1.69,593.46,1.86,126.31,383,197,20723.67,198,429470528,4294912669,391,0.71,-0.75,0.14,10.94,4.34,-10.46,-46.55,-41.44,-5.75,-3.54,15.1,-7.38,-5.06,Right Fall while Standing
44:00.4,460,505,757.5,785,382,1.68,595.94,1.87,126.31,383,198,20723.67,198,429470528,4294886337,589,0.7,-0.71,0.23,14.3,6.6,-32.05,-44.8,-41.34,-3.88,-2.96,11.17,-5.52,-4.5,Right Fall while Standing
44:00.5,649,509,763.5,785,384,1.66,600.94,1.88,126.31,383,197,20723.67,198,429470528,4294859610,786,0.77,-0.6,0.14,6.96,-6.9,-31.09,-38.06,-49.78,-2.93,-4.09,7.32,-4.33,-5.92,Right Fall while Standing
44:00.6,272,502,753,785,385,1.66,603.45,1.88,126.31,383,200,20723.67,198,429470528,4294834074,986,0.84,-0.58,0.17,-1.6,-16.13,-27.15,-34.9,-52.48,-3.06,-6.38,4,-4.33,-8.22,Right Fall while Standing
44:00.8,520,503,754.5,785,387,1.64,608.49,1.89,126.31,383,200,20723.67,198,429470528,4294808538,1186,0.89,-0.55,0.17,24.35,6.28,-37.21,-31.67,-55.7,0.11,-5.83,-0.63,-1.16,-7.83,Right Fall while Standing
44:00.9,646,507,760.5,785,387,1.64,608.49,1.89,126.31,383,199,20723.67,198,429470528,4294782603,1385,0.84,-0.47,0.11,8.56,4.69,-36.15,-29.87,-58.33,1.27,-5.49,-5.12,0.02,-7.61,Right Fall while Standing
44:01.0,257,500,750,785,387,1.64,608.49,1.89,126.31,383,199,20723.67,198,429470528,4294756668,1584,0.94,-0.38,0.19,-7.73,0.6,-38.45,-22.37,-63.93,0.36,-5.67,-9.87,-0.55,-8,Right Fall while Standing
44:01.2,591,502,753,785,388,1.64,611.02,1.9,126.31,383,200,20723.67,198,429470528,4294731132,1784,0.91,-0.3,0.17,-1.47,3.2,-37.15,-18.38,-67.87,0.25,-5.52,-14.48,-0.5,-8.01,Right Fall while Standing
44:01.3,539,503,754.5,785,388,1.64,611.02,1.9,131,385,199,20723.67,198,429470528,0,0,0.98,-0.23,0.16,-1.08,-1.85,-28.51,-13.72,-72.48,0.18,-6,-17.95,-0.37,-8.66,Right Fall while Standing
44:01.4,315,498,747,785,389,1.63,613.56,1.9,131,385,200,20723.67,198,429470528,4294941760,200,0.92,-0.2,0.22,-2.78,2.05,-24.32,-12.67,-70.28,-0.1,-5.99,-20.94,-0.6,-8.56,Right Fall while Standing
44:01.5,472,498,747,785,389,1.63,613.56,1.9,131,385,200,20723.67,198,429470528,4294916224,400,1.08,-0.15,0.18,-1.36,-2.64,-30.45,-8.26,-76.4,-0.2,-6.58,-24.7,-0.52,-9.37,Right Fall while Standing
44:01.7,637,501,751.5,785,391,1.62,618.67,1.91,131,385,202,20723.67,198,429470528,4294891492,602,0.98,-0.03,0.1,-2.89,4.13,-38.82,-2.05,-82.53,-0.5,-6.31,-29.53,-0.56,-9.36,Right Fall while Standing
44:01.8,287,496,744,785,392,1.61,621.24,1.92,131,385,202,20723.67,198,429470528,4294866760,804,1.14,0.01,-0.09,-17.4,-15.55,-6.61,-0.21,-83.81,-2.64,-8.54,-30.27,-2.54,-11.55,Right Fall while Standing
44:01.9,684,500,750,785,392,1.61,621.24,1.92,131,385,200,20723.67,198,429470528,4294841224,1004,0.98,0.03,0.1,-15.31,-7.67,6.89,0.91,-82.29,-4.53,-9.78,-29.29,-4.31,-12.68,Right Fall while Standing
44:02.0,468,500,750,785,391,1.62,618.67,1.91,131,385,198,20723.67,198,429470528,4294814892,1202,1.01,-0.01,0.15,5.16,17.08,-0.28,-1.36,-80.09,-3.8,-7.86,-29.23,-3.7,-10.75,Right Fall while Standing
44:02.2,347,496,744,785,390,1.62,616.11,1.91,131,385,198,20723.67,198,429470528,4294788560,1400,0.97,-0.02,0.19,-3.16,1.95,2.91,-1.75,-77.4,-4.13,-7.87,-28.76,-4.03,-10.65,Right Fall while Standing
44:02.3,708,501,751.5,785,389,1.63,613.56,1.9,131,385,199,20723.67,198,429470528,4294762625,1599,0.98,-0.04,0.22,-0.9,-1.66,1.66,-2.64,-75.75,-4.17,-8.33,-28.45,-4.11,-11.03,Right Fall while Standing
44:02.4,427,499,748.5,785,391,1.62,618.67,1.91,131,385,200,20723.67,198,429470528,4294737089,1799,1,-0.03,0.17,1.39,0.04,0.53,-2.2,-78.6,-3.92,-8.58,-28.28,-3.86,-11.38,Right Fall while Standing
44:02.5,347,496,744,785,391,1.62,618.67,1.91,146.35,390,199,20723.69,199,429471104,0,0,0.98,-0.04,0.16,0.11,-0.34,3.89,-2.69,-79.15,-3.84,-8.87,-27.7,-3.79,-11.68,Right Fall while Standing
44:02.7,677,500,750,785,392,1.61,621.24,1.92,146.35,390,199,20723.69,199,429471104,4294941361,199,1.01,-0.06,0.13,-0.43,-7.23,3.08,-3.77,-80.5,-3.82,-10.04,-27.21,-3.82,-12.86,Right Fall while Standing
44:02.8,448,499,748.5,785,391,1.62,618.67,1.91,146.35,390,199,20723.69,199,429471104,4294915426,398,1.03,-0.04,0.12,2.31,2.5,-3.05,-2.55,-81.54,-3.46,-9.98,-27.49,-3.42,-12.84,Right Fall while Standing
44:02.9,322,495,742.5,785,392,1.61,621.24,1.92,146.35,390,202,20723.69,199,429471104,4294890694,600,1.01,-0.03,0.12,-0.69,8.37,-4,-2.39,-81.63,-3.48,-9.17,-27.9,-3.43,-12.07,Right Fall while Standing
44:06.0,557,557,835.5,557,396,1.58,631.58,1.94,0,0,199,0,0,0,4294916226,400,0.98,0.01,0.14,-7.34,-18.04,-1.33,0.24,-80.01,-1.6,-5.17,0.37,-1.52,-8.16,Forward Fall while Standing
44:06.1,320,438,657,557,396,1.58,631.58,1.94,0,0,200,0,0,0,4294890690,600,0.99,-0.01,0.06,-1.59,-24,-4.23,-1.1,-84.89,-1.72,-8.36,-0.05,-1.7,-11.43,Forward Fall while Standing
44:06.2,274,383,574.5,557,397,1.58,634.19,1.94,0,0,200,0,0,0,4294865154,800,1.01,-0.02,-0.01,-7.6,-28.92,-1.27,-1.54,-87.15,-2.6,-12.2,-0.11,-2.55,-15.2,Forward Fall while Standing
44:06.3,512,415,622.5,557,394,1.6,626.39,1.93,0,0,184,0,0,0,4294833474,984,0.99,-0.04,-0.04,-16.14,-35.22,1.05,-3.06,-85.04,-4.53,-16.81,0.11,-4.47,-19.54,Forward Fall while Standing
44:06.5,805,493,739.5,805,379,1.7,588.51,1.85,0,0,173,0,0,0,4294863403,1157,1.01,-0.04,-0.13,-10.18,-40.37,6.6,-3,-80.88,-5.73,-22.11,1.04,-5.62,-24.46,Forward Fall while Standing
44:06.6,498,494,741,805,369,1.77,564.22,1.8,0,0,160,0,0,0,4294889003,1317,1.04,-0.06,-0.23,-1.8,-31.66,0.19,-4,-75.44,-5.89,-26.28,1.16,-5.81,-28.25,Forward Fall while Standing
44:06.7,310,468,702,805,365,1.8,554.71,1.78,0,0,171,0,0,0,4294918244,1488,1,-0.06,-0.31,-8.84,-16.15,1.02,-3.7,-70.81,-6.91,-28.53,1.38,-6.78,-30.23,Forward Fall while Standing
44:06.8,849,515,772.5,849,368,1.78,561.83,1.8,0,0,176,0,0,0,4294949220,1664,0.96,-0.08,-0.33,-7.44,-21.27,5.94,-5.14,-69.17,-7.77,-31.44,2.22,-7.67,-32.95,Forward Fall while Standing
44:07.0,642,529,793.5,849,371,1.76,569.02,1.81,125.96,383,171,33.41,183,1115,0,0,0.98,-0.08,-0.41,-9.07,-26.39,5.59,-4.87,-65.4,-8.81,-34.91,3,-8.65,-36.13,Forward Fall while Standing
44:07.1,700,546,819,849,363,1.82,550,1.77,125.96,383,161,33.41,183,1115,25921,161,0.98,-0.07,-0.38,-8.24,-18.22,8.5,-4.55,-66.98,-9.77,-37.43,4.16,-9.56,-38.62,Forward Fall while Standing
44:07.2,330,527,790.5,849,357,1.87,536.04,1.74,125.96,383,159,33.41,183,1115,51202,320,0.94,-0.1,-0.51,-7.05,-25.03,4.27,-6.16,-59.51,-10.58,-40.81,4.8,-10.41,-41.56,Forward Fall while Standing
44:07.3,246,503,754.5,849,360,1.84,542.99,1.76,125.96,383,175,33.41,183,1115,81827,495,0.93,-0.07,-0.48,-5.61,-17.98,0.74,-4.62,-61.04,-11.21,-43.31,4.99,-10.95,-44.02,Forward Fall while Standing
44:07.5,372,493,739.5,849,362,1.83,547.66,1.77,125.96,383,163,33.41,183,1115,108396,658,0.55,-0.18,-0.13,1.47,-8.58,-2.69,-17.84,-66.52,-10.96,-44.64,4.75,-11.23,-45.52,Forward Fall while Standing
44:07.6,964,527,790.5,964,360,1.84,542.99,1.76,125.96,383,172,33.41,183,1115,137980,830,0.92,-0.11,-0.59,-6.75,-4.18,-4.15,-6.25,-55.16,-11.73,-45.42,4.33,-11.51,-45.81,Forward Fall while Standing
44:07.7,391,518,777,964,368,1.78,561.83,1.8,125.96,383,183,33.41,183,1115,105933,1013,0.88,-0.08,-0.61,-14.46,-7.59,-3.63,-4.64,-53.44,-13.48,-46.62,3.97,-13.13,-46.9,Forward Fall while Standing
44:07.8,407,511,766.5,964,379,1.7,588.51,1.85,125.96,383,194,33.41,183,1115,78033,1207,0.86,-0.07,-0.59,-10.07,-10.9,-3.06,-4.18,-53.69,-14.67,-48.24,3.69,-14.25,-48.46,Forward Fall while Standing
44:08.0,998,539,808.5,998,388,1.64,611.02,1.9,125.96,383,201,33.41,183,1115,52898,1408,0.84,-0.05,-0.62,-7.06,-10,-3.34,-3.54,-52.24,-15.49,-49.75,3.37,-15.01,-49.85,Forward Fall while Standing
44:08.1,525,538,807,998,395,1.59,628.98,1.93,125.96,383,198,33.41,183,1115,26566,1606,0.83,-0.05,-0.64,-8.18,-14.32,-2.24,-3.28,-50.58,-16.44,-51.79,3.18,-15.92,-51.74,Forward Fall while Standing
44:08.2,267,524,786,998,386,1.65,605.97,1.89,85.66,371,196,20724.3,180,429496672,0,0,0.83,-0.04,-0.66,-7.66,-4.87,-1.29,-2.98,-50.02,-17.34,-52.66,3.12,-16.76,-52.55,Forward Fall while Standing
44:08.3,499,523,784.5,998,395,1.59,628.98,1.93,85.66,371,208,20724.3,180,429496672,4294945024,208,0.81,-0.04,-0.67,-3.69,4.91,-1.08,-2.57,-48.69,-17.74,-52.29,3.08,-17.13,-52.14,Forward Fall while Standing
44:08.5,653,529,793.5,998,403,1.54,650,1.97,85.66,371,213,20724.3,180,429496672,4294924857,421,0.81,-0.03,-0.67,-1.89,-2.1,2.61,-2.44,-48.9,-17.9,-52.81,3.52,-17.29,-52.65,Forward Fall while Standing
44:08.6,291,518,777,998,408,1.51,663.41,1.99,85.66,371,208,20724.3,180,429496672,4294902585,629,0.81,-0.05,-0.65,-2.69,-1.92,2.91,-3.09,-49.41,-18.18,-53.3,3.99,-17.57,-53.15,Forward Fall while Standing
44:08.7,657,524,786,998,392,1.61,621.24,1.92,85.66,371,189,20724.3,180,429496672,4294872770,818,0.77,-0.03,-0.68,-1.77,-12.66,2.22,-2.15,-47.25,-18.33,-55.17,4.37,-17.68,-54.85,Forward Fall while Standing
44:08.8,528,524,786,998,384,1.66,600.94,1.88,85.66,371,184,20724.3,180,429496672,4294841090,1002,0.79,-0.04,-0.76,-11.14,-20.44,6.68,-2.53,-44.43,-19.68,-58.04,5.32,-19,-57.5,Forward Fall while Standing
44:09.0,340,517,775.5,998,372,1.75,571.43,1.82,85.66,371,174,20724.3,180,429496672,4294871366,1176,0.78,-0.05,-0.74,-4.79,-15.71,4.25,-3.39,-44.79,-20.22,-60.29,5.96,-19.55,-59.67,Forward Fall while Standing
44:09.1,636,521,781.5,998,367,1.79,559.45,1.79,85.66,371,175,20724.3,180,429496672,4294901991,1351,0.71,-0.04,-0.77,-7.85,-22.43,2.95,-2.81,-41.04,-21.15,-63.39,6.44,-20.41,-62.5,Forward Fall while Standing
44:09.2,414,517,775.5,998,366,1.8,557.08,1.79,85.66,371,170,20724.3,180,429496672,4294930891,1521,0.55,-0.01,-0.7,-10.31,-19.39,5.68,-1.14,-36.8,-22.39,-66.13,7.27,-21.54,-64.96,Forward Fall while Standing
44:09.4,436,515,772.5,998,364,1.81,552.35,1.78,85.66,371,172,20724.3,180,429496672,4294960475,1693,0.67,-0.05,-0.86,-6.04,-19.08,11.02,-3.45,-36.21,-23.09,-68.81,8.77,-22.3,-67.5,Forward Fall while Standing
44:09.5,711,521,781.5,998,364,1.81,552.35,1.78,90.43,381,177,49.5,187,2449,0,0,0.63,-0.08,-0.86,0.08,-27.31,10.82,-5,-34.31,-23.01,-72.44,10.21,-22.29,-70.92,Forward Fall while Standing
44:09.6,579,523,784.5,998,364,1.81,552.35,1.78,90.43,381,167,49.5,187,2449,27889,167,0.62,-0.09,-0.88,5.89,-20.79,7.34,-5.54,-33.17,-22.2,-75.29,11.22,-21.54,-73.61,Forward Fall while Standing
44:09.7,294,516,774,998,354,1.89,529.15,1.73,90.43,381,157,49.5,187,2449,52538,324,0.57,-0.12,-0.96,8.53,-24.82,5.96,-6.6,-29.05,-21.07,-78.64,12.07,-20.49,-76.66,Forward Fall while Standing
44:09.9,521,516,774,998,346,1.96,511.08,1.69,90.43,381,150,49.5,187,2449,75038,474,0.51,-0.14,-1.01,2.42,-23.97,2.96,-7.5,-25.24,-20.69,-81.89,12.54,-20.17,-79.62,Forward Fall while Standing
44:10.0,636,520,780,998,344,1.97,506.63,1.68,90.43,381,153,49.5,187,2449,98447,627,0.44,-0.11,-1.02,-2.88,-10.97,0.58,-6.48,-21.75,-20.98,-83.51,12.71,-20.4,-81.04,Forward Fall while Standing
44:10.1,320,514,771,998,345,1.97,508.85,1.69,90.43,381,156,49.5,187,2449,122783,783,0.42,-0.15,-1.01,-4.06,-19.54,3.69,-8.13,-20.79,-21.42,-86.2,13.27,-20.89,-83.59,Forward Fall while Standing
44:10.2,299,508,762,998,346,1.96,511.08,1.69,90.43,381,156,49.5,187,2449,147119,939,0.38,-0.14,-1,-7.18,-12.61,6,-8.01,-19.21,-22.25,-88.03,14.12,-21.68,-85.28,Forward Fall while Standing
44:10.4,661,512,768,998,348,1.94,515.56,1.7,90.43,381,159,49.5,187,2449,172400,1098,0.36,-0.13,-1,-4.28,-13.44,4.5,-7.75,-18.13,-22.72,-89.97,14.79,-22.12,-87.1,Forward Fall while Standing
44:10.5,675,516,774,998,350,1.92,520.06,1.71,90.43,381,163,49.5,187,2449,198969,1261,0.29,-0.14,-1.05,4.33,-17.05,4.05,-8.02,-13.65,-22.1,-92.37,15.4,-21.54,-89.22,Forward Fall while Standing
44:10.6,299,510,765,998,351,1.91,522.32,1.72,90.43,381,163,49.5,187,2449,225538,1424,0.27,-0.16,-1.02,9.51,-10.01,5.04,-9.12,-13.04,-20.84,-93.87,16.12,-20.37,-90.64,Forward Fall while Standing
44:10.7,406,508,762,998,350,1.92,520.06,1.71,20724.09,349,162,158.68,158,25177,0,0,0.3,-0.16,-1.08,-1.7,-16.18,5.83,-8.85,-13.51,-20.99,-96.15,16.95,-20.5,-92.84,Forward Fall while Standing
44:10.9,700,513,769.5,998,352,1.91,524.59,1.72,20724.09,349,168,158.68,158,25177,28224,168,0.24,-0.17,-1.08,-4.96,-15.04,2.59,-9.37,-10.81,-21.54,-98.29,17.38,-21.05,-94.79,Forward Fall while Standing
44:11.0,438,511,766.5,998,351,1.91,522.32,1.72,20724.09,349,163,158.68,158,25177,54793,331,0.2,-0.17,-1.05,-2.8,-4.45,-1.47,-9.66,-9.24,-21.82,-99.11,17.29,-21.34,-95.51,Forward Fall while Standing
44:11.1,228,504,756,998,350,1.92,520.06,1.71,20724.09,349,164,158.68,158,25177,81689,495,0.18,-0.16,-1.06,-0.82,-5.98,-1.46,-9.02,-7.91,-21.86,-100.11,17.21,-21.34,-96.42,Forward Fall while Standing
44:11.2,738,509,763.5,998,367,1.79,559.45,1.79,20724.09,349,198,158.68,158,25177,55357,693,0.17,-0.17,-1.07,1.74,-6.96,-1.15,-9.59,-7.08,-21.57,-101.24,17.16,-21.09,-97.47,Forward Fall while Standing
44:11.4,593,511,766.5,998,384,1.66,600.94,1.88,20724.09,349,197,158.68,158,25177,28630,890,0.15,-0.17,-1.07,-1.1,-8.15,-2.03,-9.56,-6.24,-21.63,-102.52,17.01,-21.15,-98.67,Forward Fall while Standing
44:11.5,288,506,759,998,385,1.66,603.45,1.88,20724.09,349,193,158.68,158,25177,343,1083,0.13,-0.16,-1.06,-7.14,-9.63,-0.06,-9.29,-5.32,-22.46,-103.97,17.1,-21.93,-100.03,Forward Fall while Standing
44:11.6,478,506,759,998,373,1.74,573.85,1.82,20724.09,349,180,158.68,158,25177,32743,1263,0.11,-0.15,-1.05,-3.64,-6.1,-0.88,-8.69,-4.45,-22.85,-105,17.09,-22.28,-100.98,Forward Fall while Standing
44:11.7,661,509,763.5,998,368,1.78,561.83,1.8,20724.09,349,181,158.68,158,25177,65504,1444,0.1,-0.15,-1.08,-0.49,-8.69,-1.92,-8.61,-3.7,-22.84,-106.35,16.94,-22.27,-102.24,Forward Fall while Standing
44:11.9,798,515,772.5,998,367,1.79,559.45,1.79,20724.09,349,181,158.68,158,25177,98265,1625,0.07,-0.16,-1.09,-2.43,-8.83,-1.56,-8.78,-1.97,-23.07,-107.7,16.85,-22.5,-103.47,Forward Fall while Standing
44:12.0,472,514,771,998,364,1.81,552.35,1.78,55.67,366,169,112.61,179,12681,0,0,0.05,-0.15,-1.07,0.16,-1.42,-1.4,-8.48,-1.22,-22.98,-108.13,16.77,-22.4,-103.85,Forward Fall while Standing
44:12.1,695,518,777,998,354,1.89,529.15,1.73,55.67,366,161,112.61,179,12681,25921,161,0.06,-0.17,-1.11,-0.76,6,-1.98,-9.12,-1.56,-23.01,-107.63,16.62,-22.45,-103.38,Forward Fall while Standing
44:12.3,426,516,774,998,352,1.91,524.59,1.72,55.67,366,168,112.61,179,12681,54145,329,0.07,-0.16,-1.08,-2.47,5.98,-1.47,-8.94,-2.19,-23.25,-107.13,16.54,-22.67,-102.93,Forward Fall while Standing
44:12.4,306,512,768,998,359,1.85,540.66,1.75,55.67,366,177,112.61,179,12681,85474,506,0.12,-0.17,-1.07,1.4,13.23,-2.52,-9.29,-4.68,-23,-105.71,16.32,-22.45,-101.67,Forward Fall while Standing
44:12.5,567,513,769.5,998,365,1.8,554.71,1.78,55.67,366,182,112.61,179,12681,53062,688,0.15,-0.18,-1.08,-1.11,12.31,-5.69,-9.87,-6.08,-23.07,-104.42,15.71,-22.54,-100.49,Forward Fall while Standing
44:12.6,687,516,774,998,369,1.77,564.22,1.8,55.67,366,185,112.61,179,12681,21751,873,0.16,-0.16,-1.06,-3.52,14.05,-7.55,-9.29,-6.64,-23.44,-102.91,14.85,-22.87,-99.06,Forward Fall while Standing
44:12.8,336,513,769.5,998,372,1.75,571.43,1.82,55.67,366,188,112.61,179,12681,4294958855,1061,0.17,-0.16,-1.03,2.18,12.98,-5.18,-9.47,-7.82,-23.09,-101.52,14.3,-22.55,-97.78,Forward Fall while Standing
44:12.9,496,513,769.5,998,373,1.74,573.85,1.82,55.67,366,185,112.61,179,12681,4294927544,1246,0.26,-0.19,-1.12,5.08,32.83,-9.71,-10,-11.29,-22.38,-97.61,13.17,-21.88,-94.16,Forward Fall while Standing
44:13.0,637,515,772.5,998,374,1.74,576.27,1.83,55.67,366,185,112.61,179,12681,4294896233,1431,0.34,-0.19,-1.1,5.4,57.29,-7.66,-9.85,-15.16,-21.63,-90.64,12.3,-21.16,-87.62,Forward Fall while Standing
44:13.1,252,510,765,998,373,1.74,573.85,1.82,55.67,366,182,112.61,179,12681,4294863821,1613,0.47,-0.2,-0.98,0.16,72.18,-8.2,-11.17,-23.56,-21.54,-81.73,11.36,-21.12,-79.4,Forward Fall while Standing
44:13.3,310,507,760.5,998,365,1.8,554.71,1.78,51.49,365,165,20724.12,177,429489088,0,0,0.63,-0.17,-0.89,3.82,80.2,-8.69,-9.71,-33.09,-20.99,-71.95,10.38,-20.54,-70.4,Forward Fall while Standing
44:13.4,691,510,765,998,358,1.86,538.35,1.75,51.49,365,166,20724.12,177,429489088,27556,166,0.73,-0.18,-0.75,11.6,91,-12.73,-10.41,-41.64,-19.45,-60.65,8.86,-19.08,-59.89,Forward Fall while Standing
44:13.5,238,505,757.5,998,354,1.89,529.15,1.73,51.49,365,159,20724.12,177,429489088,52837,325,0.86,-0.19,-0.65,8.49,82.74,-9.04,-10.6,-50.48,-18.3,-50.48,7.82,-18,-50.48,Forward Fall while Standing
44:13.6,376,503,754.5,998,350,1.92,520.06,1.71,51.49,365,160,20724.12,177,429489088,78437,485,0.93,-0.19,-0.4,7.6,82.76,-12.11,-11.1,-62.82,-17.27,-40.22,6.38,-17.02,-41.13,Forward Fall while Standing
44:13.8,718,507,760.5,998,355,1.88,531.44,1.74,51.49,365,173,20724.12,177,429489088,108366,658,1.23,-0.2,-0.51,16.01,64.19,-16.12,-9.31,-64.46,-15.18,-32.39,4.45,-14.95,-33.67,Forward Fall while Standing
44:13.9,400,505,757.5,998,364,1.81,552.35,1.78,51.49,365,181,20724.12,177,429489088,141127,839,1.01,-0.13,-0.16,4.76,50.67,-12.89,-7.95,-76.97,-14.51,-26.2,2.91,-14.24,-28.23,Forward Fall while Standing
44:14.0,355,503,754.5,998,371,1.76,569.02,1.81,51.49,365,189,20724.12,177,429489088,111312,1028,1.03,-0.14,0.03,5.01,64.83,-10.98,-8.25,-80.52,-13.8,-18.22,1.62,-13.58,-20.72,Forward Fall while Standing
44:14.1,752,506,759,998,381,1.69,593.46,1.86,51.49,365,196,20724.12,177,429489088,84192,1224,0.98,-0.08,0.09,-14.73,45.63,-12.65,-5.38,-81.52,-15.58,-12.73,0.13,-15.18,-15.48,Forward Fall while Standing
44:14.3,392,505,757.5,998,390,1.62,616.11,1.91,51.49,365,204,20724.12,177,429489088,60272,1428,0.97,-0.1,0.11,-28.43,-6.21,-0.74,-6.7,-79.35,-19.12,-13.77,0.13,-18.63,-16.39,Forward Fall while Standing
44:14.4,440,504,756,998,397,1.58,634.19,1.94,51.49,365,209,20724.12,177,429489088,38417,1637,0.92,-0.09,0.22,-14.33,-29.63,7.38,-6.25,-73.8,-20.86,-17.75,1.16,-20.27,-20,Forward Fall while Standing
44:14.5,725,507,760.5,998,404,1.53,652.67,1.97,89.16,372,215,43.7,185,1909,0,0,0.95,-0.12,0.13,8.18,-6.79,12.02,-7.49,-78.06,-19.78,-18.84,2.74,-19.29,-21.2,Forward Fall while Standing
44:14.6,619,509,763.5,998,408,1.51,663.41,1.99,89.16,372,218,43.7,185,1909,4294949284,218,1.03,-0.17,-0.02,6.46,-6.69,-0.61,-10.13,-78.78,-18.9,-19.93,2.76,-18.55,-22.28,Forward Fall while Standing
44:14.8,282,505,757.5,998,406,1.52,658.02,1.98,89.16,372,208,43.7,185,1909,4294927012,426,1.02,-0.18,0.01,-10.98,-0.7,-3.52,-10.59,-78.38,-20.21,-20.27,2.41,-19.83,-22.59,Forward Fall while Standing
44:14.9,365,503,754.5,998,398,1.57,636.8,1.95,89.16,372,205,43.7,185,1909,4294903501,631,1.02,-0.15,0.03,3.08,18.03,-8.73,-9.04,-79.78,-19.75,-18.25,1.41,-19.33,-20.71,Forward Fall while Standing
44:15.0,754,507,760.5,998,397,1.58,634.19,1.94,89.16,372,207,43.7,185,1909,4294880814,838,0.98,-0.14,0.05,-7.04,-0.15,0.37,-8.96,-79.64,-20.56,-18.52,1.56,-20.1,-20.96,Forward Fall while Standing
44:15.1,359,505,757.5,998,400,1.56,642.05,1.96,89.16,372,211,43.7,185,1909,4294859799,1049,1.04,-0.15,0.07,-8.73,-13.64,1.73,-8.72,-79.31,-21.59,-20.49,1.88,-21.08,-22.84,Forward Fall while Standing
44:15.3,322,502,753,998,403,1.54,650,1.97,89.16,372,214,43.7,185,1909,4294840059,1263,1.01,-0.16,0.04,0.39,6.03,-5.25,-9.39,-79.29,-21.47,-19.98,1.32,-20.99,-22.35,Forward Fall while Standing
44:15.4,689,505,757.5,998,407,1.51,660.71,1.99,89.16,372,217,43.7,185,1909,4294821612,1480,1.02,-0.13,0.05,-2.14,5.35,-5.08,-7.72,-80.69,-21.67,-19.56,0.78,-21.11,-22.01,Forward Fall while Standing
44:15.5,847,509,763.5,998,410,1.5,668.84,2,89.16,372,219,43.7,185,1909,4294804037,1699,1,-0.12,0.07,-3.02,6.42,-7.41,-7.51,-80.3,-21.98,-19.01,-0.05,-21.4,-21.46,Forward Fall while Standing
44:15.6,305,507,760.5,998,412,1.48,674.3,2.01,89.16,372,222,43.7,185,1909,4294787785,1921,0.98,-0.11,0.06,-0.69,1.61,-2.78,-7.06,-80.96,-22,-19.05,-0.31,-21.4,-21.53,Forward Fall while Standing
44:15.8,549,507,760.5,998,414,1.47,679.8,2.02,20724.16,405,221,20723.83,214,429477120,0,0,1.01,-0.1,0.07,-4.22,-1.73,-0.06,-6.49,-81.31,-22.46,-19.53,-0.21,-21.82,-22,Forward Fall while Standing
44:21.3,327,327,490.5,327,424,1.41,707.85,2.07,0,0,208,0,0,0,4294924432,420,0.97,-0.13,0.15,-6.54,-22.26,7.61,-8.01,-76.77,-1.26,-3.02,0.91,-1.53,-5.97,Sitting
44:21.5,543,435,652.5,543,424,1.41,707.85,2.07,0,0,208,0,0,0,4294902160,628,1.01,-0.12,0.12,8.74,-15.68,1.89,-7.54,-78.89,-0.12,-5.2,1.24,-0.41,-8.15,Sitting
44:21.6,812,560,840,812,424,1.41,707.85,2.07,0,0,209,0,0,0,4294880305,837,0.97,-0.23,0.12,-0.79,-3.66,9.4,-14.02,-73.3,-0.15,-5.9,2.51,-0.7,-8.6,Sitting
44:21.7,562,561,841.5,812,423,1.42,705,2.07,0,0,210,0,0,0,4294858869,1047,1,-0.13,0.07,5.68,4.64,-0.02,-8.01,-80,0.62,-5.58,2.6,0.28,-8.55,Sitting
44:21.8,362,521,781.5,812,423,1.42,705,2.07,0,0,206,0,0,0,4294835769,1253,0.98,-0.13,0,0.32,1.6,2.89,-8.33,-80.66,0.73,-5.63,3.05,0.37,-8.63,Sitting
44:21.9,623,538,807,812,423,1.42,705,2.07,0,0,208,0,0,0,4294813497,1461,0.96,-0.23,0.03,-10.33,-14.46,12.61,-14.08,-74.76,-0.47,-7.65,4.7,-1.02,-10.33,Sitting
44:22.1,400,518,777,812,422,1.42,702.16,2.06,0,0,208,0,0,0,4294791225,1669,1,-0.16,0.03,13.27,17.71,-3.29,-9.35,-79.45,1.26,-5.69,4.39,0.83,-8.64,Sitting
44:22.2,656,535,802.5,812,422,1.42,702.16,2.06,0,0,208,0,0,0,4294768953,1877,0.99,-0.19,0.04,-4.05,0.34,1.56,-11.73,-77.03,0.83,-5.89,4.68,0.33,-8.73,Sitting
44:22.3,746,559,838.5,812,421,1.43,699.34,2.06,20723.88,423,218,20723.78,209,429475104,0,0,1.02,-0.17,0.02,-16.9,-7.07,2.08,-9.99,-78.95,-1.21,-7.02,5.04,-1.56,-9.9,Sitting
44:22.4,444,547,820.5,812,421,1.43,699.34,2.06,20723.88,423,220,20723.78,209,429475104,4294950160,220,1.01,-0.2,0.01,-6.43,-2.56,-1.64,-11.6,-77.38,-1.96,-7.6,4.93,-2.34,-10.39,Sitting
44:22.6,213,517,775.5,812,420,1.44,696.52,2.05,20723.88,423,226,20723.78,209,429475104,4294935700,446,1.03,-0.16,-0.02,-4.63,5.57,-4.26,-9.68,-79.25,-2.47,-7.15,4.49,-2.76,-10.03,Sitting
44:22.7,813,541,811.5,813,420,1.44,696.52,2.05,20723.88,423,228,20723.78,209,429475104,4294922148,674,0.98,-0.18,0.05,-4.6,0.57,-2.18,-11.15,-77.52,-2.99,-7.33,4.31,-3.31,-10.14,Sitting
44:22.8,302,523,784.5,813,420,1.44,696.52,2.05,20723.88,423,227,20723.78,209,429475104,4294908141,901,1.02,-0.18,0.02,3.21,-0.49,-2.68,-10.53,-78.4,-2.51,-7.65,4.07,-2.83,-10.48,Sitting
44:23.0,410,515,772.5,813,420,1.44,696.52,2.05,20723.88,423,233,20723.78,209,429475104,4294896894,1134,1.02,-0.16,-0.04,2.47,-2.2,1.21,-9.39,-79.26,-2.12,-8.18,4.32,-2.41,-11.02,Sitting
44:23.1,733,529,793.5,813,420,1.44,696.52,2.05,20723.88,423,234,20723.78,209,429475104,4294886114,1368,1.01,-0.17,-0.02,-6.89,-5.65,-2.44,-10.26,-78.68,-2.93,-9.15,4.11,-3.22,-11.93,Sitting
44:23.2,255,512,768,813,420,1.44,696.52,2.05,20723.88,423,237,20723.78,209,429475104,4294876747,1605,1.02,-0.16,0.01,0.58,4.3,-5.52,-9.72,-79.28,-2.78,-8.86,3.51,-3.06,-11.68,Sitting
44:23.3,601,517,775.5,813,421,1.43,699.34,2.06,20723.88,423,236,20723.78,209,429475104,4294866907,1841,1.01,-0.15,0,2.69,6.33,-4.27,-9.11,-79.89,-2.37,-8.31,3.07,-2.64,-11.17,Sitting
44:23.5,644,524,786,813,421,1.43,699.34,2.06,20723.88,423,239,20723.78,209,429475104,4294858492,2080,1.03,-0.14,-0.02,-1.92,1.31,-1.61,-8.38,-80.54,-2.54,-8.4,2.97,-2.77,-11.28,Sitting
44:23.6,262,510,765,813,421,1.43,699.34,2.06,20723.83,420,237,20724.02,231,429484896,0,0,0.98,-0.16,0.03,-2.89,4.76,-2.65,-10,-78.8,-2.83,-8.05,2.74,-3.12,-10.88,Sitting
44:23.7,476,509,763.5,813,421,1.43,699.34,2.06,20723.83,420,237,20724.02,231,429484896,4294957929,237,1.02,-0.14,0.02,-0.18,0.1,-1.85,-8.53,-80.42,-2.78,-8.29,2.6,-3.01,-11.18,Sitting
44:23.8,684,517,775.5,813,421,1.43,699.34,2.06,20723.83,420,240,20724.02,231,429484896,4294949993,477,0.99,-0.14,-0.02,-2.32,-3.59,-0.37,-8.69,-80.25,-3.01,-9,2.65,-3.23,-11.85,Sitting
44:24.0,367,510,765,813,422,1.42,702.16,2.06,20723.83,420,238,20724.02,231,429484896,4294941101,715,1.01,-0.17,0.02,-2.59,-4.47,3.31,-10.06,-78.89,-3.26,-9.82,3.17,-3.53,-12.59,Sitting
44:24.1,553,512,768,813,422,1.42,702.16,2.06,20723.83,420,240,20724.02,231,429484896,4294933165,955,1.02,-0.16,-0.01,-0.4,2.31,-2.96,-9.64,-79.32,-3.24,-9.79,2.9,-3.5,-12.57,Sitting
44:24.2,570,514,771,813,423,1.42,705,2.07,20723.83,420,241,20724.02,231,429484896,4294925710,1196,1.01,-0.15,-0.03,-2.53,2.53,-2.76,-8.79,-80.04,-3.5,-9.72,2.65,-3.71,-12.53,Sitting
44:24.3,280,505,757.5,813,423,1.42,705,2.07,20723.83,420,239,20724.02,231,429484896,4294917295,1435,1.01,-0.15,0.01,-4.93,2.84,-1.16,-8.74,-80.25,-4.05,-9.61,2.6,-4.24,-12.44,Sitting
44:24.5,664,511,766.5,813,424,1.41,707.85,2.07,20723.83,420,235,20724.02,231,429484896,4294906984,1670,1.01,-0.15,0.01,-1.78,3.85,-1.95,-9.22,-79.77,-4.21,-9.38,2.45,-4.41,-12.19,Sitting
44:24.6,551,513,769.5,813,424,1.41,707.85,2.07,20723.83,420,236,20724.02,231,429484896,4294897144,1906,1.01,-0.15,0,-3.08,-0.08,-0.23,-9.04,-79.96,-4.53,-9.64,2.52,-4.71,-12.45,Sitting
44:24.7,314,505,757.5,813,424,1.41,707.85,2.07,20723.83,420,231,20724.02,231,429484896,4294884969,2137,1.02,-0.14,-0.02,-2.94,6.64,-3.69,-8.45,-80.51,-4.83,-9.05,2.16,-4.97,-11.91,Sitting
44:24.9,747,514,771,813,424,1.41,707.85,2.07,20723.87,422,230,20724.08,236,429487232,0,0,1.02,-0.14,0.02,-4.03,1.2,0.11,-8.48,-80.44,-5.26,-9.15,2.27,-5.39,-12,Sitting
44:25.0,536,515,772.5,813,424,1.41,707.85,2.07,20723.87,422,230,20724.08,236,429487232,4294954660,230,1.03,-0.15,0.01,-3.25,1.82,-5.21,-8.78,-80.21,-5.6,-9.18,1.71,-5.73,-12.02,Sitting
44:25.1,677,520,780,813,424,1.41,707.85,2.07,20723.87,422,230,20724.08,236,429487232,4294942024,460,0.98,-0.13,0.01,-2.53,0.74,-1.65,-8.03,-80.95,-5.85,-9.34,1.6,-5.94,-12.2,Sitting
44:25.2,736,526,789,813,424,1.41,707.85,2.07,20723.87,422,232,20724.08,236,429487232,4294930312,692,1.02,-0.14,0.02,-1.9,0.6,2.89,-8.69,-80.25,-6.02,-9.51,2.07,-6.13,-12.34,Sitting
44:25.4,429,524,786,813,424,1.41,707.85,2.07,20723.87,422,231,20724.08,236,429487232,4294918137,923,1.02,-0.15,0.01,-2.65,-1.89,-2.82,-8.78,-80.2,-6.29,-10,1.81,-6.39,-12.81,Sitting
44:25.5,311,517,775.5,813,423,1.42,705,2.07,20723.87,422,227,20724.08,236,429487232,4294904130,1150,1,-0.13,0.01,-3.63,-1.82,0.32,-8.21,-80.76,-6.68,-10.49,1.95,-6.74,-13.3,Sitting
44:25.6,733,523,784.5,813,424,1.41,707.85,2.07,20723.87,422,221,20724.08,236,429487232,4294887435,1371,1.01,-0.15,0,-3.02,-1.09,1.69,-9.25,-79.75,-6.99,-10.88,2.27,-7.08,-13.64,Sitting
44:25.7,274,516,774,813,423,1.42,705,2.07,20723.87,422,225,20724.08,236,429487232,4294872524,1596,1.01,-0.15,-0.02,-2.82,1,-1.78,-9.08,-79.85,-7.28,-11.01,2.14,-7.35,-13.76,Sitting
44:25.9,466,515,772.5,813,424,1.41,707.85,2.07,20723.87,422,221,20724.08,236,429487232,4294855829,1817,1.01,-0.14,0,-0.15,0.69,-0.45,-8.56,-80.44,-7.23,-11.18,2.18,-7.28,-13.95,Sitting
44:26.0,646,519,778.5,813,423,1.42,705,2.07,20723.87,422,218,20724.08,236,429487232,4294837817,2035,1.01,-0.14,-0.02,-1.69,0.47,-1.34,-8.37,-80.55,-7.37,-11.37,2.11,-7.41,-14.14,Sitting
44:26.1,249,512,768,813,423,1.42,705,2.07,20723.89,423,218,20723.95,225,429481984,0,0,1.02,-0.15,-0.01,-3.19,-0.17,0.34,-9.11,-79.86,-7.7,-11.64,2.25,-7.76,-14.37,Sitting
44:26.3,462,510,765,813,422,1.42,702.16,2.06,20723.89,423,215,20723.95,225,429481984,4294947985,215,1.02,-0.15,0,-2.89,1.72,-2.7,-9.01,-79.99,-8,-11.68,2.01,-8.04,-14.41,Sitting
44:26.4,666,514,771,813,422,1.42,702.16,2.06,20723.89,423,222,20723.95,225,429481984,4294931733,437,1.01,-0.15,-0.01,-2.23,-4.16,1.09,-8.82,-80.17,-8.21,-12.46,2.25,-8.23,-15.16,Sitting
44:26.5,353,510,765,813,421,1.43,699.34,2.06,20723.89,423,217,20723.95,225,429481984,4294913286,654,1.02,-0.15,-0.02,-1,0.48,0.23,-8.97,-79.97,-8.26,-12.65,2.38,-8.29,-15.34,Sitting
44:26.6,563,511,766.5,813,420,1.44,696.52,2.05,20723.89,423,221,20723.95,225,429481984,4294896591,875,1.01,-0.15,-0.03,-1,-2.17,-0.15,-9.17,-79.61,-8.32,-13.18,2.46,-8.35,-15.84,Sitting
44:26.8,549,512,768,813,420,1.44,696.52,2.05,20723.89,423,221,20723.95,225,429481984,4294879896,1096,1.01,-0.16,-0.03,-2.47,-1.77,0.19,-9.47,-79.31,-8.56,-13.66,2.59,-8.6,-16.29,Sitting
44:26.9,324,508,762,813,420,1.44,696.52,2.05,20723.89,423,222,20723.95,225,429481984,4294863644,1318,1.01,-0.16,-0.05,-2.5,0.74,-0.44,-9.68,-78.97,-8.81,-13.82,2.63,-8.84,-16.43,Sitting
44:27.0,998,519,778.5,998,420,1.44,696.52,2.05,20723.89,423,225,20723.95,225,429481984,4294848733,1543,1.01,-0.17,-0.02,-1.24,0.75,-1.69,-9.98,-78.93,-8.9,-13.98,2.51,-8.94,-16.58,Sitting
44:27.1,422,517,775.5,998,419,1.44,693.71,2.05,20723.89,423,223,20723.95,225,429481984,4294832926,1766,1.01,-0.16,-0.03,-1.15,1.34,-1.89,-9.49,-79.34,-8.97,-14.06,2.38,-8.99,-16.67,Sitting
44:27.3,364,514,771,998,420,1.44,696.52,2.05,20723.89,423,221,20723.95,225,429481984,4294816231,1987,1.02,-0.16,-0.05,-3.53,0.98,-0.16,-9.28,-79.27,-9.35,-14.19,2.46,-9.35,-16.8,Sitting
44:27.4,713,518,777,998,420,1.44,696.52,2.05,20723.83,420,221,20723.9,220,429479936,0,0,1.02,-0.17,-0.03,-4.28,-0.54,-0.15,-10.07,-78.78,-9.82,-14.51,2.54,-9.83,-17.08,Sitting
44:27.5,345,514,771,998,420,1.44,696.52,2.05,20723.83,420,227,20723.9,220,429479936,4294953289,227,1.01,-0.19,0.01,1.31,-0.5,-4.85,-11.32,-77.67,-9.58,-14.83,2.02,-9.65,-17.34,Sitting
44:27.6,379,511,766.5,998,419,1.44,693.71,2.05,20723.83,420,224,20723.9,220,429479936,4294937929,451,0.98,-0.14,-0.06,-2.11,0.91,-2.62,-8.54,-79.74,-9.78,-14.97,1.79,-9.73,-17.56,Sitting
44:27.8,753,516,774,998,419,1.44,693.71,2.05,20723.83,420,226,20723.9,220,429479936,4294923469,677,1.01,-0.16,-0.04,-3.56,5.53,1.31,-9.52,-79.18,-10.16,-14.52,2.05,-10.13,-17.11,Sitting
44:27.9,341,513,769.5,998,420,1.44,696.52,2.05,20723.83,420,225,20723.9,220,429479936,4294908558,902,1.02,-0.17,-0.01,-2.5,2.18,-1.99,-9.84,-79.16,-10.41,-14.5,1.9,-10.38,-17.09,Sitting
44:28.0,570,514,771,998,419,1.44,693.71,2.05,20723.83,420,234,20723.9,220,429479936,4294897778,1136,0.99,-0.15,-0.01,0.27,0.25,-2.1,-9.25,-79.73,-10.3,-14.72,1.73,-10.26,-17.32,Sitting
44:28.2,543,514,771,998,420,1.44,696.52,2.05,20723.83,420,233,20723.9,220,429479936,4294886531,1369,1.01,-0.15,-0.04,-0.81,0.75,1.62,-9.23,-79.44,-10.33,-14.88,2.04,-10.29,-17.46,Sitting
44:28.3,271,510,765,998,420,1.44,696.52,2.05,20723.83,420,232,20723.9,220,429479936,4294874819,1601,1.02,-0.17,-0.03,-1.42,2.7,0.32,-9.9,-78.9,-10.44,-14.79,2.18,-10.42,-17.36,Sitting
44:28.4,748,514,771,998,421,1.43,699.34,2.06,20723.83,420,212,20723.9,220,429479936,4294854227,1813,1.02,-0.16,-0.01,-2.05,1.37,-3.53,-9.46,-79.51,-10.63,-14.87,1.83,-10.58,-17.46,Sitting
44:28.5,405,512,768,998,421,1.43,699.34,2.06,20723.83,420,214,20723.9,220,429479936,4294834487,2027,1,-0.16,-0.02,-2.82,-0.2,-1.17,-9.44,-79.45,-10.92,-15.15,1.79,-10.86,-17.73,Sitting
44:28.7,458,511,766.5,998,421,1.43,699.34,2.06,20723.82,420,216,20723.94,224,429481568,0,0,1.01,-0.16,-0.02,-1.95,1.23,-1.31,-9.54,-79.37,-11.09,-15.25,1.72,-11.03,-17.82,Sitting
44:28.8,746,515,772.5,998,421,1.43,699.34,2.06,20723.82,420,219,20723.94,224,429481568,4294949721,219,1.01,-0.16,-0.02,-1.76,0.13,-0.34,-9.62,-79.29,-11.25,-15.49,1.78,-11.18,-18.04,Sitting
44:28.9,367,513,769.5,998,420,1.44,696.52,2.05,20723.82,420,224,20723.94,224,429481568,4294934361,443,1.01,-0.17,-0.03,-2.3,-0.06,-1.4,-9.92,-78.89,-11.47,-15.75,1.7,-11.41,-18.28,Sitting
44:29.0,563,514,771,998,419,1.44,693.71,2.05,20723.82,420,225,20723.94,224,429481568,4294919450,668,1,-0.16,-0.02,-1.32,0.74,-1.18,-9.77,-79.13,-11.57,-15.91,1.65,-11.49,-18.44,Sitting
44:29.2,594,515,772.5,998,419,1.44,693.71,2.05,20723.82,420,227,20723.94,224,429481568,4294905443,895,1.01,-0.17,-0.03,-2.21,0.52,-0.63,-10.1,-78.76,-11.77,-16.1,1.67,-11.71,-18.61,Sitting
44:29.3,290,511,766.5,998,420,1.44,696.52,2.05,20723.82,420,226,20723.94,224,429481568,4294890983,1121,1,-0.16,-0.02,-0.4,2.94,-1.44,-9.5,-79.41,-11.76,-15.98,1.59,-11.66,-18.52,Sitting
44:29.4,737,515,772.5,998,420,1.44,696.52,2.05,20723.82,420,214,20723.94,224,429481568,4294871243,1335,1.02,-0.16,-0.01,-1.42,1.09,-0.98,-9.59,-79.38,-11.87,-16.1,1.56,-11.77,-18.63,Sitting
44:29.6,466,514,771,998,420,1.44,696.52,2.05,20723.82,420,218,20723.94,224,429481568,4294853231,1553,1.01,-0.15,-0.03,-2.08,2.08,-1.48,-9.17,-79.71,-12.06,-16.09,1.47,-11.94,-18.63,Sitting
44:29.7,476,513,769.5,998,420,1.44,696.52,2.05,20723.82,420,219,20723.94,224,429481568,4294835656,1772,1.01,-0.16,-0.03,-3.09,1.18,-1.1,-9.63,-79.24,-12.38,-16.19,1.43,-12.27,-18.72,Sitting
44:29.8,672,516,774,998,420,1.44,696.52,2.05,20723.82,420,223,20723.94,224,429481568,4294819849,1995,1.01,-0.15,-0.02,-1.07,2.91,-0.96,-9.24,-79.7,-12.45,-16.08,1.41,-12.32,-18.62,Sitting
44:29.9,258,512,768,998,419,1.44,693.71,2.05,20723.81,419,220,20723.91,221,429480256,0,0,1.01,-0.17,-0.01,-2.33,-2.11,1.07,-9.9,-79.08,-12.67,-16.59,1.65,-12.56,-19.09,Sitting
44:30.1,550,513,769.5,998,419,1.44,693.71,2.05,20723.81,419,224,20723.91,221,429480256,4294951936,224,1.01,-0.17,-0.04,-1.7,0.28,-1.8,-10.02,-78.77,-12.82,-16.81,1.52,-12.7,-19.29,Sitting
44:30.2,525,513,769.5,998,419,1.44,693.71,2.05,20723.81,419,232,20723.91,221,429480256,4294940224,456,1.01,-0.16,-0.03,-1.56,2.24,-1.06,-9.46,-79.35,-12.94,-16.78,1.48,-12.8,-19.28,Sitting
44:30.3,315,510,765,998,419,1.44,693.71,2.05,20723.81,419,229,20723.91,221,429480256,4294927129,685,1.02,-0.17,-0.01,-0.82,2.63,-0.63,-10.14,-78.84,-12.98,-16.7,1.5,-12.86,-19.19,Sitting
44:30.4,796,514,771,998,419,1.44,693.71,2.05,20723.81,419,231,20723.91,221,429480256,4294914954,916,1.01,-0.16,-0.02,-3.24,0.32,-2.56,-9.72,-79.21,-13.32,-16.92,1.27,-13.18,-19.41,Sitting
44:30.6,320,511,766.5,998,419,1.44,693.71,2.05,20723.81,419,234,20723.91,221,429480256,4294904174,1150,1,-0.15,-0.01,-1.91,-0.11,-1.05,-9.39,-79.59,-13.49,-17.19,1.24,-13.33,-19.68,Sitting
44:30.7,448,510,765,998,420,1.44,696.52,2.05,20723.81,419,234,20723.91,221,429480256,4294893394,1384,1.01,-0.16,-0.04,-4.16,-0.72,-0.45,-9.64,-79.11,-13.95,-17.53,1.28,-13.78,-20,Sitting
44:30.8,592,512,768,998,420,1.44,696.52,2.05,20723.81,419,240,20723.91,221,429480256,4294885458,1624,1.01,-0.16,-0.02,-1.69,1.15,-1.2,-9.87,-79.08,-14.09,-17.64,1.23,-13.93,-20.1,Sitting
44:31.0,284,509,763.5,998,420,1.44,696.52,2.05,20723.81,419,240,20723.91,221,429480256,4294877522,1864,1.01,-0.17,-0.03,-1.47,1.31,-0.99,-9.99,-78.83,-14.21,-17.73,1.2,-14.04,-20.17,Sitting
44:31.1,816,512,768,998,421,1.43,699.34,2.06,20723.81,419,242,20723.91,221,429480256,4294870550,2106,1.02,-0.17,-0.01,-1.38,1.88,-1.43,-10.03,-78.96,-14.32,-17.75,1.12,-14.15,-20.19,Sitting
44:31.2,343,510,765,998,421,1.43,699.34,2.06,20723.81,419,243,20724.05,234,429486400,0,0,1.01,-0.16,-0.02,-3.41,0.89,-1.73,-9.44,-79.46,-14.67,-17.88,1.01,-14.46,-20.35,Sitting
44:31.3,316,508,762,998,421,1.43,699.34,2.06,20723.81,419,243,20724.05,234,429486400,4294960809,243,1.02,-0.16,-0.02,-3.23,2.17,-0.02,-9.56,-79.4,-15.02,-17.86,1.1,-14.8,-20.32,Sitting
44:31.5,751,511,766.5,998,421,1.43,699.34,2.06,20723.81,419,242,20724.05,234,429486400,4294953837,485,1.01,-0.16,-0.03,-2.32,1.09,-3.31,-9.78,-79.1,-15.24,-17.98,0.78,-15.02,-20.42,Sitting
44:31.6,316,509,763.5,998,422,1.42,702.16,2.06,20723.81,419,243,20724.05,234,429486400,4294947350,728,1,-0.15,-0.02,-1.91,2.1,-1.49,-9.05,-79.89,-15.41,-17.97,0.69,-15.16,-20.44,Sitting
44:31.7,584,509,763.5,998,422,1.42,702.16,2.06,20723.81,419,242,20724.05,234,429486400,4294940378,970,1.02,-0.16,-0.01,-0.84,-0.21,-0.2,-9.24,-79.76,-15.45,-18.25,0.77,-15.2,-20.71,Sitting
44:31.9,615,511,766.5,998,423,1.42,705,2.07,20723.81,419,241,20724.05,234,429486400,4294932923,1211,1,-0.16,-0.02,-1.59,-0.76,-1.54,-9.65,-79.3,-15.58,-18.6,0.67,-15.34,-21.03,Sitting
44:32.0,283,508,762,998,423,1.42,705,2.07,20723.81,419,241,20724.05,234,429486400,4294925468,1452,1.01,-0.17,-0.01,-1.43,-0.08,0.33,-10.03,-78.96,-15.69,-18.87,0.82,-15.46,-21.27,Sitting
44:32.1,666,510,765,998,423,1.42,705,2.07,20723.81,419,237,20724.05,234,429486400,4294916101,1689,1.02,-0.17,-0.01,-1.83,-0.05,-2.34,-9.92,-79.07,-15.85,-19.13,0.62,-15.61,-21.53,Sitting
44:32.2,326,508,762,998,423,1.42,705,2.07,20723.81,419,237,20724.05,234,429486400,4294906734,1926,1,-0.16,-0.04,-1.85,0.42,-1.44,-9.38,-79.36,-16.02,-19.33,0.54,-15.75,-21.73,Sitting
44:32.4,477,507,760.5,998,423,1.42,705,2.07,20723.81,419,233,20724.05,234,429486400,4294895487,2159,1.02,-0.16,-0.02,-1.31,2.05,-0.42,-9.48,-79.48,-16.11,-19.32,0.58,-15.85,-21.73,Sitting
44:40.1,315,315,472.5,315,356,1.87,533.73,1.74,0,0,213,0,0,0,4294924029,419,1.06,-0.11,0.03,11.8,12.93,-12.73,-6.37,-82.44,1.28,1.29,-1.98,0.97,-2.06,Left Fall while Sitting
44:40.2,385,350,525,385,356,1.87,533.73,1.74,0,0,231,0,0,0,4294911854,650,1.03,0,0.07,3.46,30.47,-13.93,-0.69,-84.53,1.77,4.79,-3.6,1.67,1.22,Left Fall while Sitting
44:40.3,581,427,640.5,581,358,1.86,538.35,1.75,0,0,231,0,0,0,4294899679,881,1,-0.02,0.16,12.49,8.16,-8.41,-1.95,-79.38,3.38,5.55,-4.54,3.17,2.15,Left Fall while Sitting
44:40.4,783,516,774,783,360,1.84,542.99,1.76,0,0,236,0,0,0,4294889839,1117,1,0.03,0.1,11.75,-6.79,-10.4,1.05,-82.71,4.89,4.47,-5.72,4.74,0.98,Left Fall while Sitting
44:40.5,811,575,862.5,811,362,1.83,547.66,1.77,0,0,247,0,0,0,4294885312,1364,0.99,0.04,0.04,5.86,7.33,-19.93,1.86,-84.99,5.68,5.12,-8.07,5.53,1.52,Left Fall while Sitting
44:40.7,479,559,838.5,811,364,1.81,552.35,1.78,0,0,241,0,0,0,4294877857,1605,0.9,0.06,0.14,2.02,6.39,-9.24,3.16,-78.86,6,5.66,-9.11,5.89,2.28,Left Fall while Sitting
44:40.8,352,529,793.5,811,365,1.8,554.71,1.78,0,0,241,0,0,0,4294870402,1846,0.96,0.15,0.13,-3.98,7.13,-3.66,8.1,-76.9,5.58,6.28,-9.46,5.69,2.95,Left Fall while Sitting
44:40.9,249,494,741,811,367,1.79,559.45,1.79,0,0,239,0,0,0,4294861987,2085,0.99,0.08,0.21,3.49,3.16,14.05,3.79,-75.92,6.08,6.42,-7.63,5.99,3.13,Left Fall while Sitting
44:41.0,328,475,712.5,811,367,1.79,559.45,1.79,20724.29,361,234,20724.02,231,429485120,0,0,1.01,0.09,0.17,3.34,-11.19,-0.77,4.54,-77.49,6.57,4.79,-7.63,6.49,1.5,Left Fall while Sitting
44:41.2,656,493,739.5,811,368,1.78,561.83,1.8,20724.29,361,225,20724.02,231,429485120,4294952385,225,1.03,0.08,0.13,1.59,6.56,-3.76,3.65,-79.87,6.84,5.36,-8.01,6.71,1.95,Left Fall while Sitting
44:41.3,658,508,762,811,366,1.8,557.08,1.79,20724.29,361,216,20724.02,231,429485120,4294933505,441,0.95,0.04,0.15,15.91,14.5,-10.93,2.09,-79.2,8.91,6.94,-9.28,8.64,3.49,Left Fall while Sitting
44:41.4,333,494,741,811,365,1.8,554.71,1.78,20724.29,361,216,20724.02,231,429485120,4294914625,657,0.99,0.08,0.2,10.48,-4.6,-8.82,4.02,-76.08,10.3,6.11,-10.3,10.05,2.82,Left Fall while Sitting
44:41.5,506,495,742.5,811,365,1.8,554.71,1.78,20724.29,361,226,20724.02,231,429485120,4294900165,883,1.01,0.14,0.17,10.05,-3.73,-15,7.3,-76.04,11.64,5.38,-12.09,11.47,2.13,Left Fall while Sitting
44:41.7,679,508,762,811,365,1.8,554.71,1.78,20724.29,361,228,20724.02,231,429485120,4294886613,1111,1.02,0.19,0.1,-6.4,-15.46,-14.76,9.79,-76.54,10.9,3.17,-13.86,10.85,-0.02,Left Fall while Sitting
44:41.8,487,506,759,811,364,1.81,552.35,1.78,20724.29,361,226,20724.02,231,429485120,4294872153,1337,0.89,0.25,0.24,8.09,-12.11,-23.15,14.8,-67.21,12,1.36,-16.72,12.12,-1.38,Left Fall while Sitting
44:41.9,607,513,769.5,811,365,1.8,554.71,1.78,20724.29,361,231,20724.02,231,429485120,4294859978,1568,0.42,0.35,0.49,-0.15,2.14,-20.56,28.08,-33.29,12.06,1.38,-19.23,12.7,-0.01,Left Fall while Sitting
44:42.0,557,515,772.5,811,365,1.8,554.71,1.78,20724.29,361,246,20724.02,231,429485120,4294854958,1814,0.83,0.36,-0.03,0.49,84.73,-23,22.81,-64.97,12.19,11.89,-22.05,12.62,8.81,Left Fall while Sitting
44:42.2,299,503,754.5,811,367,1.79,559.45,1.79,20724.29,361,247,20724.02,231,429485120,4294850431,2061,0.92,0.34,0.07,-16.18,23.34,-11.96,19.55,-67.86,10.21,14.6,-23.47,10.58,11.3,Left Fall while Sitting
44:42.3,749,516,774,811,369,1.77,564.22,1.8,53.04,365,221,20723.98,228,429483360,0,0,0.92,0.36,0.21,0.37,8.82,-16.78,20.25,-63.95,10.32,15.45,-25.47,10.72,12.27,Left Fall while Sitting
44:42.4,781,529,793.5,811,368,1.78,561.83,1.8,53.04,365,195,20723.98,228,429483360,4294939785,195,0.89,0.43,0.1,1.18,11.25,-19.53,24.92,-62.15,10.54,16.61,-27.83,11.12,13.46,Left Fall while Sitting
44:42.6,317,519,778.5,811,364,1.81,552.35,1.78,53.04,365,191,20723.98,228,429483360,4294910730,386,0.88,0.45,0.13,-4.13,18.63,-17.31,26.12,-60.53,10.09,18.73,-29.93,10.73,15.56,Left Fall while Sitting
44:42.7,576,522,783,811,362,1.83,547.66,1.77,53.04,365,194,20723.98,228,429483360,4294882830,580,0.88,0.48,0.19,1.01,6.48,-18.08,27.38,-58.17,10.29,19.29,-32.11,10.97,16.19,Left Fall while Sitting
44:42.8,607,525,787.5,811,360,1.84,542.99,1.76,53.04,365,196,20723.98,228,429483360,4294855710,776,0.83,0.5,0.2,9.43,4.55,-21.18,29.93,-55.38,11.56,19.62,-34.7,12.29,16.62,Left Fall while Sitting
44:42.9,272,515,772.5,811,358,1.86,538.35,1.75,53.04,365,193,20723.98,228,429483360,4294827423,969,0.8,0.56,0.18,19.54,7.11,-24.08,33.64,-52.18,14.09,20.26,-37.63,14.87,17.36,Left Fall while Sitting
44:43.1,537,516,774,811,356,1.87,533.73,1.74,53.04,365,209,20723.98,228,429483360,4294805568,1178,0.73,0.59,0.07,8.53,8.1,-13.5,38.4,-49.09,15.24,21.03,-39.25,16.17,18.23,Left Fall while Sitting
44:43.2,739,524,786,811,357,1.87,536.04,1.74,53.04,365,254,20723.98,228,429483360,4294804548,1432,0.75,0.61,0.14,-11.82,8.09,-1.73,38.11,-48.52,13.83,21.8,-39.36,14.8,18.99,Left Fall while Sitting
44:43.3,269,515,772.5,811,359,1.85,540.66,1.75,53.04,365,259,20723.98,228,429483360,4294806093,1691,0.78,0.61,0.22,1.22,5.09,-6.44,36.01,-48.94,14.05,22.19,-40.08,14.93,19.35,Left Fall while Sitting
44:43.4,544,516,774,811,362,1.83,547.66,1.77,53.04,365,259,20723.98,228,429483360,4294807638,1950,0.76,0.65,0.16,11.82,3.7,-11.66,39.33,-47.08,15.61,22.41,-41.45,16.56,19.63,Left Fall while Sitting
44:43.6,652,520,780,811,365,1.8,554.71,1.78,20724.29,361,261,20723.92,221,429481024,0,0,0.74,0.65,0.14,5.67,1.39,-10.56,40.11,-46.52,16.39,22.33,-42.67,17.34,19.58,Left Fall while Sitting
44:43.7,315,514,771,811,369,1.77,564.22,1.8,20724.29,361,261,20723.92,221,429481024,2585,261,0.71,0.67,0.13,2.02,1.01,-6.25,42.13,-44.74,16.71,22.21,-43.36,17.73,19.53,Left Fall while Sitting
44:43.8,494,513,769.5,811,373,1.74,573.85,1.82,20724.29,361,264,20723.92,221,429481024,6745,525,0.71,0.67,0.13,-1.69,-2.08,-4.07,42.24,-44.54,16.57,21.7,-43.77,17.6,19.05,Left Fall while Sitting
44:43.9,730,520,780,811,377,1.71,583.59,1.84,20724.29,361,266,20723.92,221,429481024,11965,791,0.7,0.67,0.14,0.69,-1.74,-5.63,42.43,-44.31,16.73,21.23,-44.38,17.76,18.61,Left Fall while Sitting
44:44.1,412,516,774,811,382,1.68,595.94,1.87,20724.29,361,267,20723.92,221,429481024,17718,1058,0.71,0.68,0.1,-0.68,-1.5,-5.48,42.85,-44.42,16.71,20.78,-44.97,17.76,18.18,Left Fall while Sitting
44:44.2,273,509,763.5,811,385,1.66,603.45,1.88,20724.29,361,267,20723.92,221,429481024,23471,1325,0.68,0.69,0.11,-3.34,-1.11,-8.51,44.39,-42.66,16.36,20.39,-45.95,17.49,17.87,Left Fall while Sitting
44:44.3,705,515,772.5,811,388,1.64,611.02,1.9,20724.29,361,268,20723.92,221,429481024,29759,1593,0.69,0.72,0.09,2.69,2.01,-9.15,45.12,-42.25,16.77,20.39,-47,17.91,17.89,Left Fall while Sitting
44:44.4,545,516,774,811,391,1.62,618.67,1.91,20724.29,361,271,20723.92,221,429481024,37664,1864,0.68,0.71,0.1,-1.9,-0.06,-12.39,45.58,-41.62,16.61,20.13,-48.46,17.76,17.66,Left Fall while Sitting
44:44.6,261,509,763.5,811,394,1.6,626.39,1.93,20724.29,361,270,20723.92,221,429481024,45028,2134,0.64,0.73,0.08,-2.45,4.35,-7.58,47.58,-39.83,16.37,20.43,-49.32,17.61,18.02,Left Fall while Sitting
44:44.7,633,512,768,811,397,1.58,634.19,1.94,20724.29,361,272,20723.92,221,429481024,53476,2406,0.64,0.75,0.13,-6.69,3.41,-4.4,48.22,-38.67,15.59,20.61,-49.78,16.9,18.24,Left Fall while Sitting
44:44.8,518,512,768,811,400,1.56,642.05,1.96,133.08,385,273,79.03,267,6245,0,0,0.64,0.74,0.11,0.15,6.82,-8.87,48.24,-38.83,15.68,21.2,-50.77,16.98,18.8,Left Fall while Sitting
44:45.0,337,508,762,811,402,1.54,647.34,1.96,133.08,385,274,79.03,267,6245,9540,274,0.6,0.75,0.13,-4.69,7.23,-4.5,50.13,-36.64,15.17,21.85,-51.23,16.57,19.51,Left Fall while Sitting
44:45.1,373,504,756,811,404,1.53,652.67,1.97,133.08,385,274,79.03,267,6245,19080,548,0.6,0.75,0.13,-2.21,10.89,0.3,50.2,-36.6,14.96,22.96,-51.1,16.37,20.58,Left Fall while Sitting
44:45.2,459,503,754.5,811,406,1.52,658.02,1.98,133.08,385,274,79.03,267,6245,28620,822,0.61,0.75,0.14,-1.62,4.92,6.63,49.66,-36.97,14.83,23.32,-50.18,16.22,20.91,Left Fall while Sitting
44:45.3,704,508,762,811,406,1.52,658.02,1.98,133.08,385,273,79.03,267,6245,37613,1095,0.62,0.75,0.13,3.07,3.18,8.48,48.97,-37.8,15.28,23.47,-49.02,16.63,21.02,Left Fall while Sitting
44:45.5,517,508,762,811,406,1.52,658.02,1.98,133.08,385,274,79.03,267,6245,47153,1369,0.62,0.77,0.15,1.47,-2.23,11.89,49.69,-36.9,15.54,22.95,-47.45,16.9,20.55,Left Fall while Sitting
44:45.6,248,502,753,811,409,1.5,666.12,2,133.08,385,275,79.03,267,6245,57242,1644,0.59,0.72,0.17,-7.4,-9.24,25.5,48.8,-37.12,14.69,21.56,-44.21,16.06,19.22,Left Fall while Sitting
44:45.7,456,501,751.5,811,413,1.48,677.05,2.02,133.08,385,274,79.03,267,6245,66782,1918,0.74,0.65,0.12,-7.78,-19.92,42.27,40.42,-46.61,13.79,18.82,-38.83,14.86,16.21,Left Fall while Sitting
44:45.8,684,505,757.5,811,415,1.47,682.57,2.03,133.08,385,272,79.03,267,6245,75230,2190,0.77,0.59,0.09,-13.2,-11.82,42.94,36.69,-50.64,12.21,17.1,-33.37,13.19,14.39,Left Fall while Sitting
44:45.9,613,508,762,811,417,1.45,688.12,2.04,133.08,385,273,79.03,267,6245,84223,2463,0.82,0.48,0,-28.1,-14.72,55.05,29.96,-57.88,8.77,15.01,-26.38,9.62,12.09,Left Fall while Sitting
44:46.1,286,503,754.5,811,418,1.45,690.91,2.04,20723.92,409,262,93.45,272,8732,0,0,0.88,0.34,0.1,-35.31,1.2,79.87,20.29,-66.67,4.46,14.91,-16.38,5.09,11.64,Left Fall while Sitting
44:46.2,260,498,747,811,418,1.45,690.91,2.04,20723.92,409,268,93.45,272,8732,6288,268,1.03,0.06,0.21,-19.31,11.66,61.39,2.66,-76.38,2.14,16.11,-8.67,2.16,12.41,Left Fall while Sitting
44:46.3,586,500,750,811,419,1.44,693.71,2.05,20723.92,409,268,93.45,272,8732,12576,536,0.99,0.01,0.18,-17.44,-7.21,33.95,0.11,-77.9,0.03,14.96,-4.33,0.03,11.24,Left Fall while Sitting
44:46.4,742,504,756,811,419,1.44,693.71,2.05,20723.92,409,270,93.45,272,8732,19940,806,1.05,-0.03,0.15,-14.24,-22.44,29.28,-2.26,-80.01,-1.67,11.93,-0.6,-1.69,8.25,Left Fall while Sitting
44:46.6,453,504,756,811,419,1.44,693.71,2.05,20723.92,409,270,93.45,272,8732,27304,1076,1.02,-0.1,0.1,-14.34,-32.37,23.39,-5.94,-80.7,-3.39,7.63,2.42,-3.49,4.1,Left Fall while Sitting
44:46.7,246,499,748.5,811,419,1.44,693.71,2.05,20723.92,409,272,93.45,272,8732,35752,1348,1.03,-0.15,-0.03,-9.92,-27.18,22.98,-8.88,-79.98,-4.56,3.98,5.39,-4.73,0.62,Left Fall while Sitting
44:46.8,445,498,747,811,418,1.45,690.91,2.04,20723.92,409,273,93.45,272,8732,44745,1621,1.06,-0.2,-0.04,-9.31,-7.21,5.72,-11.14,-77.59,-5.66,2.83,6.21,-5.88,-0.39,Left Fall while Sitting
44:46.9,839,504,756,839,418,1.45,690.91,2.04,20723.92,409,272,93.45,272,8732,53193,1893,1.08,-0.13,-0.06,1.13,14.6,6.6,-7.68,-80.73,-5.44,4.4,7.13,-5.53,1,Left Fall while Sitting
44:47.1,550,505,757.5,839,419,1.44,693.71,2.05,20723.92,409,253,93.45,272,8732,51666,2146,1.01,-0.22,-0.02,12.11,13.83,-10.28,-12.9,-76.06,-3.89,5.86,5.96,-4.25,2.58,Left Fall while Sitting
44:47.2,242,500,750,839,421,1.43,699.34,2.06,20723.92,409,225,93.45,272,8732,36755,2371,0.99,-0.15,-0.07,-6.98,-6.11,5.01,-9.01,-79.1,-4.69,4.85,6.69,-4.86,1.49,Left Fall while Sitting
44:47.3,371,498,747,839,421,1.43,699.34,2.06,20723.8,419,211,39.67,258,1573,0,0,1.03,-0.17,-0.04,3.21,5.15,-5.12,-9.85,-78.84,-4.22,5.23,6.15,-4.45,1.87,Left Fall while Sitting
44:47.4,570,499,748.5,839,419,1.44,693.71,2.05,20723.8,419,192,39.67,258,1573,4294938624,192,1.01,-0.13,-0.04,-4.62,-9.15,-6.23,-8.05,-80.67,-4.73,3.84,5.47,-4.86,0.46,Left Fall while Sitting
44:47.6,761,503,754.5,839,416,1.46,685.34,2.03,20723.8,419,187,39.67,258,1573,4294908057,379,1,-0.15,-0.04,2.4,0.47,-6.11,-8.9,-79.85,-4.36,3.65,4.8,-4.54,0.31,Left Fall while Sitting
44:47.7,281,500,750,839,410,1.5,668.84,2,20723.8,419,197,39.67,258,1573,4294881330,576,1,-0.13,-0.06,-1.41,-3.52,-0.85,-8.18,-80.11,-4.46,2.96,4.8,-4.61,-0.37,Left Fall while Sitting
44:47.8,310,497,745.5,839,404,1.53,652.67,1.97,20723.8,419,188,39.67,258,1573,4294851138,764,1.02,-0.15,-0.03,1.28,4.34,-0.71,-9.06,-79.81,-4.23,3.25,4.81,-4.43,-0.07,Left Fall while Sitting
44:47.9,650,499,748.5,839,398,1.57,636.8,1.95,20723.8,419,192,39.67,258,1573,4294822466,956,1.02,-0.14,-0.06,-3.94,-3.04,0.89,-8.22,-80.01,-4.66,2.61,5.02,-4.8,-0.69,Left Fall while Sitting
44:50.4,503,503,754.5,503,328,2.12,471.94,1.6,0,0,205,0,0,0,4294920274,410,0.97,-0.46,0.15,-9.69,-4.11,22.92,-25.57,-62.02,-1.69,-1.69,7.47,-2.65,-4.1,Right Fall while Sitting
44:50.6,836,669,1003.5,836,327,2.13,469.83,1.6,0,0,206,0,0,0,4294897174,616,0.92,-0.47,0.12,-0.4,-0.01,14.15,-27.73,-60.37,-1.67,-1.94,9.33,-2.71,-4.28,Right Fall while Sitting
44:50.7,608,649,973.5,836,326,2.14,467.72,1.59,0,0,205,0,0,0,4294873663,821,0.86,-0.5,0.08,-7.32,2.89,21.75,-30.8,-57.78,-2.5,-1.83,12.1,-3.63,-4.07,Right Fall while Sitting
44:50.8,327,568,852,836,325,2.15,465.62,1.59,0,0,206,0,0,0,4294850563,1027,0.84,-0.56,0.09,-15.8,-5.72,22.18,-34.11,-54.41,-4.39,-2.79,14.95,-5.58,-4.85,Right Fall while Sitting
44:50.9,500,554,831,836,324,2.16,463.52,1.58,0,0,252,0,0,0,4294848531,1279,0.85,-0.58,0.09,-11.18,-7.19,21.74,-34.86,-53.69,-5.72,-3.93,17.76,-6.88,-5.92,Right Fall while Sitting
44:51.1,503,546,819,836,329,2.11,474.06,1.61,0,0,251,0,0,0,4294845996,1530,0.84,-0.63,0.06,-4.21,-2.06,12.25,-37.2,-51.62,-6.17,-4.44,19.38,-7.41,-6.33,Right Fall while Sitting
44:51.2,805,583,874.5,836,335,2.05,486.92,1.64,0,0,239,0,0,0,4294837581,1769,0.8,-0.64,0.05,2.14,5.29,12.59,-39.1,-49.74,-5.84,-4.03,21.04,-7.17,-5.86,Right Fall while Sitting
44:51.3,637,589,883.5,836,339,2.02,495.61,1.66,0,0,246,0,0,0,4294832561,2015,0.75,-0.68,0.07,-2.21,1.34,12.18,-42.61,-46.12,-6.04,-4.11,22.62,-7.5,-5.79,Right Fall while Sitting
44:51.4,341,562,843,836,342,1.99,502.2,1.67,20723.78,330,260,20723.98,227,429483456,0,0,0.79,-0.68,0.01,-8.46,-1.62,12.37,-41.59,-47.4,-7.03,-4.57,24.28,-8.42,-6.28,Right Fall while Sitting
44:51.6,357,541,811.5,836,347,1.95,513.31,1.7,20723.78,330,254,20723.98,227,429483456,4294966276,254,0.79,-0.65,0.08,-3.47,1.05,7.18,-39.98,-48.69,-7.4,-4.69,25.29,-8.71,-6.45,Right Fall while Sitting
44:51.7,860,570,855,860,348,1.94,515.56,1.7,20723.78,330,251,20723.98,227,429483456,4294963741,505,0.75,-0.74,0.03,-4.4,5.61,-4.14,-45.14,-43.79,-7.89,-4.23,24.87,-9.38,-5.81,Right Fall while Sitting
44:51.8,349,552,828,860,350,1.92,520.06,1.71,20723.78,330,251,20723.98,227,429483456,4294961206,756,0.72,-0.72,0.04,0.08,5.45,0.15,-45.69,-43.2,-7.81,-3.79,24.99,-9.32,-5.37,Right Fall while Sitting
44:51.9,374,538,807,860,351,1.91,522.32,1.72,20723.78,330,257,20723.98,227,429483456,4294961719,1013,0.72,-0.72,0.04,-0.9,-0.31,2.46,-45.66,-43.25,-7.85,-4.08,25.4,-9.36,-5.65,Right Fall while Sitting
44:52.1,741,552,828,860,362,1.83,547.66,1.77,20723.78,330,263,20723.98,227,429483456,4294965352,1276,0.72,-0.72,0.02,-2.35,2.7,6.05,-45.67,-43.3,-8.08,-3.99,26.27,-9.58,-5.57,Right Fall while Sitting
44:52.2,320,537,805.5,860,360,1.84,542.99,1.76,20723.78,330,251,20723.98,227,429483456,4294962817,1527,0.71,-0.74,0.02,-6.32,2.05,8.5,-46.51,-42.46,-8.81,-3.99,27.45,-10.32,-5.53,Right Fall while Sitting
44:52.3,497,534,801,860,361,1.83,545.32,1.76,20723.78,330,259,20723.98,227,429483456,4294964362,1786,0.71,-0.76,0.02,-6.15,-1.69,6.3,-47.19,-41.78,-9.52,-4.46,28.35,-11.03,-5.95,Right Fall while Sitting
44:52.4,697,544,816,860,370,1.76,566.62,1.81,20723.78,330,263,20723.98,227,429483456,699,2049,0.69,-0.76,0.03,-3.73,0.4,6.58,-48.28,-40.68,-9.92,-4.66,29.28,-11.46,-6.1,Right Fall while Sitting
44:52.6,285,530,795,860,373,1.74,573.85,1.82,20723.78,330,261,20723.98,227,429483456,3284,2310,0.67,-0.8,0.03,1.49,1.79,13.61,-50.77,-38.19,-9.66,-4.68,31.09,-11.31,-6.02,Right Fall while Sitting
44:52.7,348,520,780,860,376,1.72,581.14,1.84,20724.27,359,265,28.23,257,796,0,0,0.68,-0.79,0.01,-0.47,0.71,6.59,-50.21,-38.78,-9.65,-4.84,32.01,-11.27,-6.2,Right Fall while Sitting
44:52.8,744,531,796.5,860,381,1.69,593.46,1.86,20724.27,359,261,28.23,257,796,2585,261,0.68,-0.8,-0.04,-1.19,6.45,9.37,-50.14,-38.79,-9.73,-4.29,33.28,-11.35,-5.67,Right Fall while Sitting
44:52.9,652,537,805.5,860,376,1.72,581.14,1.84,20724.27,359,254,28.23,257,796,1565,515,0.6,-0.83,0.05,-5.8,2.05,8.5,-54.77,-34.07,-10.38,-4.28,34.43,-12.16,-5.47,Right Fall while Sitting
44:53.1,270,525,787.5,860,373,1.74,573.85,1.82,20724.27,359,252,28.23,257,796,4294966829,767,0.61,-0.83,0.05,-2.15,2.5,6.01,-54.11,-34.73,-10.58,-4.22,35.28,-12.32,-5.44,Right Fall while Sitting
44:53.2,389,519,778.5,860,376,1.72,581.14,1.84,20724.27,359,255,28.23,257,796,4294966318,1022,0.57,-0.85,0.05,1.35,1.55,5.98,-56.6,-32.26,-10.34,-4.28,36.14,-12.19,-5.4,Right Fall while Sitting
44:53.3,738,528,792,860,377,1.71,583.59,1.84,20724.27,359,252,28.23,257,796,4294964286,1274,0.55,-0.86,0.04,-2.74,1.44,4.83,-57.99,-30.91,-10.62,-4.35,36.85,-12.51,-5.41,Right Fall while Sitting
44:53.4,571,530,795,860,376,1.72,581.14,1.84,20724.27,359,249,28.23,257,796,4294960751,1523,0.55,-0.86,0.02,-4.48,0.4,6.04,-57.81,-31.16,-11.11,-4.55,37.7,-12.97,-5.61,Right Fall while Sitting
44:53.6,237,518,777,860,378,1.71,586.05,1.85,20724.27,359,254,28.23,257,796,4294959731,1777,0.54,-0.88,0.05,-1.26,3.7,4.6,-58.93,-29.93,-11.19,-4.33,38.38,-13.1,-5.36,Right Fall while Sitting
44:53.7,573,520,780,860,384,1.66,600.94,1.88,20724.27,359,258,28.23,257,796,4294960759,2035,0.53,-0.89,0.04,0.93,1.46,2.51,-59.47,-29.44,-11.01,-4.4,38.79,-12.95,-5.4,Right Fall while Sitting
44:53.8,651,525,787.5,860,387,1.64,608.49,1.89,20724.27,359,256,28.23,257,796,4294960759,2291,0.52,-0.9,0.05,-1.98,0.69,1.14,-60.22,-28.63,-11.18,-4.57,39.04,-13.15,-5.53,Right Fall while Sitting
44:53.9,231,515,772.5,860,388,1.64,611.02,1.9,114.23,379,256,20724.29,254,429496064,0,0,0.48,-0.89,0.1,-2.11,0.44,-0.24,-61.71,-26.61,-11.38,-4.76,39.1,-13.39,-5.63,Right Fall while Sitting
44:54.1,421,512,768,860,388,1.64,611.02,1.9,114.23,379,249,20724.29,254,429496064,4294963761,249,0.53,-0.89,0.04,-2.52,1.51,0.73,-59.88,-29.04,-11.63,-4.82,39.3,-13.56,-5.79,Right Fall while Sitting
44:54.2,694,518,777,860,387,1.64,608.49,1.89,114.23,379,254,20724.29,254,429496064,4294962741,503,0.51,-0.89,0.06,-1.42,0.44,-0.78,-60.58,-28.19,-11.74,-5.02,39.3,-13.69,-5.95,Right Fall while Sitting
44:54.3,268,510,765,860,392,1.61,621.24,1.92,114.23,379,259,20724.29,254,429496064,4294964286,762,0.52,-0.89,0.05,-2.63,-0.36,-1.52,-60.34,-28.53,-12,-5.32,39.21,-13.93,-6.25,Right Fall while Sitting
44:54.5,481,509,763.5,860,394,1.6,626.39,1.93,114.23,379,256,20724.29,254,429496064,4294964286,1018,0.52,-0.89,0.04,-3.68,0.3,-0.5,-60.39,-28.53,-12.4,-5.54,39.24,-14.31,-6.46,Right Fall while Sitting
44:54.6,912,521,781.5,912,395,1.59,628.98,1.93,114.23,379,259,20724.29,254,429496064,4294965831,1277,0.54,-0.89,0.03,-0.98,-0.31,-2.68,-59.59,-29.34,-12.45,-5.83,39,-14.33,-6.77,Right Fall while Sitting
44:54.7,299,514,771,912,398,1.57,636.8,1.95,114.23,379,257,20724.29,254,429496064,4294966344,1534,0.51,-0.89,0.04,-1.45,3.03,-5.19,-60.49,-28.42,-12.56,-5.7,38.44,-14.48,-6.6,Right Fall while Sitting
44:54.8,590,516,774,912,397,1.58,634.19,1.94,114.23,379,255,20724.29,254,429496064,4294965833,1789,0.53,-0.89,0.04,-2.1,2.48,-7.65,-59.66,-29.23,-12.76,-5.64,37.57,-14.63,-6.58,Right Fall while Sitting
44:55.0,583,518,777,912,398,1.57,636.8,1.95,114.23,379,257,20724.29,254,429496064,4294966346,2046,0.55,-0.87,0.05,1.94,1.9,-10.08,-58.33,-30.54,-12.44,-5.65,36.39,-14.28,-6.64,Right Fall while Sitting
44:55.1,404,515,772.5,912,402,1.54,647.34,1.96,114.23,379,260,20724.29,254,429496064,1114,2306,0.61,-0.87,0.08,2.29,1.66,-18.5,-55.33,-33.36,-12.08,-5.69,34.16,-13.81,-6.8,Right Fall while Sitting
44:55.2,721,520,780,912,403,1.54,650,1.97,159.04,395,258,14.63,256,213,0,0,0.65,-0.83,0.05,2.11,2.37,-31.25,-52.49,-36.4,-11.75,-5.64,30.38,-13.38,-6.87,Right Fall while Sitting
44:55.3,774,527,790.5,912,403,1.54,650,1.97,159.04,395,257,14.63,256,213,513,257,0.66,-0.79,0.05,0.31,1.69,-40.74,-50.52,-38.36,-11.64,-5.68,25.43,-13.2,-6.99,Right Fall while Sitting
44:55.5,550,527,790.5,912,404,1.53,652.67,1.97,159.04,395,257,14.63,256,213,1026,514,0.75,-0.75,0.06,-2.01,-7.92,-43.26,-45.46,-43.38,-11.82,-6.92,20.12,-13.17,-8.38,Right Fall while Sitting
44:55.6,295,522,783,912,404,1.53,652.67,1.97,159.04,395,258,14.63,256,213,2054,772,0.85,-0.67,0.12,2.69,-4.11,-49.91,-38.52,-49.71,-11.42,-7.68,13.98,-12.5,-9.37,Right Fall while Sitting
44:55.7,467,521,781.5,912,406,1.52,658.02,1.98,159.04,395,258,14.63,256,213,3082,1030,1.09,-0.54,-0.13,10.93,-2.8,-53.96,-26.94,-61.26,-9.98,-8.28,7.33,-10.66,-10.4,Right Fall while Sitting
44:55.8,760,526,789,912,408,1.51,663.41,1.99,159.04,395,260,14.63,256,213,5146,1290,0.98,-0.43,-0.02,2.97,10.21,-46.28,-24.33,-64.64,-9.54,-7.26,1.64,-10.13,-9.55,Right Fall while Sitting
44:56.0,422,524,786,912,409,1.5,666.12,2,159.04,395,258,14.63,256,213,6174,1548,0.96,-0.36,0.13,0.95,-8.52,-54.67,-20.75,-66.82,-9.35,-8.56,-5.04,-9.81,-10.89,Right Fall while Sitting
44:56.1,331,519,778.5,912,409,1.5,666.12,2,159.04,395,260,14.63,256,213,8238,1808,1,-0.21,0.08,7.34,8.61,-47.83,-12.55,-75.52,-8.36,-7.74,-10.92,-8.53,-10.45,Right Fall while Sitting
44:56.2,375,516,774,912,411,1.49,671.57,2.01,159.04,395,259,14.63,256,213,9783,2067,0.88,-0.15,0.16,-2.76,16.53,-63.57,-10.18,-74.34,-8.64,-5.92,-18.76,-8.7,-8.66,Right Fall while Sitting
44:56.3,704,520,780,912,412,1.48,674.3,2.01,159.04,395,258,14.63,256,213,10811,2325,0.97,0.01,0.05,-17.85,-18.73,-31.47,-0.07,-85.56,-10.78,-8.49,-22.57,-10.35,-11.57,Right Fall while Sitting
44:56.5,438,519,778.5,912,412,1.48,674.3,2.01,20724.05,407,261,36.59,258,1338,0,0,0.94,0.01,0.16,-8.24,-17.64,-14.12,-0.24,-78.93,-11.74,-10.95,-24.24,-11.28,-13.66,Right Fall while Sitting
44:56.6,235,513,769.5,912,414,1.47,679.8,2.02,20724.05,407,259,36.59,258,1338,1545,259,1.21,0.05,-0.12,-3.1,-2.73,-20.56,1.85,-82.14,-12.06,-11.54,-26.71,-11.5,-14.36,Right Fall while Sitting
44:56.7,534,513,769.5,912,414,1.47,679.8,2.02,20724.05,407,259,36.59,258,1338,3090,518,0.98,0.08,0.05,-7.6,-15.71,-6.53,4.02,-82.97,-12.95,-13.77,-27.43,-12.27,-16.54,Right Fall while Sitting
44:56.8,671,516,774,912,415,1.47,682.57,2.03,20724.05,407,260,36.59,258,1338,5154,778,0.92,0.06,0.05,2.43,-13.37,-4.55,3.29,-83.3,-12.57,-15.69,-27.9,-11.94,-18.39,Right Fall while Sitting
44:57.0,301,512,768,912,414,1.47,679.8,2.02,20724.05,407,243,36.59,258,1338,4294965963,1021,1.05,0.08,-0.03,-1.6,-8.5,4.89,3.65,-83.97,-12.7,-17.01,-27.18,-12.05,-19.69,Right Fall while Sitting
44:57.1,317,509,763.5,912,398,1.57,636.8,1.95,20724.05,407,233,36.59,258,1338,4294954716,1254,1.03,0.07,-0.01,-0.29,-28.04,8.34,3.43,-84.34,-12.67,-20.83,-26.03,-12.03,-23.37,Right Fall while Sitting
44:57.2,870,515,772.5,912,395,1.59,628.98,1.93,20724.05,407,233,36.59,258,1338,4294943469,1487,1.05,-0.02,-0.04,2.28,-6.27,-1.21,-1.77,-85.86,-12.31,-21.87,-26.08,-11.89,-24.43,Right Fall while Sitting
44:57.3,420,513,769.5,912,392,1.61,621.24,1.92,20724.05,407,230,36.59,258,1338,4294930833,1717,1,0.04,-0.09,-6.1,0.08,-4.45,1.67,-82.62,-13.02,-22.11,-26.54,-12.43,-24.53,Right Fall while Sitting
44:57.5,286,509,763.5,912,388,1.64,611.02,1.9,20724.05,407,229,36.59,258,1338,4294917738,1946,1,0.04,-0.07,-4.84,2.15,0.29,1.6,-83.63,-13.55,-22.09,-26.41,-12.95,-24.56,Right Fall while Sitting
44:57.6,708,513,769.5,912,389,1.63,613.56,1.9,20724.05,407,232,36.59,258,1338,4294906026,2178,1.04,0.05,-0.05,-1.34,11.63,-3.34,2.31,-84.33,-13.65,-20.87,-26.73,-13.02,-23.41,Right Fall while Sitting
44:57.7,458,512,768,912,390,1.62,616.11,1.91,59.67,400,232,20724.13,241,429489440,0,0,1,0.05,-0.01,-4.73,2.07,0.62,2.28,-85.53,-14.17,-20.86,-26.55,-13.52,-23.45,Right Fall while Sitting
44:57.8,341,509,763.5,912,392,1.61,621.24,1.92,59.67,400,235,20724.13,241,429489440,4294956985,235,1.01,0.04,-0.01,2.7,-0.55,1.85,1.56,-86.14,-13.76,-21.19,-26.22,-13.15,-23.78,Right Fall while Sitting
44:58.0,672,512,768,912,396,1.58,631.58,1.94,59.67,400,238,20724.13,241,429489440,4294948093,473,1.02,0.04,-0.05,1.41,-6.79,0.98,1.49,-85,-13.51,-22.3,-25.99,-12.91,-24.81,Right Fall while Sitting
44:58.1,607,513,769.5,912,398,1.57,636.8,1.95,59.67,400,241,20724.13,241,429489440,4294940638,714,1.02,0.04,-0.12,2.01,-8.27,4.15,1.86,-81.42,-13.19,-23.6,-25.37,-12.58,-25.91,Right Fall while Sitting
44:58.2,285,510,765,912,401,1.55,644.69,1.96,59.67,400,242,20724.13,241,429489440,4294933666,956,1.04,0.02,-0.1,6.37,6.17,0.65,0.4,-83.05,-12.31,-23.07,-25.19,-11.8,-25.47,Right Fall while Sitting
44:58.4,703,513,769.5,912,403,1.54,650,1.97,59.67,400,244,20724.13,241,429489440,4294927666,1200,0.99,-0.01,-0.04,0.16,-2.41,-4.76,-1.29,-86.22,-12.22,-23.63,-25.69,-11.78,-26.13,Right Fall while Sitting
45:02.6,307,307,460.5,307,391,1.62,618.67,1.91,0,0,206,0,0,0,4294924885,421,0.81,-0.02,-0.66,12.38,-40.4,-3.71,-1.93,-49.5,2.49,-12.92,-1.35,2.32,-14.38,Forward Fall while Sitting
45:02.8,329,318,477,329,389,1.63,613.56,1.9,0,0,202,0,0,0,4294900153,623,0.85,-0.07,-0.83,7.63,-19.27,6.38,-3.94,-44.18,3.51,-15.55,-0.46,3.21,-16.7,Forward Fall while Sitting
45:02.9,615,417,625.5,615,379,1.7,588.51,1.85,0,0,196,0,0,0,4294873033,819,0.76,-0.12,-0.76,-5.43,-28.1,6.97,-6.81,-43.19,2.91,-19.26,0.49,2.52,-20.21,Forward Fall while Sitting
45:03.0,996,561,841.5,996,376,1.72,581.14,1.84,0,0,194,0,0,0,4294845133,1013,0.72,-0.1,-0.79,-4.79,-28.63,3.6,-5.94,-40.54,2.38,-23.05,1.03,2.05,-23.75,Forward Fall while Sitting
45:03.1,501,549,823.5,996,373,1.74,573.85,1.82,0,0,192,0,0,0,4294816461,1205,0.67,-0.12,-0.84,-5.37,-19.06,2.74,-6.86,-36.74,1.79,-25.67,1.47,1.44,-26.11,Forward Fall while Sitting
45:03.3,298,507,760.5,996,373,1.74,573.85,1.82,0,0,196,0,0,0,4294789341,1401,0.63,-0.11,-0.9,-15.56,-25.05,4.67,-6.45,-33.06,-0.07,-29.02,2.15,-0.33,-29.18,Forward Fall while Sitting
45:03.4,385,490,735,996,373,1.74,573.85,1.82,0,0,195,0,0,0,4294761830,1596,0.59,-0.09,-0.87,-4.11,-27.58,2.92,-5.23,-32.37,-0.51,-32.69,2.61,-0.7,-32.68,Forward Fall while Sitting
45:03.5,707,517,775.5,996,378,1.71,586.05,1.85,0,0,200,0,0,0,4294736294,1796,0.56,-0.1,-0.96,-0.15,-17.88,0.02,-5.93,-28.45,-0.46,-35.17,2.71,-0.68,-34.9,Forward Fall while Sitting
45:03.6,617,528,792,996,378,1.71,586.05,1.85,117.33,380,199,20723.68,199,429471040,0,0,0.56,-0.14,-0.91,1.12,-17.82,-0.53,-7.97,-29.6,-0.25,-37.63,2.74,-0.56,-37.31,Forward Fall while Sitting
45:03.8,411,516,774,996,373,1.74,573.85,1.82,117.33,380,194,20723.68,199,429471040,4294939396,194,0.47,-0.11,-0.98,-2.52,-21.8,0.38,-6.24,-24.07,-0.5,-40.65,2.89,-0.73,-39.99,Forward Fall while Sitting
45:03.9,399,505,757.5,996,373,1.74,573.85,1.82,117.33,380,195,20723.68,199,429471040,4294911885,389,0.37,-0.12,-0.94,0.95,-14.59,-0.89,-7.2,-19.9,-0.31,-42.76,2.88,-0.59,-41.85,Forward Fall while Sitting
45:04.0,714,523,784.5,996,371,1.76,569.02,1.81,117.33,380,192,20723.68,199,429471040,4294883213,581,0.41,-0.12,-1.01,-0.6,-10.92,0.44,-6.87,-20.26,-0.31,-44.4,3.03,-0.58,-43.44,Forward Fall while Sitting
45:04.1,298,505,757.5,996,370,1.76,566.62,1.81,117.33,380,193,20723.68,199,429471040,4294854926,774,0.35,-0.12,-1.01,0.25,-14.78,2.28,-6.93,-17.42,-0.21,-46.53,3.42,-0.48,-45.37,Forward Fall while Sitting
45:04.3,500,505,757.5,996,369,1.77,564.22,1.8,117.33,380,195,20723.68,199,429471040,4294827415,969,0.34,-0.14,-1.01,0.02,-17.57,4.63,-8.01,-17.07,-0.14,-49.02,4.11,-0.45,-47.74,Forward Fall while Sitting
45:04.4,694,518,777,996,369,1.77,564.22,1.8,117.33,380,194,20723.68,199,429471040,4294799515,1163,0.31,-0.14,-1.03,1.11,-16.58,2.51,-8.09,-14.83,0.07,-51.38,4.53,-0.25,-49.92,Forward Fall while Sitting
45:04.5,383,509,763.5,996,369,1.77,564.22,1.8,117.33,380,194,20723.68,199,429471040,4294771615,1357,0.27,-0.16,-1.03,3.14,-15.18,-1.42,-9.27,-12.91,0.54,-53.56,4.45,0.15,-51.93,Forward Fall while Sitting
45:04.7,510,509,763.5,996,369,1.77,564.22,1.8,117.33,380,199,20723.68,199,429471040,4294745680,1556,0.23,-0.16,-1.05,2.01,-11.15,-1.92,-8.8,-10.42,0.87,-55.22,4.31,0.48,-53.42,Forward Fall while Sitting
45:04.8,643,517,775.5,996,377,1.71,583.59,1.84,117.33,380,208,20723.68,199,429471040,4294723408,1764,0.19,-0.17,-1.07,1.93,-10.69,-2.47,-9.69,-8.33,1.18,-56.83,4.09,0.75,-54.89,Forward Fall while Sitting
45:04.9,261,503,754.5,996,378,1.71,586.05,1.85,84.69,371,197,20723.65,196,429469664,0,0,0.17,-0.17,-1.07,-0.97,-13.02,-0.62,-9.39,-7.14,1.13,-58.7,4.12,0.71,-56.64,Forward Fall while Sitting
45:05.0,407,498,747,996,372,1.75,571.43,1.82,84.69,371,193,20723.65,196,429469664,4294939009,193,0.14,-0.15,-1.09,-7.63,-9.57,3.29,-8.58,-5.5,0.24,-60.16,4.63,-0.11,-57.98,Forward Fall while Sitting
45:05.2,713,508,762,996,371,1.76,569.02,1.81,84.69,371,197,20723.65,196,429469664,4294912282,390,0.14,-0.14,-1.03,-4.41,-5.95,2.26,-8.39,-5.96,-0.25,-61.17,5.02,-0.57,-58.96,Forward Fall while Sitting
45:05.3,389,503,754.5,996,374,1.74,576.27,1.83,84.69,371,199,20723.65,196,429469664,4294886347,589,0.12,-0.16,-1.05,0.15,-8.33,-3.3,-9.22,-4.95,-0.16,-62.47,4.7,-0.52,-60.17,Forward Fall while Sitting
45:05.4,341,496,744,996,375,1.73,578.7,1.83,84.69,371,197,20723.65,196,429469664,4294859620,786,0.09,-0.13,-1.06,-0.56,-5.79,-4.27,-7.82,-3.03,-0.16,-63.46,4.26,-0.46,-61.05,Forward Fall while Sitting
45:05.5,693,504,756,996,374,1.74,576.27,1.83,84.69,371,195,20723.65,196,429469664,4294832109,981,0.07,-0.15,-1.11,-3.85,-4.08,-2.39,-8.37,-1.9,-0.57,-64.23,4.06,-0.88,-61.74,Forward Fall while Sitting
45:05.7,279,495,742.5,996,374,1.74,576.27,1.83,84.69,371,200,20723.65,196,429469664,4294806573,1181,0.06,-0.14,-1.05,0.37,2.7,0.39,-8.27,-1.83,-0.45,-64.14,4.21,-0.77,-61.65,Forward Fall while Sitting
45:05.8,386,491,736.5,996,379,1.7,588.51,1.85,84.69,371,205,20723.65,196,429469664,4294783062,1386,0.08,-0.16,-1.1,-3.64,1.37,0.82,-8.69,-2.53,-0.85,-64.22,4.41,-1.16,-61.75,Forward Fall while Sitting
45:05.9,728,500,750,996,386,1.65,605.97,1.89,84.69,371,211,20723.65,196,429469664,4294762047,1597,0.08,-0.13,-1.06,-0.87,1.03,-0.94,-7.6,-2.95,-0.89,-64.34,4.39,-1.15,-61.89,Forward Fall while Sitting
45:06.0,407,496,744,996,393,1.6,623.81,1.92,84.69,371,215,20723.65,196,429469664,4294742736,1812,0.07,-0.16,-1.08,0.41,1.68,-0.48,-8.75,-2.14,-0.76,-64.38,4.43,-1.08,-61.89,Forward Fall while Sitting
45:06.2,356,491,736.5,996,397,1.58,634.19,1.94,114.13,379,216,20723.72,202,429472384,0,0,0.09,-0.17,-1.09,-0.84,5.09,-0.31,-9.2,-2.86,-0.8,-64,4.49,-1.13,-61.55,Forward Fall while Sitting
45:06.3,677,498,747,996,398,1.57,636.8,1.95,114.13,379,205,20723.72,202,429472384,4294943785,205,0.08,-0.16,-1.09,-3.05,15.35,-1.6,-8.78,-2.81,-1.11,-62.31,4.39,-1.42,-59.93,Forward Fall while Sitting
45:06.4,399,494,741,996,386,1.65,605.97,1.89,114.13,379,197,20723.72,202,429472384,4294917058,402,0.14,-0.16,-1.05,1.21,22.56,1.35,-9.25,-6.04,-0.89,-59.7,4.66,-1.22,-57.56,Forward Fall while Sitting
45:06.5,307,489,733.5,996,382,1.68,595.94,1.87,114.13,379,198,20723.72,202,429472384,4294890726,600,0.21,-0.17,-1.05,5.71,28.52,0.89,-9.6,-9.36,-0.09,-56.34,4.88,-0.47,-54.46,Forward Fall while Sitting
45:06.7,673,494,741,996,382,1.68,595.94,1.87,114.13,379,194,20723.72,202,429472384,4294862826,794,0.28,-0.2,-1.14,0.05,59.25,-6.29,-10.09,-12.29,-0.01,-49.12,4.18,-0.42,-47.65,Forward Fall while Sitting
45:06.8,392,491,736.5,996,376,1.72,581.14,1.84,114.13,379,194,20723.72,202,429472384,4294834926,988,0.4,-0.19,-1.07,-7.66,85.85,-3.13,-10.13,-18.61,-0.92,-38.47,3.89,-1.28,-37.68,Forward Fall while Sitting
45:06.9,427,489,733.5,996,377,1.71,583.59,1.84,114.13,379,196,20723.72,202,429472384,4294807806,1184,0.55,-0.15,-0.83,-7.63,80.16,-5.11,-9.13,-31.41,-1.82,-28.47,3.33,-2.11,-28.59,Forward Fall while Sitting
45:07.1,686,495,742.5,996,376,1.72,581.14,1.84,114.13,379,178,20723.72,202,429472384,4294839490,1362,0.74,-0.14,-0.83,-1.82,84.84,-9.02,-7.61,-39.72,-1.98,-17.95,2.29,-2.21,-18.82,Forward Fall while Sitting
45:07.2,234,488,732,996,358,1.86,538.35,1.75,114.13,379,166,20723.72,202,429472384,4294867046,1528,0.82,-0.1,-0.62,3.68,101.46,-14.91,-6.32,-51.08,-1.44,-5.32,0.49,-1.64,-7.15,Forward Fall while Sitting
45:07.3,415,486,729,996,355,1.88,531.44,1.74,114.13,379,170,20723.72,202,429472384,4294895946,1698,0.91,-0.1,-0.42,-1.85,80.91,-11.47,-6.09,-63.15,-1.61,4.71,-0.86,-1.79,1.99,Forward Fall while Sitting
45:07.4,702,491,736.5,996,356,1.87,533.73,1.74,97.12,374,178,20724.21,187,429492768,0,0,0.96,-0.09,-0.28,-1.56,59.37,-10.49,-5.73,-71.38,-1.73,11.82,-2.07,-1.89,8.49,Forward Fall while Sitting
45:07.6,384,489,733.5,996,360,1.84,542.99,1.76,97.12,374,177,20724.21,187,429492768,31329,177,1,-0.06,-0.22,-6.79,44.44,-7.29,-3.74,-75.77,-2.52,17.17,-2.88,-2.56,13.45,Forward Fall while Sitting
45:07.7,490,489,733.5,996,359,1.85,540.66,1.75,97.12,374,175,20724.21,187,429492768,61954,352,1.02,-0.07,-0.06,-1.65,40.28,-5.56,-4.24,-83.42,-2.65,21.95,-3.48,-2.72,17.74,Forward Fall while Sitting
45:07.8,669,493,739.5,996,354,1.89,529.15,1.73,97.12,374,166,20724.21,187,429492768,89510,518,1.04,-0.1,-0.03,-7.72,38.92,-8.94,-6.05,-82.68,-3.55,26.6,-4.51,-3.65,22.23,Forward Fall while Sitting
45:07.9,511,493,739.5,996,350,1.92,520.06,1.71,97.12,374,166,20724.21,187,429492768,117066,684,1.03,-0.09,0.07,-26.6,12.89,4.12,-5.57,-82.03,-6.83,27.98,-3.89,-6.78,23.58,Forward Fall while Sitting
45:08.1,269,488,732,996,352,1.91,524.59,1.72,97.12,374,169,20724.21,187,429492768,145627,853,1.01,-0.12,0.09,-10.94,5.57,8.94,-7.41,-79.75,-8.14,28.43,-2.66,-8.11,24.1,Forward Fall while Sitting
45:08.2,516,489,733.5,996,352,1.91,524.59,1.72,97.12,374,171,20724.21,187,429492768,174868,1024,1.02,-0.07,0.04,-1.6,18.18,-5.85,-4.61,-83.87,-8.27,30.46,-3.3,-8.13,25.89,Forward Fall while Sitting
45:08.3,773,495,742.5,996,353,1.9,526.87,1.73,97.12,374,171,20724.21,187,429492768,204109,1195,0.93,-0.08,0.16,-10.53,22.35,2.45,-5.25,-77.84,-9.53,33.03,-2.89,-9.36,28.59,Forward Fall while Sitting
45:08.4,270,490,735,996,351,1.91,522.32,1.72,97.12,374,168,20724.21,187,429492768,232333,1363,0.95,-0.04,0.09,-15.21,-15.47,4.18,-3.03,-82.57,-11.37,30.83,-2.27,-11.04,26.29,Forward Fall while Sitting
45:08.6,454,489,733.5,996,355,1.88,531.44,1.74,97.12,374,180,20724.21,187,429492768,264733,1543,1.04,-0.1,0.09,-13.14,-32.79,9.21,-6.1,-81.02,-12.97,26.41,-1,-12.7,22.11,Forward Fall while Sitting
45:08.7,755,495,742.5,996,363,1.82,550,1.77,20724.18,354,186,152.9,172,23378,0,0,1.04,-0.14,0.04,3.03,-10.26,0.36,-8.24,-80.51,-12.53,24.89,-0.85,-12.36,20.67,Forward Fall while Sitting
45:08.8,423,493,739.5,996,369,1.77,564.22,1.8,20724.18,354,194,152.9,172,23378,4294939396,194,1.02,-0.13,-0.02,3.69,2.56,-3.38,-7.89,-80.98,-11.99,24.96,-1.18,-11.82,20.72,Forward Fall while Sitting
45:08.9,334,490,735,996,376,1.72,581.14,1.84,20724.18,354,196,152.9,172,23378,4294912276,390,1.01,-0.12,-0.06,0.51,0.74,-2.08,-7.17,-81.06,-11.85,24.8,-1.35,-11.67,20.57,Forward Fall while Sitting
45:09.1,831,497,745.5,996,382,1.68,595.94,1.87,20724.18,354,198,152.9,172,23378,4294885944,588,1.03,-0.12,-0.02,-3.03,-5.47,1.1,-7.31,-81.58,-12.16,23.86,-1.11,-11.97,19.64,Forward Fall while Sitting
45:09.2,468,496,744,996,384,1.66,600.94,1.88,20724.18,354,200,152.9,172,23378,4294860408,788,1.04,-0.12,-0.01,-1.83,-2,-3.11,-7.43,-81.53,-12.32,23.36,-1.4,-12.13,19.16,Forward Fall while Sitting
45:09.3,262,492,738,996,388,1.64,611.02,1.9,20724.18,354,202,152.9,172,23378,4294835676,990,1.02,-0.12,-0.02,-0.21,-3.26,-4.85,-7.19,-81.71,-12.28,22.69,-1.92,-12.08,18.51,Forward Fall while Sitting
45:09.5,681,495,742.5,996,392,1.61,621.24,1.92,20724.18,354,207,152.9,172,23378,4294812989,1197,1.02,-0.09,-0.04,4.17,0.11,-7.57,-5.8,-82.81,-11.68,22.45,-2.77,-11.45,18.24,Forward Fall while Sitting
45:09.6,778,500,750,996,397,1.58,634.19,1.94,20724.18,354,212,152.9,172,23378,4294792397,1409,0.99,-0.09,0,3.18,4.4,0.05,-5.63,-83.37,-11.21,22.75,-2.66,-10.98,18.51,Forward Fall while Sitting
45:09.7,297,497,745.5,996,398,1.57,636.8,1.95,20724.18,354,210,152.9,172,23378,4294770961,1619,1.02,-0.13,-0.01,4.92,-0.84,0.3,-7.59,-81.36,-10.52,22.4,-2.53,-10.4,18.25,Forward Fall while Sitting
45:12.5,392,392,588,392,410,1.5,668.84,2,0,0,221,0,0,0,4294933906,442,0.89,0.03,0,1.63,-8.34,2.84,1.66,-86.18,0.63,-2.19,-0.63,0.67,-5.55,Walking
45:12.6,727,559,838.5,727,412,1.48,674.3,2.01,0,0,223,0,0,0,4294918099,665,0.98,0.09,0.06,5.85,5.94,7.04,4.38,-82.5,1.41,-1.71,0.34,1.53,-4.94,Walking
45:12.7,328,482,723,727,412,1.48,674.3,2.01,0,0,222,0,0,0,4294901847,887,1.05,0.04,0.08,13.89,11.7,10,1.5,-83.6,3.18,-0.52,1.65,3.11,-3.85,Walking
45:12.8,436,470,705,727,412,1.48,674.3,2.01,0,0,223,0,0,0,4294886040,1110,1.04,-0.01,0.05,1.83,-7.93,1.37,-1.08,-85.83,3.47,-1.74,1.92,3.29,-5.11,Walking
45:13.0,638,504,756,727,412,1.48,674.3,2.01,0,0,223,0,0,0,4294870233,1333,0.99,0,-0.01,-7.05,-4.44,-1.47,-0.42,-87.76,2.67,-2.54,1.83,2.55,-5.94,Walking
45:13.1,738,543,814.5,738,412,1.48,674.3,2.01,0,0,224,0,0,0,4294854873,1557,0.98,-0.03,0.01,-3.24,4.69,2.09,-2.57,-86.27,2.34,-2.2,2.19,2.14,-5.57,Walking
45:13.2,606,552,828,738,412,1.48,674.3,2.01,0,0,225,0,0,0,4294839962,1782,0.97,-0.04,0.04,1.94,8.02,1.66,-2.89,-85.24,2.64,-1.47,2.49,2.42,-4.82,Walking
45:13.3,478,542,813,738,412,1.48,674.3,2.01,0,0,223,0,0,0,4294824155,2005,1.01,-0.07,0.07,0.32,-3.53,9.88,-4.37,-82.84,2.75,-2.15,3.8,2.47,-5.38,Walking
45:13.5,313,517,775.5,738,410,1.5,668.84,2,20723.64,411,221,20723.92,222,429480736,0,0,1.04,-0.14,0.03,-3.14,0.47,0.31,-8.01,-80.81,2.43,-2.34,3.94,2.01,-5.48,Walking
45:13.6,480,513,769.5,738,410,1.5,668.84,2,20723.64,411,225,20723.92,222,429480736,4294952385,225,1.04,-0.12,0.05,-17.9,-1.9,-7.25,-7.38,-81.02,0.25,-2.83,3.12,-0.06,-5.96,Walking
45:13.7,998,557,835.5,998,411,1.49,671.57,2.01,20723.64,411,224,20723.92,222,429480736,4294937025,449,1.04,-0.1,0.06,-14.48,5.56,-12.68,-6.09,-82.1,-1.52,-2.38,1.61,-1.7,-5.57,Walking
45:13.8,370,542,813,998,411,1.49,671.57,2.01,20723.64,411,223,20723.92,222,429480736,4294921218,672,1.02,-0.04,0.04,-19.98,9.92,-12.85,-2.59,-85.57,-3.99,-1.37,0.08,-3.93,-4.74,Walking
45:14.0,504,539,808.5,998,410,1.5,668.84,2,20723.64,411,222,20723.92,222,429480736,4294904966,894,1,0.01,0.1,-15.92,18.82,-12.66,0.17,-82.71,-5.94,0.76,-1.43,-5.69,-2.57,Walking
45:14.1,736,553,829.5,998,411,1.49,671.57,2.01,20723.64,411,225,20723.92,222,429480736,4294890055,1119,0.96,0.03,0.18,-9.73,11.63,-2.91,1.19,-77.53,-7.1,1.99,-1.7,-6.77,-1.19,Walking
45:14.2,298,536,804,998,410,1.5,668.84,2,20723.64,411,224,20723.92,222,429480736,4294874695,1343,0.93,0,0.2,-3.68,11.72,-1.12,-0.42,-76.39,-7.5,3.22,-1.74,-7.22,0.04,Walking
45:14.3,472,532,798,998,410,1.5,668.84,2,20723.64,411,226,20723.92,222,429480736,4294860235,1569,0.99,0.02,0.21,-5.85,-3.41,0.44,0.46,-76.12,-8.17,2.53,-1.58,-7.82,-0.61,Walking
45:14.5,647,538,807,998,404,1.53,652.67,1.97,20723.64,411,210,20723.92,222,429480736,4294838799,1779,0.99,0,0.21,-3.88,6.69,-0.11,-0.64,-76.27,-8.59,3.13,-1.5,-8.27,-0.05,Walking
45:14.6,206,520,780,998,403,1.54,650,1.97,20723.64,411,219,20723.92,222,429480736,4294821224,1998,0.97,0.03,0.2,-2.82,8.81,-2.53,1.1,-76.74,-8.87,3.99,-1.72,-8.48,0.76,Walking
45:14.7,437,516,774,998,405,1.53,655.34,1.98,20723.9,408,221,20723.91,221,429480448,0,0,0.95,0.01,0.22,3.76,0.23,5.82,0.23,-75.57,-8.34,3.77,-0.9,-8,0.6,Walking
45:14.9,697,525,787.5,998,407,1.51,660.71,1.99,20723.9,408,223,20723.91,221,429480448,4294951489,223,0.99,-0.06,0.23,-2.15,-4.92,4.16,-3.86,-74.7,-8.54,2.9,-0.27,-8.35,-0.2,Walking
45:15.0,406,519,778.5,998,409,1.5,666.12,2,20723.9,408,225,20723.91,221,429480448,4294936578,448,0.99,-0.01,0.15,2.21,-2.49,3.53,-1.4,-79.91,-8.19,2.33,0.28,-7.91,-0.96,Walking
45:15.1,310,509,763.5,998,410,1.5,668.84,2,20723.9,408,223,20723.91,221,429480448,4294920771,671,1.05,-0.04,0.14,-2.86,-6.97,1.79,-2.66,-80.46,-8.48,1.2,0.6,-8.24,-2.07,Walking
45:15.2,701,518,777,998,409,1.5,666.12,2,20723.9,408,225,20723.91,221,429480448,4294905860,896,1,-0.05,0.12,-7.07,-2.32,0.75,-3.62,-80.8,-9.3,0.65,0.8,-9.08,-2.61,Walking
45:15.4,339,510,765,998,408,1.51,663.41,1.99,20723.9,408,219,20723.91,221,429480448,4294888285,1115,1.03,-0.04,0.1,-4.37,4.75,-4.27,-2.8,-82.65,-9.78,1,0.36,-9.5,-2.35,Walking
45:15.5,416,506,759,998,405,1.53,655.34,1.98,20723.9,408,217,20723.91,221,429480448,4294869838,1332,1.06,0.02,0.07,-6.95,3.06,-7.53,0.36,-84.47,-10.59,1.13,-0.5,-10.16,-2.29,Walking
45:15.6,727,515,772.5,998,406,1.52,658.02,1.98,20723.9,408,223,20723.91,221,429480448,4294854031,1555,0.95,-0.04,0.16,-7.15,-3.54,-5.92,-2.72,-78.4,-11.43,0.43,-1.15,-11.08,-2.73,Walking
45:15.7,319,508,762,998,406,1.52,658.02,1.98,20723.9,408,221,20723.91,221,429480448,4294837336,1776,0.96,-0.01,0.18,2.77,-2.41,-0.18,-1.41,-78.03,-11.01,-0.13,-1.07,-10.62,-3.25,Walking
45:15.9,453,506,759,998,408,1.51,663.41,1.99,20723.9,408,223,20723.91,221,429480448,4294821529,1999,1.01,-0.01,0.18,-0.4,1.38,2.43,-1.04,-78.34,-10.99,-0.21,-0.66,-10.59,-3.34,Walking
45:16.0,776,515,772.5,998,409,1.5,666.12,2,20723.57,407,226,20723.92,222,429480704,0,0,1,-0.03,0.15,4.5,-2.99,4.5,-2.11,-79.68,-10.36,-0.84,0,-10.03,-3.99,Walking
45:16.1,323,509,763.5,998,410,1.5,668.84,2,20723.57,407,224,20723.92,222,429480704,4294951936,224,0.99,-0.05,0.14,2.45,-2.5,1.31,-3.53,-80,-9.97,-1.41,0.27,-9.72,-4.55,Walking
45:16.2,439,506,759,998,410,1.5,668.84,2,20723.57,407,225,20723.92,222,429480704,4294937025,449,0.98,-0.05,0.12,3.32,-3.14,2.43,-3.64,-80.57,-9.49,-2.05,0.67,-9.25,-5.19,Walking
45:16.4,681,512,768,998,411,1.49,671.57,2.01,20723.57,407,227,20723.92,222,429480704,4294923018,676,1.01,-0.05,0.11,3.13,-6.82,2.37,-3.26,-81.65,-9.02,-3.17,1.07,-8.79,-6.31,Walking
45:16.5,360,507,760.5,998,411,1.49,671.57,2.01,20723.57,407,225,20723.92,222,429480704,4294908107,901,1.04,-0.04,0.09,8.89,-7.88,-0.39,-2.93,-83.08,-7.83,-4.42,1.12,-7.63,-7.56,Walking
45:16.6,379,503,754.5,998,411,1.49,671.57,2.01,20723.57,407,225,20723.92,222,429480704,4294893196,1126,1.01,-0.05,0.09,13.03,-8.95,-0.25,-3.42,-82.62,-6.1,-5.81,1.19,-6,-8.88,Walking
45:16.8,762,511,766.5,998,411,1.49,671.57,2.01,20723.57,407,224,20723.92,222,429480704,4294877836,1350,1.02,-0.01,0.05,8.31,-13.51,-2.09,-1.34,-85.36,-4.98,-7.78,1.03,-4.83,-10.88,Walking
45:16.9,849,520,780,998,410,1.5,668.84,2,20723.57,407,226,20723.92,222,429480704,4294863376,1576,0.99,-0.02,-0.01,20.21,-1.73,-0.47,-1.6,-87.29,-2.34,-8.25,1.07,-2.31,-11.41,Walking
45:17.0,512,520,780,998,409,1.5,666.12,2,20723.57,407,225,20723.92,222,429480704,4294848465,1801,1.03,-0.07,-0.02,6.46,-2.02,3.1,-4.58,-84.24,-1.44,-8.76,1.56,-1.57,-11.78,Walking
45:17.1,591,522,783,998,408,1.51,663.41,1.99,20723.57,407,225,20723.92,222,429480704,4294833554,2026,1.03,-0.06,-0.04,3.75,-2.81,-0.97,-3.65,-84.61,-0.89,-9.37,1.54,-1,-12.38,Walking
45:17.3,255,515,772.5,998,409,1.5,666.12,2,20723.62,410,226,20723.95,225,429481920,0,0,1.03,-0.04,-0.06,-2.75,4.92,-0.04,-2.91,-84.35,-1.17,-9.01,1.63,-1.24,-12.02,Walking
45:17.4,748,521,781.5,998,409,1.5,666.12,2,20723.62,410,224,20723.95,225,429481920,4294951936,224,1.03,-0.05,-0.04,4.77,-3.49,0.49,-3.1,-84.88,-0.49,-9.71,1.8,-0.59,-12.71,Walking
45:17.5,651,524,786,998,409,1.5,666.12,2,20723.62,410,227,20723.95,225,429481920,4294937929,451,1.05,-0.06,-0.07,5.79,-9.34,2.77,-3.61,-83.61,0.32,-11.15,2.25,0.16,-14.04,Walking
45:17.6,258,518,777,998,409,1.5,666.12,2,20723.62,410,226,20723.95,225,429481920,4294923469,677,1.03,-0.06,-0.08,-2.87,-0.72,-7.24,-3.72,-83.09,0.02,-11.49,1.44,-0.13,-14.35,Walking
45:17.8,555,518,777,998,408,1.51,663.41,1.99,20723.62,410,226,20723.95,225,429481920,4294909009,903,1.01,-0.02,-0.07,-2.08,6.21,-6.33,-1.46,-84.38,-0.17,-10.95,0.73,-0.22,-13.89,Walking
45:17.9,507,518,777,998,408,1.51,663.41,1.99,20723.62,410,224,20723.95,225,429481920,4294893649,1127,1.01,-0.03,-0.09,-1.01,-4.59,0.64,-2.22,-83.01,-0.23,-11.79,0.91,-0.31,-14.64,Walking
45:18.0,300,513,769.5,998,407,1.51,660.71,1.99,20723.62,410,226,20723.95,225,429481920,4294879189,1353,1.01,-0.07,-0.06,-12.75,2.98,-7.09,-4.62,-83.19,-1.78,-11.66,0.11,-1.89,-14.52,Walking
45:18.1,791,519,778.5,998,408,1.51,663.41,1.99,20723.62,410,226,20723.95,225,429481920,4294864729,1579,1,-0.03,-0.05,-13.18,13.51,-4.48,-2.49,-84.78,-3.39,-10.19,-0.36,-3.36,-13.17,Walking
45:18.3,347,516,774,998,408,1.51,663.41,1.99,20723.62,410,227,20723.95,225,429481920,4294850722,1806,1,-0.05,-0.03,-18.54,2.37,-3.95,-3.31,-85.33,-5.69,-10.14,-0.77,-5.6,-13.15,Walking
45:18.4,458,514,771,998,410,1.5,668.84,2,20723.62,410,228,20723.95,225,429481920,4294837170,2034,0.98,-0.03,0.01,-22.08,15.22,-3.35,-2.24,-86.62,-8.43,-8.46,-1.09,-8.18,-11.59,Walking
45:18.5,682,518,777,998,411,1.49,671.57,2.01,20723.59,408,227,20723.96,226,429482304,0,0,0.99,-0.01,0.04,-21.12,13.92,2.63,-1.26,-86.17,-11.02,-6.96,-0.66,-10.63,-10.13,Walking
45:18.7,386,515,772.5,998,411,1.49,671.57,2.01,20723.59,408,229,20723.96,226,429482304,4294954201,229,1.04,-0.01,0.08,-30.16,6.21,1.8,-1.25,-83.96,-14.78,-6.43,-0.33,-14.23,-9.53,Walking
45:18.8,510,515,772.5,998,411,1.49,671.57,2.01,20723.59,408,227,20723.96,226,429482304,4294940194,456,1.01,-0.05,0.1,-21.93,7.21,3.18,-3.35,-82.3,-17.51,-5.76,0.18,-16.94,-8.82,Walking
45:18.9,679,518,777,998,411,1.49,671.57,2.01,20723.59,408,229,20723.96,226,429482304,4294927099,685,1,-0.07,0.14,-15.93,8.44,-1.1,-4.49,-79.74,-19.46,-4.94,0.14,-18.86,-7.93,Walking
45:19.0,259,513,769.5,998,411,1.49,671.57,2.01,20723.59,408,228,20723.96,226,429482304,4294913547,913,1,-0.06,0.1,-7.25,7.22,-3.6,-4.21,-81.52,-20.31,-4.28,-0.22,-19.67,-7.37,Walking
45:19.2,701,517,775.5,998,411,1.49,671.57,2.01,20723.59,408,227,20723.96,226,429482304,4294899540,1140,1.02,-0.07,0.12,-14.49,-0.59,-1.2,-4.48,-80.83,-22.08,-4.61,-0.27,-21.38,-7.66,Walking
45:19.3,449,516,774,998,411,1.49,671.57,2.01,20723.59,408,229,20723.96,226,429482304,4294886445,1369,1.03,-0.1,0.18,-11.38,5.39,-7,-6.16,-76.95,-23.47,-4.17,-1.07,-22.77,-7.08,Walking
