Datetime, ECGR , AvgECG , ampECG , MAX , GSRR , Resistance , GSR(kohm) , SCL , GSRRMS , GSRMAV , EMGR , EMGRMS , EMGMAV , EMGVAR , EMGSSI , IEMG , AccX , AccY, AccZ , GyroX , GyroY , GyroZ , Aroll , Apitch , Groll , Gpitch, Gy , Combroll , Combpitch,Features
58:54.5,301,301,451.5,301,419,1.44,693.71,2.05,0,0,251,0,0,0,4294962226,502,1.01,0.08,-0.11,-2.05,0.92,-0.63,4.15,-80.63,-0.21,-0.24,-0.03,-0.04,-3.45,Sad
58:54.6,177,239,358.5,301,419,1.44,693.71,2.05,0,0,251,0,0,0,4294959691,753,1.01,0.07,-0.1,-1.41,1.6,-1.38,3.59,-81.24,-0.27,-0.27,-0.07,-0.12,-3.51,Sad
58:54.7,277,251,376.5,301,419,1.44,693.71,2.05,0,0,251,0,0,0,4294957156,1004,1.02,0.08,-0.1,-2.23,0.62,-1.53,3.86,-81.34,-0.4,-0.37,-0.13,-0.23,-3.61,Sad
58:54.8,439,298,447,439,419,1.44,693.71,2.05,0,0,251,0,0,0,4294954621,1255,1.01,0.08,-0.11,-2.15,0.34,-1.46,4.17,-80.53,-0.52,-0.49,-0.18,-0.33,-3.69,Sad
58:54.8,347,308,462,439,418,1.45,690.91,2.04,0,0,249,0,0,0,4294951086,1504,1.01,0.09,-0.12,-1.73,1.34,-0.82,4.22,-80.07,-0.6,-0.54,-0.18,-0.41,-3.72,Sad
58:54.9,249,298,447,439,419,1.44,693.71,2.05,0,0,249,0,0,0,4294947551,1753,1.01,0.08,-0.11,-1.73,1.79,-0.58,4.1,-80.78,-0.69,-0.56,-0.16,-0.5,-3.77,Sad
58:55.0,366,308,462,439,419,1.44,693.71,2.05,0,0,250,0,0,0,4294944515,2003,1.02,0.08,-0.1,-1.66,1.68,-1.23,3.88,-81.34,-0.77,-0.58,-0.19,-0.59,-3.81,Sad
58:55.1,432,323,484.5,439,419,1.44,693.71,2.05,0,0,250,0,0,0,4294941479,2253,1.02,0.08,-0.1,-1.7,0.18,-1.31,3.95,-81.26,-0.86,-0.72,-0.23,-0.66,-3.94,Sad
58:55.1,327,323,484.5,439,420,1.44,696.52,2.05,20723.8,419,251,20724.24,250,429493888,0,0,1.01,0.08,-0.1,-1.96,-0.38,-0.95,4.08,-80.97,-0.96,-0.9,-0.24,-0.76,-4.1,Sad
58:55.2,332,324,486,439,420,1.44,696.52,2.05,20723.8,419,250,20724.24,250,429493888,4294964260,250,1.01,0.08,-0.12,-1.75,1.42,-1.19,4.13,-80.36,-1.06,-0.94,-0.28,-0.85,-4.12,Sad
58:55.3,310,323,484.5,439,419,1.44,693.71,2.05,20723.8,419,250,20724.24,250,429493888,4294961224,500,1.01,0.08,-0.1,-1.98,2.31,-0.71,4.02,-80.99,-1.17,-0.92,-0.27,-0.96,-4.12,Sad
58:55.4,363,326,489,439,419,1.44,693.71,2.05,20723.8,419,250,20724.24,250,429493888,4294958188,750,1.02,0.08,-0.1,-1.34,1.2,-1.23,3.93,-81.35,-1.23,-0.98,-0.3,-1.02,-4.19,Sad
58:55.4,433,334,501,439,420,1.44,696.52,2.05,20723.8,419,250,20724.24,250,429493888,4294955152,1000,1.01,0.08,-0.1,-2.26,-0.46,-1.43,4.06,-81.09,-1.36,-1.17,-0.35,-1.14,-4.37,Sad
58:55.5,465,344,516,465,420,1.44,696.52,2.05,20723.8,419,252,20724.24,250,429493888,4294953120,1252,1.01,0.09,-0.11,-1.61,-0.31,-1.19,4.4,-80.39,-1.44,-1.35,-0.38,-1.21,-4.51,Sad
58:55.6,461,351,526.5,465,419,1.44,693.71,2.05,20723.8,419,250,20724.24,250,429493888,4294950084,1502,1.01,0.08,-0.11,-1.44,1.75,-0.1,3.7,-80.8,-1.51,-1.37,-0.33,-1.3,-4.55,Sad
58:55.7,476,359,538.5,476,419,1.44,693.71,2.05,20723.8,419,251,20724.24,250,429493888,4294947549,1753,1.02,0.08,-0.1,-2.51,2.82,-0.94,3.74,-81.25,-1.66,-1.31,-0.34,-1.44,-4.5,Sad
58:55.8,416,363,544.5,476,419,1.44,693.71,2.05,20723.8,419,252,20724.24,250,429493888,4294945517,2005,1.02,0.08,-0.1,-2.99,2.14,-1.62,4.15,-80.89,-1.85,-1.3,-0.41,-1.61,-4.48,Sad
58:55.8,403,365,547.5,476,420,1.44,696.52,2.05,20723.8,419,251,20724.24,250,429493888,4294942982,2256,1.02,0.09,-0.1,-2.09,0,-2.4,4.22,-80.91,-1.97,-1.45,-0.53,-1.72,-4.63,Sad
58:55.9,342,364,546,476,420,1.44,696.52,2.05,20723.81,419,252,20724.24,250,429494080,0,0,1.01,0.09,-0.11,-2.29,0.15,-0.94,4.53,-80.48,-2.1,-1.59,-0.54,-1.83,-4.75,Sad
58:56.0,396,365,547.5,476,420,1.44,696.52,2.05,20723.81,419,249,20724.24,250,429494080,4294963761,249,1.01,0.08,-0.1,-1.05,0.68,0.13,4.01,-81.03,-2.14,-1.69,-0.47,-1.89,-4.87,Sad
58:56.1,446,369,553.5,476,420,1.44,696.52,2.05,20723.81,419,248,20724.24,250,429494080,4294959729,497,1.01,0.07,-0.11,-1.63,1.89,0.18,3.43,-80.79,-2.22,-1.7,-0.4,-2,-4.86,Sad
58:56.1,479,374,561,479,420,1.44,696.52,2.05,20723.81,419,250,20724.24,250,429494080,4294956693,747,1.02,0.08,-0.09,-1.66,1.14,-1.72,3.82,-81.82,-2.31,-1.77,-0.47,-2.06,-4.97,Sad
58:56.2,478,378,567,479,420,1.44,696.52,2.05,20723.81,419,251,20724.24,250,429494080,4294954158,998,1.01,0.08,-0.11,-2.71,0.99,-1.91,4.18,-80.75,-2.47,-1.84,-0.55,-2.21,-5,Sad
58:56.3,474,382,573,479,420,1.44,696.52,2.05,20723.81,419,250,20724.24,250,429494080,4294951122,1248,1.02,0.09,-0.1,-2.39,1.19,-1.86,4.52,-80.66,-2.61,-1.91,-0.64,-2.33,-5.06,Sad
58:56.4,450,385,577.5,479,419,1.44,693.71,2.05,20723.81,419,248,20724.24,250,429494080,4294947090,1496,1,0.08,-0.1,-1.63,1.43,-0.63,4.19,-80.83,-2.7,-1.95,-0.62,-2.42,-5.11,Sad
58:56.4,408,386,579,479,419,1.44,693.71,2.05,20723.81,419,249,20724.24,250,429494080,4294943555,1745,1.01,0.09,-0.1,-1.62,2.27,-0.07,4.3,-80.81,-2.78,-1.93,-0.57,-2.5,-5.09,Sad
58:56.5,387,386,579,479,420,1.44,696.52,2.05,20723.81,419,249,20724.24,250,429494080,4294940020,1994,1.02,0.08,-0.09,-1.63,0.22,-1.34,3.78,-81.75,-2.86,-2.07,-0.61,-2.6,-5.26,Sad
58:56.6,425,387,580.5,479,420,1.44,696.52,2.05,20723.81,419,250,20724.24,250,429494080,4294936984,2244,1.02,0.08,-0.1,-2.05,-0.83,-1.38,3.89,-81.44,-2.98,-2.29,-0.66,-2.7,-5.45,Sad
58:56.7,467,390,585,479,419,1.44,693.71,2.05,20723.81,419,248,20724.22,249,429493280,0,0,1.02,0.09,-0.11,-1.92,0.56,-1.29,4.19,-80.51,-3.08,-2.4,-0.69,-2.79,-5.52,Sad
58:56.8,513,394,591,513,420,1.44,696.52,2.05,20723.81,419,249,20724.22,249,429493280,4294963761,249,1.01,0.08,-0.11,-1.46,2.08,-0.31,4.04,-80.86,-3.15,-2.39,-0.66,-2.86,-5.53,Sad
58:56.8,556,399,598.5,556,420,1.44,696.52,2.05,20723.81,419,251,20724.22,249,429493280,4294961226,500,1.02,0.08,-0.09,-1.45,0.22,-0.78,3.99,-81.54,-3.22,-2.53,-0.66,-2.93,-5.69,Sad
58:56.9,553,404,606,556,420,1.44,696.52,2.05,20723.81,419,250,20724.22,249,429493280,4294958190,750,1.01,0.08,-0.11,-1.78,-1.08,-1.31,3.74,-80.63,-3.32,-2.77,-0.7,-3.03,-5.88,Sad
58:57.0,503,407,610.5,556,420,1.44,696.52,2.05,20723.81,419,249,20724.22,249,429493280,4294954655,999,1.01,0.08,-0.11,-1.82,0.3,-1.23,4.07,-80.55,-3.41,-2.9,-0.73,-3.11,-6.01,Sad
58:57.1,461,409,613.5,556,420,1.44,696.52,2.05,20723.81,419,249,20724.22,249,429493280,4294951120,1248,1.01,0.08,-0.11,-1.44,2.4,-0.6,3.98,-80.55,-3.48,-2.87,-0.72,-3.18,-5.98,Sad
58:57.1,413,409,613.5,556,420,1.44,696.52,2.05,20723.81,419,246,20724.22,249,429493280,4294946100,1494,1.01,0.08,-0.1,-2.12,1.83,-0.66,3.66,-81.46,-3.6,-2.88,-0.71,-3.31,-6.03,Sad
58:57.2,437,410,615,556,419,1.44,693.71,2.05,20723.81,419,247,20724.22,249,429493280,4294941573,1741,1.02,0.07,-0.11,-1.5,-0.17,-1.63,3.51,-81.15,-3.68,-3.05,-0.77,-3.39,-6.18,Sad
58:57.3,450,411,616.5,556,420,1.44,696.52,2.05,20723.81,419,250,20724.22,249,429493280,4294938537,1991,1.01,0.08,-0.11,-2.11,-0.89,-1.98,4.09,-80.6,-3.8,-3.28,-0.86,-3.48,-6.37,Sad
58:57.4,476,412,618,556,420,1.44,696.52,2.05,20723.81,419,248,20724.22,249,429493280,4294934505,2239,1.01,0.09,-0.13,-1.94,1.12,-0.69,4.31,-79.83,-3.91,-3.35,-0.86,-3.58,-6.41,Sad
58:57.5,488,414,621,556,419,1.44,693.71,2.05,20723.81,419,250,20724.22,248,429493152,0,0,1.02,0.08,-0.11,-1.77,1.33,-0.38,3.98,-80.6,-4,-3.4,-0.83,-3.68,-6.49,Sad
58:57.5,536,417,625.5,556,420,1.44,696.52,2.05,20723.81,419,250,20724.22,248,429493152,4294964260,250,1.02,0.08,-0.11,-1.72,1.64,-0.94,3.91,-80.81,-4.09,-3.43,-0.84,-3.77,-6.52,Sad
58:57.6,506,419,628.5,556,420,1.44,696.52,2.05,20723.81,419,250,20724.22,248,429493152,4294961224,500,1.01,0.07,-0.11,-1.63,0.52,-2.12,3.57,-81.03,-4.17,-3.54,-0.94,-3.86,-6.64,Sad
58:57.7,437,420,630,556,420,1.44,696.52,2.05,20723.81,419,250,20724.22,248,429493152,4294958188,750,1.01,0.08,-0.1,-2.19,0.03,-1.56,4.18,-80.83,-4.3,-3.69,-1,-3.96,-6.78,Sad
58:57.8,411,420,630,556,420,1.44,696.52,2.05,20723.81,419,249,20724.22,248,429493152,4294954653,999,1.02,0.08,-0.1,-1.89,1.6,-1.23,4.04,-81.13,-4.4,-3.72,-1.04,-4.06,-6.82,Sad
58:57.8,420,420,630,556,419,1.44,693.71,2.05,20723.81,419,248,20724.22,248,429493152,4294950621,1247,1.01,0.08,-0.12,-2.21,2.14,-0.85,3.98,-80.32,-4.53,-3.71,-1.04,-4.19,-6.78,Sad
58:57.9,468,421,631.5,556,419,1.44,693.71,2.05,20723.81,419,248,20724.22,248,429493152,4294946589,1495,1.02,0.08,-0.11,-2,2.05,-1.2,3.8,-81.03,-4.64,-3.71,-1.07,-4.3,-6.8,Sad
58:58.0,478,422,633,556,421,1.43,699.34,2.06,20723.81,419,248,20724.22,248,429493152,4294942557,1743,1.02,0.08,-0.11,-2.48,1.36,-1.39,4.17,-80.73,-4.79,-3.76,-1.12,-4.43,-6.84,Sad
58:58.1,516,424,636,556,420,1.44,696.52,2.05,20723.81,419,250,20724.22,248,429493152,4294939521,1993,1.01,0.09,-0.1,-2.51,0.34,-1.44,4.3,-80.8,-4.94,-3.89,-1.17,-4.57,-6.97,Sad
58:58.2,570,427,640.5,570,420,1.44,696.52,2.05,20723.81,419,249,20724.22,248,429493152,4294935986,2242,1.01,0.09,-0.12,-2.33,0.76,-1.12,4.19,-80.3,-5.08,-3.99,-1.19,-4.71,-7.04,Sad
58:58.2,546,429,643.5,570,420,1.44,696.52,2.05,20723.82,419,247,20724.22,248,429493152,0,0,1,0.08,-0.09,-1.82,3.01,-0.44,4.09,-81.29,-5.17,-3.91,-1.17,-4.8,-7,Sad
58:58.3,465,430,645,570,420,1.44,696.52,2.05,20723.82,419,248,20724.22,248,429493152,4294963264,248,1.03,0.08,-0.1,-1.55,1.76,-1.55,3.77,-81.28,-5.25,-3.93,-1.23,-4.89,-7.02,Sad
58:58.4,431,430,645,570,421,1.43,699.34,2.06,20723.82,419,248,20724.22,248,429493152,4294959232,496,1.02,0.08,-0.11,-2.22,-0.85,-1.42,4.14,-80.8,-5.38,-4.15,-1.28,-5,-7.22,Sad
58:58.5,408,430,645,570,420,1.44,696.52,2.05,20723.82,419,249,20724.22,248,429493152,4294955697,745,1.02,0.09,-0.11,-2.2,0.21,-1.01,4.29,-80.36,-5.5,-4.29,-1.29,-5.11,-7.33,Sad
58:58.5,420,429,643.5,570,420,1.44,696.52,2.05,20723.82,419,248,20724.22,248,429493152,4294951665,993,1.01,0.08,-0.11,-1.92,1.93,-0.85,4,-80.78,-5.61,-4.29,-1.3,-5.23,-7.35,Sad
58:58.6,510,431,646.5,570,421,1.43,699.34,2.06,20723.82,419,248,20724.22,248,429493152,4294947633,1241,1.02,0.08,-0.1,-1.96,2.92,-1.27,4.16,-80.93,-5.72,-4.22,-1.34,-5.33,-7.29,Sad
58:58.7,507,432,648,570,420,1.44,696.52,2.05,20723.82,419,250,20724.22,248,429493152,4294944597,1491,1.01,0.08,-0.1,-2.31,1.76,-1.58,3.98,-81.13,-5.86,-4.24,-1.4,-5.46,-7.31,Sad
58:58.8,510,434,651,570,420,1.44,696.52,2.05,20723.82,419,247,20724.22,248,429493152,4294940070,1738,1,0.09,-0.1,-1.34,-0.47,-1.71,4.35,-80.7,-5.92,-4.43,-1.47,-5.51,-7.48,Sad
58:58.8,520,435,652.5,570,420,1.44,696.52,2.05,20723.82,419,251,20724.22,248,429493152,4294937535,1989,1.02,0.09,-0.11,-1.21,1.13,-0.01,4.21,-80.4,-5.97,-4.5,-1.41,-5.56,-7.53,Sad
58:58.9,477,436,654,570,420,1.44,696.52,2.05,20723.82,419,252,20724.22,248,429493152,4294935503,2241,1.01,0.08,-0.09,-1.94,2.81,0.02,3.85,-81.81,-6.08,-4.43,-1.34,-5.68,-7.53,Sad
58:59.0,445,436,654,570,421,1.43,699.34,2.06,20723.82,420,249,20724.22,249,429493184,0,0,1.01,0.08,-0.1,-1.29,1.23,-1.82,3.86,-81.36,-6.13,-4.49,-1.42,-5.73,-7.57,Sad
58:59.1,401,435,652.5,570,421,1.43,699.34,2.06,20723.82,420,247,20724.22,249,429493184,4294962769,247,1.01,0.08,-0.1,-2.63,-0.39,-1.68,4.11,-81.27,-6.29,-4.68,-1.49,-5.88,-7.74,Sad
58:59.2,431,435,652.5,570,420,1.44,696.52,2.05,20723.82,420,248,20724.22,249,429493184,4294958737,495,1.02,0.08,-0.11,-1.4,2.28,-0.64,4.14,-80.64,-6.36,-4.66,-1.48,-5.94,-7.7,Sad
58:59.2,515,437,655.5,570,420,1.44,696.52,2.05,20723.82,420,249,20724.22,249,429493184,4294955202,744,1.02,0.09,-0.09,-1.83,1.87,-0.4,4.27,-81.36,-6.46,-4.67,-1.45,-6.03,-7.74,Sad
58:59.3,529,438,657,570,421,1.43,699.34,2.06,20723.82,420,248,20724.22,249,429493184,4294951170,992,1.02,0.08,-0.1,-1.42,1.08,-0.87,3.73,-81.27,-6.52,-4.74,-1.45,-6.11,-7.8,Sad
58:59.4,532,440,660,570,420,1.44,696.52,2.05,20723.82,420,249,20724.22,249,429493184,4294947635,1241,1.01,0.08,-0.1,-2.27,-0.47,-1.13,3.74,-81.19,-6.66,-4.93,-1.48,-6.24,-7.98,Sad
58:59.5,560,441,661.5,570,420,1.44,696.52,2.05,20723.82,420,247,20724.22,249,429493184,4294943108,1488,1,0.08,-0.1,-1.81,0.27,-1.37,4.17,-80.96,-6.75,-5.07,-1.53,-6.32,-8.1,Sad
58:59.5,540,443,664.5,570,420,1.44,696.52,2.05,20723.82,420,247,20724.22,249,429493184,4294938581,1735,1.02,0.08,-0.11,-1.69,1.91,-0.05,3.82,-80.87,-6.84,-5.07,-1.47,-6.41,-8.11,Sad
58:59.6,475,443,664.5,570,420,1.44,696.52,2.05,20723.82,420,248,20724.22,249,429493184,4294934549,1983,1,0.08,-0.09,-2.08,0.23,-1.27,3.69,-81.62,-6.96,-5.21,-1.51,-6.53,-8.27,Sad
58:59.7,415,443,664.5,570,420,1.44,696.52,2.05,20723.82,420,249,20724.22,249,429493184,4294931014,2232,1.02,0.08,-0.12,-1.97,0.54,-1.05,3.89,-80.54,-7.07,-5.33,-1.53,-6.63,-8.33,Sad
58:59.8,392,442,663,570,420,1.44,696.52,2.05,20723.82,420,251,20724.21,248,429492832,0,0,1.01,0.08,-0.11,-2.45,0.68,-1.6,3.92,-80.87,-7.21,-5.43,-1.59,-6.77,-8.44,Sad
58:59.9,459,442,663,570,420,1.44,696.52,2.05,20723.82,420,249,20724.21,248,429492832,4294963761,249,1.02,0.09,-0.1,-1.66,2.95,-1.97,4.34,-80.77,-7.3,-5.35,-1.68,-6.83,-8.37,Sad
58:59.9,490,443,664.5,570,421,1.43,699.34,2.06,20723.82,420,248,20724.21,248,429492832,4294959729,497,1,0.08,-0.11,-2.72,1.02,-0.89,4.14,-80.76,-7.46,-5.43,-1.69,-7,-8.44,Sad
59:00.0,501,444,666,570,421,1.43,699.34,2.06,20723.82,420,248,20724.21,248,429492832,4294955697,745,1.02,0.09,-0.11,-1.6,0.7,-1.37,4.2,-80.78,-7.54,-5.53,-1.73,-7.07,-8.54,Sad
59:00.1,512,445,667.5,570,421,1.43,699.34,2.06,20723.82,420,248,20724.21,248,429492832,4294951665,993,1.01,0.08,-0.11,-1.86,0.09,0.13,3.75,-80.73,-7.64,-5.68,-1.66,-7.19,-8.68,Sad
59:00.2,478,445,667.5,570,421,1.43,699.34,2.06,20723.82,420,250,20724.21,248,429492832,4294948629,1243,1.02,0.08,-0.1,-1.23,-0.08,-0.95,3.84,-81.09,-7.7,-5.84,-1.67,-7.24,-8.85,Sad
59:00.2,434,445,667.5,570,421,1.43,699.34,2.06,20723.82,420,248,20724.21,248,429492832,4294944597,1491,1.01,0.08,-0.13,-2.65,1.24,-0.38,3.92,-79.88,-7.86,-5.9,-1.64,-7.39,-8.86,Sad
59:00.3,376,444,666,570,421,1.43,699.34,2.06,20723.82,420,249,20724.21,248,429492832,4294941062,1740,1.02,0.08,-0.09,-1.71,2.95,-1.34,3.68,-81.68,-7.95,-5.82,-1.68,-7.48,-8.86,Sad
59:00.4,392,444,666,570,421,1.43,699.34,2.06,20723.82,420,250,20724.21,248,429492832,4294938026,1990,1.01,0.07,-0.1,-2.89,1.95,-1.79,3.63,-81.19,-8.13,-5.83,-1.76,-7.66,-8.84,Sad
59:00.5,420,443,664.5,570,420,1.44,696.52,2.05,20723.82,420,248,20724.21,248,429492832,4294933994,2238,1.01,0.09,-0.09,-2.11,-0.82,-2.18,4.22,-81.31,-8.25,-6.05,-1.87,-7.75,-9.06,Sad
59:00.6,470,444,666,570,421,1.43,699.34,2.06,20723.83,420,248,20724.21,248,429492992,0,0,1.01,0.09,-0.11,-2.39,-0.38,-0.96,4.37,-80.52,-8.39,-6.23,-1.88,-7.88,-9.2,Sad
59:00.6,481,444,666,570,421,1.43,699.34,2.06,20723.83,420,248,20724.21,248,429492992,4294963264,248,1.01,0.08,-0.1,-1.44,2.88,-0.22,4.14,-80.89,-8.46,-6.16,-1.84,-7.95,-9.15,Sad
59:00.7,505,445,667.5,570,420,1.44,696.52,2.05,20723.83,420,249,20724.21,248,429492992,4294959729,497,1.02,0.08,-0.11,-1.84,2.64,-0.68,3.69,-81.12,-8.56,-6.11,-1.83,-8.07,-9.11,Sad
59:00.8,489,445,667.5,570,420,1.44,696.52,2.05,20723.83,420,250,20724.21,248,429492992,4294956693,747,1.01,0.07,-0.09,-2.43,1.36,-1.66,3.59,-81.81,-8.7,-6.16,-1.9,-8.21,-9.19,Sad
59:00.9,441,445,667.5,570,421,1.43,699.34,2.06,20723.83,420,250,20724.21,248,429492992,4294953657,997,1.02,0.08,-0.1,-1.9,-0.48,-1.73,3.98,-81.16,-8.8,-6.36,-1.97,-8.29,-9.35,Sad
59:00.9,403,445,667.5,570,420,1.44,696.52,2.05,20723.83,420,250,20724.21,248,429492992,4294950621,1247,1.01,0.09,-0.1,-1.77,-0.67,-0.6,4.37,-80.96,-8.9,-6.56,-1.96,-8.37,-9.54,Sad
59:01.0,389,444,666,570,420,1.44,696.52,2.05,20723.83,420,252,20724.21,248,429492992,4294948589,1499,1.02,0.08,-0.11,-1.08,2.08,0.61,3.88,-80.94,-8.94,-6.56,-1.85,-8.43,-9.53,Sad
59:01.1,437,444,666,570,420,1.44,696.52,2.05,20723.83,420,251,20724.21,248,429492992,4294946054,1750,1.01,0.08,-0.09,-1.85,0.99,-0.76,3.71,-81.62,-9.04,-6.64,-1.84,-8.53,-9.64,Sad
59:01.2,471,444,666,570,421,1.43,699.34,2.06,20723.83,420,247,20724.21,248,429492992,4294941527,1997,1.02,0.08,-0.11,-1.98,0.93,-2.02,3.75,-81.11,-9.15,-6.72,-1.94,-8.63,-9.69,Sad
59:01.3,505,445,667.5,570,421,1.43,699.34,2.06,20723.83,420,248,20724.21,248,429492992,4294937495,2245,1.01,0.08,-0.1,-2.77,-0.95,-1.82,4.11,-81.02,-9.32,-6.95,-2.02,-8.78,-9.91,Sad
59:01.3,508,446,669,570,421,1.43,699.34,2.06,20723.83,420,250,20724.22,249,429493440,0,0,1.01,0.09,-0.11,-1.12,1.64,-1.18,4.29,-80.29,-9.36,-6.97,-2.05,-8.82,-9.91,Sad
59:01.4,509,446,669,570,421,1.43,699.34,2.06,20723.83,420,248,20724.22,249,429493440,4294963264,248,1.01,0.08,-0.1,-1.64,3.38,-0.38,3.83,-81.24,-9.45,-6.86,-2.02,-8.91,-9.84,Sad
59:01.5,470,447,670.5,570,420,1.44,696.52,2.05,20723.83,420,248,20724.22,249,429493440,4294959232,496,1.02,0.08,-0.1,-1.94,1.35,-0.77,3.93,-81.37,-9.55,-6.92,-2.01,-9.01,-9.89,Sad
59:01.6,415,446,669,570,421,1.43,699.34,2.06,20723.83,420,248,20724.22,249,429493440,4294955200,744,1.02,0.08,-0.09,-1.47,-0.67,-1.63,3.82,-81.64,-9.62,-7.12,-2.08,-9.09,-10.1,Sad
59:01.6,392,446,669,570,421,1.43,699.34,2.06,20723.83,420,246,20724.22,249,429493440,4294950180,990,1.01,0.08,-0.11,-2.05,-0.74,-0.64,4.16,-80.77,-9.74,-7.33,-2.07,-9.18,-10.27,Sad
59:01.7,420,445,667.5,570,421,1.43,699.34,2.06,20723.83,420,249,20724.22,249,429493440,4294946645,1239,1.01,0.08,-0.11,-1.37,0.92,-0.77,3.8,-80.75,-9.8,-7.42,-2.07,-9.26,-10.35,Sad
59:01.8,460,446,669,570,420,1.44,696.52,2.05,20723.83,420,251,20724.22,249,429493440,4294944110,1490,1.01,0.07,-0.1,-1.73,2.47,-0.76,3.6,-81.24,-9.89,-7.38,-2.06,-9.35,-10.34,Sad
59:01.9,487,446,669,570,421,1.43,699.34,2.06,20723.83,420,244,20724.22,249,429493440,4294938110,1734,1.02,0.08,-0.1,-1.02,1.66,-1.51,3.67,-81.53,-9.93,-7.41,-2.12,-9.39,-10.37,Sad
59:02.0,496,446,669,570,421,1.43,699.34,2.06,20723.83,420,245,20724.22,249,429493440,4294932599,1979,1.01,0.08,-0.1,-2.23,-0.74,-1.47,3.7,-81.3,-10.06,-7.62,-2.17,-9.51,-10.57,Sad
59:02.0,562,448,672,570,421,1.43,699.34,2.06,20723.83,420,245,20724.22,249,429493440,4294927088,2224,1.01,0.08,-0.11,-2.16,-0.16,-1.17,4,-80.61,-10.18,-7.79,-2.2,-9.62,-10.7,Sad
59:02.1,531,448,672,570,420,1.44,696.52,2.05,20723.83,420,245,20724.19,246,429492160,0,0,1.01,0.07,-0.12,-1.54,2.27,-0.3,3.52,-80.71,-10.26,-7.77,-2.17,-9.71,-10.69,Sad
59:02.2,533,449,673.5,570,420,1.44,696.52,2.05,20723.83,420,245,20724.19,246,429492160,4294961785,245,1.01,0.08,-0.1,-1.93,2.27,-0.78,3.64,-81.23,-10.37,-7.75,-2.16,-9.81,-10.69,Sad
59:02.2,452,451,676.5,570,420,1.44,696.52,2.05,20723.83,420,246,20724.19,246,429492160,4294956765,491,1.02,0.08,-0.11,-2.4,0.76,-1.55,4.06,-80.91,-10.51,-7.85,-2.22,-9.93,-10.77,Sad
59:02.3,404,453,679.5,570,420,1.44,696.52,2.05,20723.83,420,246,20724.19,246,429492160,4294951745,737,1.01,0.08,-0.11,-1.95,-0.27,-1.63,3.7,-81.04,-10.62,-8.02,-2.29,-10.05,-10.94,Sad
59:02.4,400,454,681,570,420,1.44,696.52,2.05,20723.83,420,246,20724.19,246,429492160,4294946725,983,1.01,0.09,-0.11,-2.35,0.49,-0.4,4.19,-80.46,-10.76,-8.14,-2.26,-10.16,-11.03,Sad
59:02.5,456,455,682.5,570,421,1.43,699.34,2.06,20723.83,420,245,20724.19,246,429492160,4294941214,1228,1.02,0.07,-0.1,-0.46,0.67,-0.57,3.54,-81.44,-10.75,-8.24,-2.24,-10.18,-11.17,Sad
59:02.6,472,456,684,570,421,1.43,699.34,2.06,20723.83,420,244,20724.19,246,429492160,4294935214,1472,1.01,0.07,-0.1,-2.24,-0.05,-0.6,3.57,-81.39,-10.88,-8.4,-2.23,-10.3,-11.32,Sad
59:02.6,492,458,687,570,420,1.44,696.52,2.05,20723.83,420,245,20724.19,246,429492160,4294929703,1717,1.02,0.07,-0.11,-2.44,1.34,-1.53,3.53,-81,-11.03,-8.46,-2.28,-10.45,-11.36,Sad
59:02.7,477,459,688.5,570,420,1.44,696.52,2.05,20723.83,420,245,20724.19,246,429492160,4294924192,1962,1.02,0.08,-0.11,-2.04,3.1,-0.99,3.66,-81,-11.14,-8.37,-2.3,-10.55,-11.27,Sad
59:02.8,507,460,690,570,420,1.44,696.52,2.05,20723.83,420,247,20724.19,246,429492160,4294919665,2209,1.01,0.08,-0.09,-2.57,2.61,-1.8,3.71,-81.67,-11.3,-8.32,-2.38,-10.7,-11.25,Sad
59:02.9,504,462,693,570,420,1.44,696.52,2.05,20723.82,420,246,20724.18,245,429491456,0,0,1.01,0.08,-0.11,-1.73,1.31,-1.59,4.16,-80.59,-11.39,-8.37,-2.44,-10.77,-11.26,Sad
59:03.0,473,463,694.5,570,419,1.44,693.71,2.05,20723.82,420,246,20724.18,245,429491456,4294962276,246,1.01,0.08,-0.09,-2,-0.4,-0.74,3.99,-81.49,-11.5,-8.56,-2.44,-10.88,-11.48,Sad
59:03.0,454,465,697.5,570,419,1.44,693.71,2.05,20723.82,420,246,20724.18,245,429491456,4294957256,492,1.01,0.08,-0.11,-1.34,-0.51,-0.64,3.88,-80.87,-11.56,-8.76,-2.42,-10.95,-11.64,Sad
59:03.1,411,465,697.5,570,420,1.44,696.52,2.05,20723.82,420,247,20724.18,245,429491456,4294952729,739,1.02,0.07,-0.1,-1.09,2.5,0.47,3.39,-81.49,-11.6,-8.72,-2.33,-11.01,-11.63,Sad
59:03.2,419,465,697.5,570,420,1.44,696.52,2.05,20723.82,420,248,20724.18,245,429491456,4294948697,987,1.01,0.07,-0.1,-1.82,1.6,-1.44,3.29,-81.36,-11.7,-8.75,-2.38,-11.1,-11.65,Sad
59:03.3,411,464,696,570,420,1.44,696.52,2.05,20723.82,420,248,20724.18,245,429491456,4294944665,1235,1.02,0.08,-0.11,-1.98,1.12,-2.39,3.88,-80.77,-11.81,-8.82,-2.5,-11.19,-11.7,Sad
59:03.3,453,464,696,570,420,1.44,696.52,2.05,20723.82,420,248,20724.18,245,429491456,4294940633,1483,1.01,0.08,-0.1,-2.01,0.41,-1.28,4.15,-80.9,-11.93,-8.94,-2.54,-11.28,-11.82,Sad
59:03.4,508,465,697.5,570,419,1.44,693.71,2.05,20723.82,420,249,20724.18,245,429491456,4294937098,1732,1.01,0.08,-0.11,-1.73,1.11,-0.37,3.95,-80.77,-12.02,-9.01,-2.51,-11.38,-11.88,Sad
59:03.5,511,466,699,570,420,1.44,696.52,2.05,20723.82,420,248,20724.18,245,429491456,4294933066,1980,1.01,0.07,-0.11,-1.5,2.27,0.6,3.41,-81.23,-12.09,-8.99,-2.4,-11.47,-11.88,Sad
59:03.6,509,467,700.5,570,419,1.44,693.71,2.05,20723.82,420,246,20724.18,245,429491456,4294928046,2226,1.02,0.07,-0.09,-1.37,0.68,-1.42,3.38,-81.81,-12.16,-9.09,-2.45,-11.53,-12,Sad
59:03.7,540,469,703.5,570,419,1.44,693.71,2.05,20723.81,419,246,20724.2,247,429492288,0,0,1.02,0.08,-0.11,-2.5,-0.79,-1.59,3.7,-81.06,-12.3,-9.3,-2.51,-11.66,-12.17,Sad
59:03.7,533,470,705,570,419,1.44,693.71,2.05,20723.81,419,247,20724.2,247,429492288,4294962769,247,1.02,0.08,-0.1,-0.98,0.09,-1.15,3.8,-81.16,-12.34,-9.46,-2.54,-11.69,-12.32,Sad
59:03.8,484,470,705,570,420,1.44,696.52,2.05,20723.81,419,247,20724.2,247,429492288,4294958242,494,1.02,0.08,-0.11,-1.86,1.71,0.15,3.76,-80.82,-12.44,-9.48,-2.47,-11.79,-12.33,Sad
59:03.9,462,470,705,570,420,1.44,696.52,2.05,20723.81,419,246,20724.2,247,429492288,4294953222,740,1.02,0.07,-0.11,-1.27,2.24,-0.73,3.27,-81.29,-12.49,-9.46,-2.46,-11.86,-12.33,Sad
59:04.0,437,470,705,570,419,1.44,693.71,2.05,20723.81,419,247,20724.2,247,429492288,4294948695,987,1.02,0.07,-0.1,-1.66,1.08,-2.34,3.46,-81.41,-12.58,-9.53,-2.58,-11.94,-12.41,Sad
59:04.1,443,470,705,570,419,1.44,693.71,2.05,20723.81,419,247,20724.2,247,429492288,4294944168,1234,1.01,0.08,-0.11,-3.1,-1.06,-1.71,3.7,-80.82,-12.78,-9.77,-2.65,-12.12,-12.62,Sad
59:04.1,472,470,705,570,419,1.44,693.71,2.05,20723.81,419,249,20724.2,247,429492288,4294940633,1483,1.01,0.08,-0.12,-0.9,1.33,-1.01,3.73,-80.64,-12.81,-9.83,-2.67,-12.14,-12.66,Sad
59:04.2,499,471,706.5,570,420,1.44,696.52,2.05,20723.81,419,247,20724.2,247,429492288,4294936106,1730,1.01,0.07,-0.11,-2.54,3.05,-0.31,3.35,-81.13,-12.96,-9.74,-2.63,-12.31,-12.6,Sad
59:04.3,521,472,708,570,419,1.44,693.71,2.05,20723.81,419,250,20724.2,247,429492288,4294933070,1980,1.02,0.07,-0.11,-1.69,1.89,-1.47,3.53,-81.22,-13.05,-9.75,-2.69,-12.39,-12.61,Sad
59:04.4,528,473,709.5,570,419,1.44,693.71,2.05,20723.81,419,248,20724.2,247,429492288,4294929038,2228,1.02,0.08,-0.1,-2.4,-0.22,-2.12,3.65,-81.43,-13.19,-9.92,-2.79,-12.52,-12.78,Sad
59:04.4,550,474,711,570,420,1.44,696.52,2.05,20723.8,419,249,20724.2,247,429492544,0,0,1.01,0.08,-0.11,-1.97,0.54,-1.74,3.86,-80.92,-13.3,-10.04,-2.86,-12.61,-12.87,Sad
59:04.5,537,474,711,570,419,1.44,693.71,2.05,20723.8,419,245,20724.2,247,429492544,4294961785,245,1.01,0.08,-0.11,-1.25,1.24,-0.01,3.91,-80.93,-13.35,-10.1,-2.8,-12.66,-12.93,Sad
59:04.6,527,474,711,570,419,1.44,693.71,2.05,20723.8,419,247,20724.2,247,429492544,4294957258,492,1.01,0.07,-0.1,-1.85,2.21,-0.3,3.35,-81.68,-13.46,-10.08,-2.76,-12.78,-12.94,Sad
59:04.7,472,473,709.5,570,419,1.44,693.71,2.05,20723.8,419,247,20724.2,247,429492544,4294952731,739,1.02,0.06,-0.1,-1.38,0.43,-1.93,3.03,-81.66,-13.52,-10.2,-2.85,-12.86,-13.06,Sad
59:04.8,418,472,708,570,419,1.44,693.71,2.05,20723.8,419,245,20724.2,247,429492544,4294947220,984,1.01,0.08,-0.1,-3.24,-0.02,-1.89,3.84,-81.15,-13.73,-10.36,-2.94,-13.03,-13.19,Sad
59:04.8,401,472,708,570,420,1.44,696.52,2.05,20723.8,419,246,20724.2,247,429492544,4294942200,1230,1.01,0.08,-0.12,-1.5,2.04,-1.21,4.02,-80.04,-13.8,-10.36,-2.97,-13.09,-13.14,Sad
59:04.9,425,472,708,570,420,1.44,696.52,2.05,20723.8,419,246,20724.2,247,429492544,4294937180,1476,1.01,0.08,-0.1,-2.5,1.55,-0.48,3.8,-81.32,-13.96,-10.39,-2.94,-13.25,-13.23,Sad
59:05.0,450,472,708,570,420,1.44,696.52,2.05,20723.8,419,248,20724.2,247,429492544,4294933148,1724,1.01,0.08,-0.11,-1.78,1.47,-1.11,3.68,-80.92,-14.05,-10.43,-2.97,-13.34,-13.25,Sad
59:05.1,481,472,708,570,420,1.44,696.52,2.05,20723.8,419,245,20724.2,247,429492544,4294927637,1969,1.01,0.07,-0.11,-2.94,0.37,-0.94,3.58,-80.99,-14.24,-10.56,-2.98,-13.53,-13.38,Sad
59:05.1,481,472,708,570,419,1.44,693.71,2.05,20723.8,419,246,20724.2,247,429492544,4294922617,2215,1.01,0.08,-0.1,-1.4,1.54,-1.94,3.92,-81.27,-14.3,-10.6,-3.07,-13.57,-13.42,Sad
59:05.2,531,473,709.5,570,419,1.44,693.71,2.05,20723.8,419,249,20724.19,246,429491904,0,0,1.02,0.08,-0.1,-2.59,0.45,-0.78,3.89,-81.25,-14.46,-10.72,-3.07,-13.73,-13.54,Sad
59:05.3,542,473,709.5,570,419,1.44,693.71,2.05,20723.8,419,247,20724.19,246,429491904,4294962769,247,1.01,0.08,-0.11,-1.01,1.33,-0.23,3.69,-80.92,-14.49,-10.77,-3.03,-13.77,-13.57,Sad
59:05.4,543,473,709.5,570,419,1.44,693.71,2.05,20723.8,419,247,20724.19,246,429491904,4294958242,494,1.02,0.07,-0.11,-1.48,1.79,-0.99,3.54,-81.1,-14.57,-10.78,-3.04,-13.84,-13.6,Sad
59:05.5,510,474,711,570,420,1.44,696.52,2.05,20723.8,419,247,20724.19,246,429491904,4294953715,741,1.01,0.07,-0.1,-2.8,-0.81,-2.07,3.42,-81.52,-14.74,-11.01,-3.14,-14.02,-13.83,Sad
59:05.5,478,474,711,570,420,1.44,696.52,2.05,20723.8,419,245,20724.19,246,429491904,4294948204,986,1.01,0.08,-0.12,-1.6,1.18,-1.66,4.1,-80.39,-14.82,-11.07,-3.21,-14.07,-13.84,Sad
59:05.6,398,474,711,570,420,1.44,696.52,2.05,20723.8,419,245,20724.19,246,429491904,4294942693,1231,1.01,0.08,-0.1,-1.32,1.79,-0.35,4.05,-81.14,-14.88,-11.09,-3.18,-14.13,-13.89,Sad
59:05.7,398,474,711,570,419,1.44,693.71,2.05,20723.8,419,246,20724.19,246,429491904,4294937673,1477,1.01,0.08,-0.1,-1.53,1.79,-0.05,3.84,-81.08,-14.96,-11.1,-3.12,-14.21,-13.9,Sad
59:05.8,397,473,709.5,570,419,1.44,693.71,2.05,20723.8,419,246,20724.19,246,429491904,4294932653,1723,1.02,0.08,-0.1,-1.33,0.35,-1.36,3.66,-81.22,-15.02,-11.23,-3.17,-14.27,-14.03,Sad
59:05.9,388,471,706.5,570,420,1.44,696.52,2.05,20723.8,419,247,20724.19,246,429491904,4294928126,1970,1.01,0.08,-0.11,-2.4,-1.18,-1.76,3.92,-80.87,-15.16,-11.48,-3.24,-14.4,-14.26,Sad
59:05.9,424,470,705,570,420,1.44,696.52,2.05,20723.8,419,246,20724.19,246,429491904,4294923106,2216,1.02,0.08,-0.11,-1.66,1.13,-0.79,3.78,-80.9,-15.25,-11.55,-3.24,-14.49,-14.32,Sad
59:06.0,410,469,703.5,570,421,1.43,699.34,2.06,20723.81,419,246,20724.18,246,429491808,0,0,1.01,0.07,-0.1,-1.37,2.08,-0.44,3.32,-81.43,-15.31,-11.54,-3.21,-14.57,-14.34,Sad
59:06.1,466,469,703.5,570,420,1.44,696.52,2.05,20723.81,419,245,20724.18,246,429491808,4294961785,245,1.02,0.07,-0.11,-2.12,0.37,-0.92,3.3,-81.01,-15.43,-11.67,-3.22,-14.69,-14.45,Sad
59:06.2,476,469,703.5,570,420,1.44,696.52,2.05,20723.81,419,248,20724.18,246,429491808,4294957753,493,1.02,0.08,-0.11,-2.11,-0.84,-1.75,3.74,-81,-15.55,-11.89,-3.3,-14.78,-14.65,Sad
59:06.2,486,470,705,570,420,1.44,696.52,2.05,20723.81,419,246,20724.18,246,429491808,4294952733,739,1.02,0.08,-0.12,-2.16,1.27,-1.4,3.81,-80.15,-15.68,-11.95,-3.35,-14.9,-14.68,Sad
59:06.3,484,471,706.5,570,420,1.44,696.52,2.05,20723.81,419,245,20724.18,246,429491808,4294947222,984,1.02,0.08,-0.11,-1.37,3.08,-0.27,3.72,-80.79,-15.74,-11.86,-3.31,-14.96,-14.62,Sad
59:06.4,454,470,705,570,420,1.44,696.52,2.05,20723.81,419,245,20724.18,246,429491808,4294941711,1229,1.02,0.08,-0.1,-2.36,-0.35,-1.34,3.65,-81.6,-15.89,-12.05,-3.35,-15.1,-14.83,Sad
59:06.5,444,469,703.5,570,421,1.43,699.34,2.06,20723.81,419,246,20724.18,246,429491808,4294936691,1475,1.01,0.08,-0.11,-2.26,-0.15,-2.16,3.9,-80.6,-16.02,-12.22,-3.46,-15.22,-14.95,Sad
59:06.5,415,468,702,570,421,1.43,699.34,2.06,20723.81,419,246,20724.18,246,429491808,4294931671,1721,1.02,0.08,-0.12,-1.2,1.89,-0.17,3.66,-80.33,-16.07,-12.23,-3.41,-15.28,-14.95,Sad
59:06.6,389,467,700.5,570,421,1.43,699.34,2.06,20723.81,419,245,20724.18,246,429491808,4294926160,1966,1.02,0.08,-0.1,-1.45,1.66,-0.44,3.7,-81.18,-16.14,-12.25,-3.38,-15.35,-15.01,Sad
59:06.7,356,466,699,570,421,1.43,699.34,2.06,20723.81,419,247,20724.18,246,429491808,4294921633,2213,1.02,0.07,-0.11,-2.17,-0.13,-0.68,3.53,-81.17,-16.26,-12.42,-3.37,-15.47,-15.17,Sad
59:06.8,390,465,697.5,570,420,1.44,696.52,2.05,20723.83,420,246,20724.18,245,429491648,0,0,1.02,0.08,-0.11,-1.88,-0.86,-2.02,3.69,-81.14,-16.37,-12.64,-3.47,-15.56,-15.38,Sad
59:06.9,437,466,699,570,421,1.43,699.34,2.06,20723.83,420,247,20724.18,245,429491648,4294962769,247,1,0.08,-0.12,-3.37,1.27,-1.05,4.19,-80.12,-16.59,-12.7,-3.49,-15.76,-15.39,Sad
59:06.9,452,466,699,570,421,1.43,699.34,2.06,20723.83,420,247,20724.18,245,429491648,4294958242,494,1.02,0.08,-0.12,-2.15,2.52,-1.05,3.64,-80.49,-16.71,-12.66,-3.51,-15.9,-15.37,Sad
59:07.0,538,466,699,570,421,1.43,699.34,2.06,20723.83,420,247,20724.18,245,429491648,4294953715,741,1.02,0.08,-0.1,-2.02,2.55,-1.26,3.8,-81.21,-16.83,-12.61,-3.54,-16,-15.36,Sad
59:07.1,552,466,699,570,420,1.44,696.52,2.05,20723.83,420,248,20724.18,245,429491648,4294949683,989,1.01,0.08,-0.1,-2.33,1.39,-1.79,4.06,-81.24,-16.96,-12.66,-3.62,-16.12,-15.4,Sad
59:07.2,532,466,699,570,421,1.43,699.34,2.06,20723.83,420,247,20724.18,245,429491648,4294945156,1236,1.01,0.08,-0.11,-2.04,0.11,-0.48,3.8,-80.83,-17.08,-12.81,-3.6,-16.24,-15.53,Sad
59:07.3,546,466,699,570,420,1.44,696.52,2.05,20723.83,420,246,20724.18,245,429491648,4294940136,1482,1.01,0.07,-0.11,-1.54,1.07,-0.57,3.41,-81.23,-17.16,-12.88,-3.58,-16.33,-15.62,Sad
59:07.3,518,466,699,570,420,1.44,696.52,2.05,20723.83,420,246,20724.18,245,429491648,4294935116,1728,1.02,0.07,-0.12,-2.04,1.38,-0.53,3.52,-80.63,-17.27,-12.93,-3.56,-16.44,-15.64,Sad
59:07.4,445,466,699,570,420,1.44,696.52,2.05,20723.83,420,247,20724.18,245,429491648,4294930589,1975,1.01,0.07,-0.1,-2.19,1.98,-1.55,3.33,-81.5,-17.4,-12.93,-3.62,-16.57,-15.67,Sad
59:07.5,431,466,699,570,421,1.43,699.34,2.06,20723.83,420,248,20724.18,245,429491648,4294926557,2223,1.02,0.08,-0.09,-2.18,0.99,-2.4,3.75,-81.75,-17.53,-13.01,-3.75,-16.67,-15.76,Sad
59:07.6,390,466,699,570,420,1.44,696.52,2.05,20723.83,420,248,20724.2,247,429492256,0,0,1.01,0.08,-0.11,-1.92,-0.11,-1.28,3.96,-80.88,-17.63,-13.17,-3.78,-16.77,-15.88,Sad
59:07.6,401,465,697.5,570,421,1.43,699.34,2.06,20723.83,420,247,20724.2,247,429492256,4294962769,247,1.01,0.08,-0.11,-1.64,0.82,-0.23,3.9,-80.9,-17.71,-13.26,-3.74,-16.85,-15.97,Sad
59:07.7,422,465,697.5,570,420,1.44,696.52,2.05,20723.83,420,246,20724.2,247,429492256,4294957749,493,1.02,0.07,-0.1,-1.71,1.29,-0.29,3.6,-81.21,-17.8,-13.32,-3.7,-16.95,-16.03,Sad
59:07.8,469,464,696,570,421,1.43,699.34,2.06,20723.83,420,246,20724.2,247,429492256,4294952729,739,1.02,0.07,-0.1,-1.91,1.14,-0.86,3.19,-81.49,-17.91,-13.39,-3.71,-17.07,-16.11,Sad
59:07.9,507,464,696,570,421,1.43,699.34,2.06,20723.83,420,247,20724.2,247,429492256,4294948202,986,1.01,0.07,-0.1,-1.79,1.24,-1.82,3.19,-81.69,-18.01,-13.45,-3.79,-17.16,-16.17,Sad
59:08.0,514,465,697.5,570,421,1.43,699.34,2.06,20723.83,420,246,20724.2,247,429492256,4294943182,1232,1.01,0.08,-0.09,-2.37,-0.24,-1.02,3.98,-81.42,-18.15,-13.62,-3.8,-17.26,-16.33,Sad
59:08.0,495,465,697.5,570,421,1.43,699.34,2.06,20723.83,420,249,20724.2,247,429492256,4294939647,1481,1.02,0.08,-0.11,-1.16,-1.07,-0.4,3.75,-80.78,-18.2,-13.86,-3.77,-17.32,-16.54,Sad
59:08.1,484,466,699,570,421,1.43,699.34,2.06,20723.83,420,247,20724.2,247,429492256,4294935120,1728,1.01,0.07,-0.1,-2.08,0.86,0.02,3.25,-81.62,-18.31,-13.95,-3.71,-17.45,-16.66,Sad
59:08.2,525,468,702,570,420,1.44,696.52,2.05,20723.83,420,248,20724.2,247,429492256,4294931088,1976,1.02,0.06,-0.12,-1.27,1.92,-1.42,3.01,-80.98,-18.37,-13.96,-3.76,-17.52,-16.64,Sad
59:08.3,496,468,702,570,421,1.43,699.34,2.06,20723.83,420,248,20724.2,247,429492256,4294927056,2224,1.02,0.07,-0.11,-2.43,0.63,-1.54,3.5,-80.82,-18.52,-14.06,-3.82,-17.64,-16.73,Sad
59:08.3,477,468,702,570,421,1.43,699.34,2.06,20723.83,420,248,20724.2,247,429492288,0,0,1.01,0.07,-0.11,-1.92,0.65,-1.89,3.58,-81.17,-18.62,-14.17,-3.9,-17.73,-16.85,Sad
59:08.4,402,468,702,570,420,1.44,696.52,2.05,20723.83,420,247,20724.2,247,429492288,4294962769,247,1.01,0.08,-0.12,-2.44,1.13,-0.63,3.96,-80.33,-18.77,-14.24,-3.89,-17.86,-16.88,Sad
59:08.5,390,466,699,570,421,1.43,699.34,2.06,20723.83,420,247,20724.2,247,429492288,4294958242,494,1.02,0.07,-0.1,-1.2,1.24,-0.31,3.53,-81.3,-18.82,-14.29,-3.85,-17.92,-16.98,Sad
59:08.6,411,466,699,570,420,1.44,696.52,2.05,20723.83,420,248,20724.2,247,429492288,4294954210,742,1.02,0.07,-0.11,-2.18,1.01,-1.68,3.46,-80.96,-18.94,-14.37,-3.92,-18.05,-17.04,Sad
59:08.7,461,466,699,570,420,1.44,696.52,2.05,20723.83,420,247,20724.2,247,429492288,4294949683,989,1.01,0.08,-0.12,-2.54,0.98,-1.36,3.66,-80.38,-19.1,-14.45,-3.97,-18.19,-17.09,Sad
59:08.7,504,467,700.5,570,420,1.44,696.52,2.05,20723.83,420,248,20724.2,247,429492288,4294945651,1237,1.02,0.07,-0.11,-0.93,0.27,-1.22,3.5,-81.09,-19.13,-14.59,-4,-18.22,-17.25,Sad
59:08.8,510,468,702,570,420,1.44,696.52,2.05,20723.83,420,248,20724.2,247,429492288,4294941619,1485,1.01,0.07,-0.1,-2.89,1.58,-0.32,3.33,-81.41,-19.31,-14.62,-3.97,-18.4,-17.29,Sad
59:08.9,506,469,703.5,570,421,1.43,699.34,2.06,20723.83,420,248,20724.2,247,429492288,4294937587,1733,1.03,0.08,-0.11,-1.24,1.67,-1.78,3.7,-80.76,-19.36,-14.65,-4.04,-18.44,-17.29,Sad
59:09.0,507,469,703.5,570,421,1.43,699.34,2.06,20723.83,420,247,20724.2,247,429492288,4294933060,1980,1.02,0.07,-0.12,-2.61,0.17,-1.56,3.56,-80.67,-19.52,-14.79,-4.1,-18.6,-17.42,Sad
59:09.1,509,469,703.5,570,421,1.43,699.34,2.06,20723.83,420,248,20724.2,247,429492288,4294929028,2228,1.02,0.08,-0.13,-2.66,0.53,-1.49,3.66,-80.21,-19.69,-14.9,-4.16,-18.75,-17.52,Sad
59:09.1,557,470,705,570,421,1.43,699.34,2.06,20723.83,420,248,20724.2,247,429492512,0,0,1.01,0.07,-0.12,-1.93,2.26,-1.08,3.6,-80.63,-19.79,-14.88,-4.18,-18.86,-17.51,Sad
59:09.2,471,469,703.5,570,420,1.44,696.52,2.05,20723.83,420,250,20724.2,247,429492512,4294964260,250,1.01,0.08,-0.1,-2.24,2.62,-0.89,3.64,-81.26,-19.92,-14.84,-4.19,-18.98,-17.49,Sad
59:09.3,477,469,703.5,570,420,1.44,696.52,2.05,20723.83,420,250,20724.2,247,429492512,4294961224,500,1.01,0.07,-0.11,-2.11,1.27,-0.89,3.56,-81.03,-20.05,-14.89,-4.2,-19.1,-17.54,Sad
59:09.4,442,470,705,570,421,1.43,699.34,2.06,20723.83,420,249,20724.2,247,429492512,4294957689,749,1.02,0.08,-0.1,-1.78,0.48,-1.21,3.89,-81.3,-20.14,-15.01,-4.23,-19.18,-17.67,Sad
59:09.4,451,470,705,570,420,1.44,696.52,2.05,20723.83,420,249,20724.2,247,429492512,4294954154,998,1.02,0.07,-0.1,-2.07,-0.02,-0.57,3.5,-81.33,-20.26,-15.17,-4.21,-19.31,-17.82,Sad
59:09.5,448,470,705,570,420,1.44,696.52,2.05,20723.83,420,248,20724.2,247,429492512,4294950122,1246,1.02,0.07,-0.1,-1.34,1.05,-0.64,3.42,-81.39,-20.32,-15.24,-4.2,-19.37,-17.89,Sad
59:09.6,479,471,706.5,570,420,1.44,696.52,2.05,20723.83,420,248,20724.2,247,429492512,4294946090,1494,1.02,0.08,-0.11,-2.29,1.35,-0.82,3.72,-80.8,-20.45,-15.3,-4.2,-19.49,-17.92,Sad
59:09.7,502,471,706.5,570,420,1.44,696.52,2.05,20723.83,420,249,20724.2,247,429492512,4294942555,1743,1.02,0.08,-0.1,-1.71,0.85,-2.18,3.64,-81.3,-20.55,-15.39,-4.31,-19.58,-18.02,Sad
59:09.8,509,471,706.5,570,421,1.43,699.34,2.06,20723.83,420,249,20724.2,247,429492512,4294939020,1992,1.01,0.07,-0.11,-2.5,0.89,-1.22,3.55,-81.08,-20.7,-15.47,-4.35,-19.73,-18.1,Sad
59:09.8,479,470,705,570,421,1.43,699.34,2.06,20723.83,420,251,20724.2,247,429492512,4294936485,2243,1.01,0.07,-0.11,-1.38,1.42,-0.66,3.46,-81.04,-20.76,-15.52,-4.34,-19.79,-18.14,Sad
59:09.9,481,470,705,570,420,1.44,696.52,2.05,20723.82,420,249,20724.22,249,429493280,0,0,1.02,0.07,-0.11,-1.45,1.37,-0.44,3.33,-81.21,-20.83,-15.57,-4.31,-19.86,-18.19,Sad
59:10.0,470,469,703.5,570,421,1.43,699.34,2.06,20723.82,420,250,20724.22,249,429493280,4294964260,250,1.01,0.07,-0.11,-1.66,0.95,-0.95,3.27,-80.93,-20.92,-15.65,-4.32,-19.95,-18.26,Sad
59:10.1,484,469,703.5,570,421,1.43,699.34,2.06,20723.82,420,249,20724.22,249,429493280,4294960725,499,1.01,0.07,-0.11,-1.81,-0.23,-1.44,3.33,-81.23,-21.01,-15.82,-4.37,-20.04,-18.44,Sad
59:10.1,432,470,705,570,420,1.44,696.52,2.05,20723.82,420,249,20724.22,249,429493280,4294957190,748,1.01,0.07,-0.11,-2.2,-0.26,-0.94,3.5,-80.86,-21.14,-16,-4.39,-20.16,-18.6,Sad
59:10.2,402,470,705,570,421,1.43,699.34,2.06,20723.82,420,251,20724.22,249,429493280,4294954655,999,1,0.07,-0.11,-1.65,1.34,-0.77,3.68,-81,-21.23,-16.05,-4.38,-20.23,-18.65,Sad
59:10.3,408,469,703.5,570,420,1.44,696.52,2.05,20723.82,420,250,20724.22,249,429493280,4294951619,1249,1.02,0.07,-0.1,-1.62,1.38,-0.89,3.38,-81.47,-21.31,-16.1,-4.39,-20.32,-18.72,Sad
59:10.4,422,469,703.5,570,421,1.43,699.34,2.06,20723.82,420,248,20724.22,249,429493280,4294947587,1497,1.01,0.07,-0.11,-2.24,-0.05,-1.99,3.39,-80.88,-21.44,-16.26,-4.48,-20.45,-18.84,Sad
59:10.5,471,468,702,570,420,1.44,696.52,2.05,20723.82,420,250,20724.22,249,429493280,4294944551,1747,1.01,0.08,-0.12,-1.89,0.2,-1.12,3.71,-80.58,-21.54,-16.4,-4.51,-20.53,-18.97,Sad
59:10.6,518,469,703.5,570,420,1.44,696.52,2.05,20723.82,420,252,20724.22,249,429493280,4294942519,1999,1.01,0.07,-0.12,-1.75,1.87,-0.44,3.48,-80.43,-21.64,-16.41,-4.48,-20.63,-18.97,Sad
59:10.6,503,469,703.5,570,420,1.44,696.52,2.05,20723.82,420,250,20724.22,249,429493280,4294939483,2249,1.01,0.07,-0.11,-1.78,2.3,-0.63,3.27,-80.97,-21.73,-16.39,-4.47,-20.73,-18.97,Sad
59:10.7,506,469,703.5,570,421,1.43,699.34,2.06,20723.83,420,250,20724.23,249,429493632,0,0,1.02,0.07,-0.12,-1.4,0.63,-1.06,3.54,-80.67,-21.8,-16.49,-4.49,-20.78,-19.06,Sad
59:10.8,514,469,703.5,570,421,1.43,699.34,2.06,20723.83,420,252,20724.23,249,429493632,4294965264,252,1.01,0.07,-0.11,-2.1,-0.39,-1.67,3.27,-81.11,-21.92,-16.68,-4.56,-20.91,-19.26,Sad
59:10.8,467,469,703.5,570,421,1.43,699.34,2.06,20723.83,420,252,20724.23,249,429493632,4294963232,504,1.02,0.07,-0.11,-2.15,0.47,-1.33,3.5,-80.93,-22.04,-16.8,-4.6,-21.02,-19.36,Sad
59:10.9,499,470,705,570,421,1.43,699.34,2.06,20723.83,420,254,20724.23,249,429493632,4294962212,758,1,0.07,-0.11,-1.67,1.18,-1.31,3.49,-81.13,-22.13,-16.86,-4.64,-21.1,-19.43,Sad
59:11.0,492,471,706.5,570,421,1.43,699.34,2.06,20723.83,420,253,20724.23,249,429493632,4294960685,1011,1.01,0.07,-0.1,-0.02,1.61,0.51,3.41,-81.61,-22.09,-16.89,-4.54,-21.07,-19.48,Sad
59:11.1,440,471,706.5,570,420,1.44,696.52,2.05,20723.83,420,254,20724.23,249,429493632,4294959665,1265,1.02,0.06,-0.11,0.21,0.56,-1.02,3,-81.27,-22.03,-17.01,-4.56,-21.02,-19.58,Sad
59:11.2,500,472,708,570,420,1.44,696.52,2.05,20723.83,420,252,20724.23,249,429493632,4294957633,1517,1.02,0.06,-0.13,-1.85,1.29,-2.15,2.93,-80.46,-22.13,-17.06,-4.66,-21.12,-19.6,Sad
59:11.2,441,471,706.5,570,420,1.44,696.52,2.05,20723.83,420,250,20724.23,249,429493632,4294954597,1767,1.02,0.07,-0.11,-3.37,3.42,-3.08,3.5,-81.06,-22.35,-16.95,-4.84,-21.31,-19.51,Sad
59:11.3,422,470,705,570,420,1.44,696.52,2.05,20723.83,420,250,20724.23,249,429493632,4294951561,2017,1.01,0.07,-0.1,-3.44,0.27,-2.83,3.45,-81.58,-22.57,-17.08,-5,-21.53,-19.66,Sad
59:11.4,478,470,705,570,421,1.43,699.34,2.06,20723.83,420,252,20724.23,249,429493632,4294949529,2269,1.01,0.09,-0.07,-2.62,-7.31,-6.53,4.54,-81.84,-22.73,-17.82,-5.46,-21.64,-20.38,Sad
59:11.5,427,469,703.5,570,420,1.44,696.52,2.05,20723.83,420,251,20724.25,252,429494688,0,0,0.99,0.09,-0.14,-0.22,1.39,1.31,4.71,-78.96,-22.71,-17.86,-5.3,-21.61,-20.31,Sad
59:11.6,501,468,702,570,421,1.43,699.34,2.06,20723.83,420,251,20724.25,252,429494688,4294964761,251,1,0.08,-0.1,-0.21,5.37,4.54,3.94,-81.21,-22.68,-17.6,-4.88,-21.61,-20.14,Sad
59:11.6,500,469,703.5,570,420,1.44,696.52,2.05,20723.83,420,253,20724.25,252,429494688,4294963234,504,1.03,0.06,-0.12,0.05,4.52,2.82,2.96,-80.83,-22.63,-17.4,-4.59,-21.61,-19.94,Sad
59:11.7,479,469,703.5,570,421,1.43,699.34,2.06,20723.83,420,252,20724.25,252,429494688,4294961202,756,1.02,0.06,-0.11,-1.56,-1.12,-0.77,2.54,-81.74,-22.71,-17.64,-4.59,-21.7,-20.21,Sad
59:11.8,504,469,703.5,570,421,1.43,699.34,2.06,20723.83,420,252,20724.25,252,429494688,4294959170,1008,1.02,0.07,-0.13,-2.11,0.88,-4.56,3.18,-80.15,-22.83,-17.73,-4.89,-21.79,-20.23,Sad
59:11.9,480,470,705,570,420,1.44,696.52,2.05,20723.83,420,254,20724.25,252,429494688,4294958150,1262,1.01,0.07,-0.12,-1.85,4.18,-2.21,3.45,-80.43,-22.93,-17.56,-5,-21.88,-20.08,Sad
59:11.9,435,469,703.5,570,420,1.44,696.52,2.05,20723.83,420,251,20724.25,252,429494688,4294955615,1513,1.01,0.08,-0.09,-2.74,3,-0.93,3.7,-81.71,-23.1,-17.48,-5.01,-22.03,-20.05,Sad
59:12.0,409,469,703.5,570,421,1.43,699.34,2.06,20723.83,420,251,20724.25,252,429494688,4294953080,1764,1.02,0.07,-0.12,-1.08,0.73,-1.27,3.57,-80.69,-23.14,-17.58,-5.05,-22.08,-20.11,Sad
59:12.1,374,467,700.5,570,421,1.43,699.34,2.06,20723.83,420,252,20724.25,252,429494688,4294951048,2016,1.01,0.07,-0.11,-2.08,0.08,-1.28,3.65,-81.04,-23.27,-17.73,-5.09,-22.19,-20.27,Sad
59:12.2,411,466,699,570,421,1.43,699.34,2.06,20723.83,420,254,20724.25,252,429494688,4294950028,2270,1.02,0.07,-0.13,-1.58,0.25,-1.06,3.48,-80.32,-23.34,-17.87,-5.11,-22.27,-20.37,Sad
59:12.2,433,465,697.5,570,421,1.43,699.34,2.06,20723.83,420,252,20724.26,252,429494784,0,0,1.01,0.07,-0.11,-2.47,-0.3,-2.03,3.28,-81.06,-23.49,-18.04,-5.21,-22.42,-20.57,Sad
59:12.3,503,464,696,570,420,1.44,696.52,2.05,20723.83,420,253,20724.26,252,429494784,4294965769,253,1,0.07,-0.13,-2.05,2.1,-1.53,3.59,-80.12,-23.61,-18.04,-5.26,-22.52,-20.52,Sad
59:12.4,503,464,696,570,420,1.44,696.52,2.05,20723.83,420,254,20724.26,252,429494784,4294964749,507,1.02,0.08,-0.11,-1.18,2.08,-1.41,3.67,-81.12,-23.66,-18.03,-5.31,-22.56,-20.55,Sad
59:12.5,499,464,696,570,421,1.43,699.34,2.06,20723.83,420,254,20724.26,252,429494784,4294963729,761,1.01,0.07,-0.1,-1.42,1.25,-1.05,3.48,-81.3,-23.72,-18.09,-5.33,-22.64,-20.62,Sad
59:12.6,478,465,697.5,570,420,1.44,696.52,2.05,20723.83,420,254,20724.26,252,429494784,4294962709,1015,1.01,0.08,-0.11,-3.39,-0.95,-1.55,3.76,-81.03,-23.95,-18.32,-5.39,-22.84,-20.83,Sad
59:12.6,542,466,699,570,420,1.44,696.52,2.05,20723.83,420,253,20724.26,252,429494784,4294961182,1268,1.01,0.08,-0.11,-0.29,-0.16,-1.57,4.08,-80.5,-23.93,-18.49,-5.45,-22.81,-20.97,Sad
59:12.7,561,468,702,570,421,1.43,699.34,2.06,20723.83,420,253,20724.26,252,429494784,4294959655,1521,1.01,0.07,-0.11,-1.98,0.45,1.15,3.51,-80.84,-24.04,-18.61,-5.3,-22.94,-21.1,Sad
59:12.8,524,469,703.5,570,421,1.43,699.34,2.06,20723.83,420,253,20724.26,252,429494784,4294958128,1774,1.01,0.07,-0.11,-1.02,0.39,-0.49,3.46,-81.24,-24.07,-18.74,-5.28,-22.97,-21.24,Sad
59:12.9,459,468,702,570,420,1.44,696.52,2.05,20723.83,420,254,20724.26,252,429494784,4294957108,2028,1.02,0.07,-0.12,-1.74,-0.69,-0.25,3.12,-80.85,-24.17,-18.95,-5.23,-23.08,-21.43,Sad
59:13.0,422,468,702,570,421,1.43,699.34,2.06,20723.83,420,254,20724.26,252,429494784,4294956088,2282,1.02,0.07,-0.11,-1.92,-0.21,-1.47,3.56,-80.86,-24.28,-19.12,-5.29,-23.16,-21.59,Sad
59:13.0,421,467,700.5,570,421,1.43,699.34,2.06,20723.83,420,255,20724.28,253,429495552,0,0,1.02,0.07,-0.12,-2.4,2.81,-1.65,3.28,-80.56,-24.41,-19.06,-5.35,-23.31,-21.52,Sad
59:13.1,468,466,699,570,421,1.43,699.34,2.06,20723.83,420,254,20724.28,253,429495552,4294966276,254,1.01,0.07,-0.12,-3.13,3.5,-1.33,3.5,-80.68,-24.62,-18.95,-5.39,-23.49,-21.41,Sad
59:13.2,527,466,699,570,420,1.44,696.52,2.05,20723.83,420,254,20724.28,253,429495552,4294965256,508,1.01,0.07,-0.11,-2.22,1.65,-1.92,3.26,-80.93,-24.74,-18.97,-5.48,-23.62,-21.45,Sad
59:13.3,538,466,699,570,420,1.44,696.52,2.05,20723.83,420,253,20724.28,253,429495552,4294963729,761,1.01,0.07,-0.1,-3.02,1.05,-1.92,3.44,-81.36,-24.94,-19.05,-5.57,-23.8,-21.54,Sad
59:13.4,524,466,699,570,420,1.44,696.52,2.05,20723.83,420,254,20724.28,253,429495552,4294962709,1015,1.02,0.08,-0.1,-1.29,1.99,-0.41,3.72,-81.26,-24.99,-19.05,-5.54,-23.85,-21.54,Sad
59:13.4,529,468,702,570,420,1.44,696.52,2.05,20723.83,420,254,20724.28,253,429495552,4294961689,1269,1,0.07,-0.1,-2.39,-1.17,-0.26,3.36,-81.38,-25.14,-19.29,-5.5,-24,-21.78,Sad
59:13.5,538,469,703.5,570,421,1.43,699.34,2.06,20723.83,420,254,20724.28,253,429495552,4294960669,1523,1.03,0.07,-0.12,0.07,1.42,-0.69,3.25,-80.68,-25.09,-19.34,-5.49,-23.95,-21.79,Sad
59:13.6,494,470,705,570,420,1.44,696.52,2.05,20723.83,420,253,20724.28,253,429495552,4294959142,1776,1,0.06,-0.1,-3.11,0.62,-0.15,2.74,-81.99,-25.28,-19.45,-5.44,-24.16,-21.95,Sad
59:13.7,492,471,706.5,570,421,1.43,699.34,2.06,20723.83,420,253,20724.28,253,429495552,4294957615,2029,1.02,0.07,-0.12,-1.7,2.55,-1.1,3.48,-80.44,-25.37,-19.4,-5.47,-24.22,-21.84,Sad
59:13.7,445,471,706.5,570,421,1.43,699.34,2.06,20723.83,420,254,20724.28,253,429495552,4294956595,2283,1.01,0.06,-0.09,-1.58,1.86,-0.44,2.8,-82.16,-25.45,-19.41,-5.44,-24.32,-21.92,Sad
59:13.8,464,472,708,570,420,1.44,696.52,2.05,20723.83,420,255,20724.28,253,429495616,0,0,1.02,0.07,-0.11,-2.51,1.39,-1.56,3.16,-81.13,-25.6,-19.46,-5.5,-24.45,-21.93,Sad
59:13.9,407,471,706.5,570,420,1.44,696.52,2.05,20723.83,420,256,20724.28,253,429495616,0,256,1.01,0.07,-0.12,-0.91,0.95,-1.3,3.49,-80.43,-25.63,-19.54,-5.54,-24.46,-21.98,Sad
59:14.0,445,471,706.5,570,421,1.43,699.34,2.06,20723.83,420,256,20724.28,253,429495616,0,512,1.01,0.08,-0.12,-2.89,0.58,-0.95,3.75,-80.51,-25.81,-19.65,-5.55,-24.63,-22.08,Sad
59:14.1,503,471,706.5,570,421,1.43,699.34,2.06,20723.83,420,255,20724.28,253,429495616,4294966785,767,1.02,0.07,-0.12,-0.58,1.34,-1.72,3.49,-80.49,-25.81,-19.7,-5.62,-24.64,-22.13,Sad
59:14.1,542,472,708,570,421,1.43,699.34,2.06,20723.83,420,255,20724.28,253,429495616,4294966274,1022,1.02,0.07,-0.1,-2.22,1.36,-0.24,3.4,-81.52,-25.94,-19.75,-5.58,-24.77,-22.22,Sad
59:14.2,502,472,708,570,421,1.43,699.34,2.06,20723.83,420,256,20724.28,253,429495616,4294966274,1278,1.02,0.06,-0.11,-1.14,1.44,-1.44,2.85,-81.17,-25.99,-19.79,-5.63,-24.83,-22.25,Sad
59:14.3,500,473,709.5,570,421,1.43,699.34,2.06,20723.83,420,256,20724.28,253,429495616,4294966274,1534,1.01,0.07,-0.1,-2.75,-0.82,-1.28,3.22,-81.56,-26.16,-20.02,-5.67,-24.98,-22.48,Sad
59:14.4,520,474,711,570,421,1.43,699.34,2.06,20723.83,420,255,20724.28,253,429495616,4294965763,1789,1.02,0.07,-0.12,-1.86,1.06,-1.37,3.13,-80.82,-26.26,-20.09,-5.71,-25.09,-22.52,Sad
59:14.4,571,476,714,571,421,1.43,699.34,2.06,20723.83,420,254,20724.28,253,429495616,4294964743,2043,1.01,0.07,-0.1,-1.66,2.15,-1.19,3.19,-81.47,-26.35,-20.08,-5.74,-25.17,-22.54,Sad
59:14.5,503,477,715.5,571,420,1.44,696.52,2.05,20723.83,420,257,20724.28,253,429495616,4294965256,2300,1.02,0.07,-0.11,-2.21,1.94,-1.75,3.17,-81.23,-26.48,-20.08,-5.82,-25.29,-22.53,Sad
59:14.6,429,478,717,571,422,1.42,702.16,2.06,20723.83,420,254,20724.3,255,429496416,0,0,1.02,0.08,-0.11,-2.47,0.6,-2.37,3.68,-80.68,-26.62,-20.19,-5.94,-25.41,-22.61,Sad
59:14.7,371,477,715.5,571,421,1.43,699.34,2.06,20723.83,420,256,20724.3,255,429496416,0,256,1.02,0.07,-0.12,-2.01,0.26,-1.52,3.49,-80.66,-26.73,-20.33,-6,-25.52,-22.74,Sad
59:14.7,432,477,715.5,571,421,1.43,699.34,2.06,20723.83,420,256,20724.3,255,429496416,0,512,1.01,0.07,-0.11,-2.13,2.93,-0.92,3.46,-81.11,-26.85,-20.25,-6.01,-25.64,-22.69,Sad
59:14.8,497,476,714,571,422,1.42,702.16,2.06,20723.83,420,256,20724.3,255,429496416,0,768,1.01,0.07,-0.11,-1.4,2.13,-0.89,3.35,-80.97,-26.92,-20.24,-6.01,-25.71,-22.67,Sad
59:14.9,485,476,714,571,420,1.44,696.52,2.05,20723.83,420,255,20724.3,255,429496416,4294966785,1023,1.02,0.07,-0.11,-1.88,-0.16,-1.54,3.27,-81.21,-27.02,-20.41,-6.07,-25.81,-22.84,Sad
59:15.0,474,475,712.5,571,420,1.44,696.52,2.05,20723.83,420,255,20724.3,255,429496416,4294966274,1278,1.02,0.07,-0.11,-1.88,-0.18,-1.15,3.25,-81.36,-27.12,-20.58,-6.1,-25.91,-23.01,Sad
59:15.1,498,475,712.5,571,421,1.43,699.34,2.06,20723.83,420,256,20724.3,255,429496416,4294966274,1534,1.01,0.07,-0.1,-2.31,0.63,-1.73,3.51,-81.52,-27.26,-20.69,-6.17,-26.03,-23.12,Sad
59:15.1,498,474,711,571,421,1.43,699.34,2.06,20723.83,420,256,20724.3,255,429496416,4294966274,1790,1.01,0.07,-0.11,-1.93,1.66,0.35,3.4,-80.89,-27.37,-20.72,-6.08,-26.14,-23.12,Sad
59:15.2,471,475,712.5,571,421,1.43,699.34,2.06,20723.83,420,257,20724.3,255,429496416,4294966787,2047,1.02,0.06,-0.11,-1.44,0.66,-1.13,2.97,-81.31,-27.44,-20.82,-6.11,-26.22,-23.24,Sad
59:15.3,431,475,712.5,571,422,1.42,702.16,2.06,20723.83,420,255,20724.3,255,429496416,4294966276,2302,1.01,0.07,-0.12,-2.63,0.91,-1.27,3.4,-80.77,-27.6,-20.91,-6.15,-26.36,-23.3,Sad
59:15.4,406,475,712.5,571,422,1.42,702.16,2.06,20723.84,421,256,20724.3,255,429496640,0,0,1.01,0.07,-0.12,-2.42,0.79,-1.44,3.51,-80.61,-27.74,-21,-6.2,-26.49,-23.38,Sad
59:15.5,403,475,712.5,571,421,1.43,699.34,2.06,20723.84,421,257,20724.3,255,429496640,513,257,1.01,0.07,-0.11,-1.62,2.92,-1.69,3.32,-80.99,-27.82,-20.93,-6.27,-26.58,-23.33,Sad
59:15.5,455,475,712.5,571,421,1.43,699.34,2.06,20723.84,421,257,20724.3,255,429496640,1026,514,1.02,0.07,-0.1,-3.18,2.04,-0.06,3.43,-81.62,-28.02,-20.93,-6.21,-26.77,-23.35,Sad
59:15.6,512,476,714,571,421,1.43,699.34,2.06,20723.84,421,256,20724.3,255,429496640,1026,770,1.02,0.07,-0.1,-1.24,1.82,-1.59,3.29,-81.55,-28.08,-20.94,-6.27,-26.82,-23.36,Sad
59:15.7,529,476,714,571,421,1.43,699.34,2.06,20723.84,421,258,20724.3,255,429496640,2054,1028,1.01,0.07,-0.1,-2.47,-0.92,-0.45,3.57,-81.58,-28.22,-21.16,-6.25,-26.95,-23.58,Sad
59:15.8,495,476,714,571,422,1.42,702.16,2.06,20723.84,421,257,20724.3,255,429496640,2567,1285,1.02,0.07,-0.11,-1.6,-0.33,-1.92,3.49,-81.09,-28.3,-21.34,-6.34,-27.03,-23.73,Sad
59:15.8,483,475,712.5,571,421,1.43,699.34,2.06,20723.84,421,257,20724.3,255,429496640,3080,1542,1.01,0.07,-0.12,-2.4,2.16,0.4,3.33,-80.45,-28.45,-21.33,-6.24,-27.18,-23.7,Sad
59:15.9,432,475,712.5,571,421,1.43,699.34,2.06,20723.84,421,256,20724.3,255,429496640,3080,1798,1.03,0.07,-0.11,-1.95,1.76,-1.24,3.31,-81.39,-28.56,-21.35,-6.28,-27.28,-23.75,Sad
59:16.0,395,474,711,571,421,1.43,699.34,2.06,20723.84,421,255,20724.3,255,429496640,2569,2053,1.01,0.06,-0.1,-0.92,2.06,-3.65,3.03,-81.72,-28.58,-21.34,-6.5,-27.32,-23.76,Sad
59:16.1,414,473,709.5,571,420,1.44,696.52,2.05,20723.84,421,257,20724.3,255,429496640,3082,2310,1.02,0.07,-0.11,-3.38,-0.37,-1.98,3.54,-81.14,-28.8,-21.53,-6.59,-27.51,-23.91,Sad
59:16.1,474,473,709.5,571,421,1.43,699.34,2.06,20723.84,421,258,20.27,256,410,0,0,1.01,0.07,-0.11,-0.89,0.4,-0.89,3.56,-80.99,-28.83,-21.65,-6.6,-27.53,-24.02,Sad
59:16.2,481,474,711,571,420,1.44,696.52,2.05,20723.84,421,259,20.27,256,410,1545,259,1.02,0.08,-0.1,-1.77,1.68,-0.37,3.63,-81.43,-28.92,-21.67,-6.57,-27.62,-24.06,Sad
59:16.3,489,475,712.5,571,420,1.44,696.52,2.05,20723.84,421,257,20.27,256,410,2058,516,1.01,0.07,-0.12,-1.36,1.24,0.04,3.48,-80.66,-28.98,-21.73,-6.5,-27.68,-24.09,Sad
59:16.4,400,474,711,571,421,1.43,699.34,2.06,20723.84,421,258,20.27,256,410,3086,774,1.02,0.07,-0.09,-0.96,-0.15,-0.95,3.19,-81.96,-29.01,-21.89,-6.52,-27.72,-24.3,Sad
59:16.5,408,474,711,571,421,1.43,699.34,2.06,20723.84,421,258,20.27,256,410,4114,1032,1.01,0.07,-0.11,-2.44,-0.22,-1.83,3.25,-81.32,-29.15,-22.06,-6.6,-27.86,-24.43,Sad
59:16.5,500,474,711,571,421,1.43,699.34,2.06,20723.84,421,258,20.27,256,410,5142,1290,0.99,0.07,-0.13,-2.16,-2.79,1.42,3.2,-80.13,-29.27,-22.42,-6.43,-27.97,-24.73,Sad
59:16.6,516,474,711,571,421,1.43,699.34,2.06,20723.84,421,258,20.27,256,410,6170,1548,1.04,0.07,-0.11,-1.97,2.53,0.37,3.22,-81.25,-29.38,-22.38,-6.34,-28.08,-24.73,Sad
59:16.7,525,474,711,571,421,1.43,699.34,2.06,20723.84,421,257,20.27,256,410,6683,1805,1,0.06,-0.1,-1.27,5.67,-2.77,2.93,-81.79,-29.44,-22.1,-6.49,-28.14,-24.49,Sad
59:16.8,406,473,709.5,571,421,1.43,699.34,2.06,20723.84,421,261,20.27,256,410,9268,2066,1.02,0.07,-0.09,-2.83,-0.08,-0.56,3.33,-82.07,-29.61,-22.26,-6.47,-28.29,-24.65,Sad
59:16.8,409,472,708,571,422,1.42,702.16,2.06,20723.84,421,259,20.27,256,410,10813,2325,1.01,0.07,-0.11,-1.64,-4.15,-1.82,3.65,-80.97,-29.69,-22.72,-6.55,-28.36,-25.05,Sad
59:16.9,523,472,708,571,421,1.43,699.34,2.06,20723.83,420,260,35.87,258,1286,0,0,1.01,0.07,-0.13,-1.43,0.99,0.58,3.45,-80.02,-29.76,-22.8,-6.45,-28.43,-25.09,Sad
59:17.0,565,473,709.5,571,422,1.42,702.16,2.06,20723.83,420,257,35.87,258,1286,513,257,1.01,0.06,-0.12,-1.36,2.98,-0.45,2.94,-81,-29.81,-22.72,-6.42,-28.5,-25.05,Sad
59:17.1,501,473,709.5,571,421,1.43,699.34,2.06,20723.83,420,256,35.87,258,1286,513,513,1.02,0.06,-0.11,-2.03,2.61,-1.76,2.62,-81.36,-29.93,-22.68,-6.5,-28.62,-25.02,Sad
59:17.1,437,473,709.5,571,421,1.43,699.34,2.06,20723.83,420,258,35.87,258,1286,1541,771,1.02,0.07,-0.11,-3.79,0.52,-3.13,3.35,-81.12,-30.17,-22.79,-6.67,-28.83,-25.12,Sad
59:17.2,481,473,709.5,571,420,1.44,696.52,2.05,20723.83,420,259,35.87,258,1286,3086,1030,1.02,0.08,-0.1,-1.78,0.93,-3.04,3.92,-81.16,-30.26,-22.87,-6.84,-28.9,-25.2,Sad
59:17.3,516,474,711,571,421,1.43,699.34,2.06,20723.83,420,257,35.87,258,1286,3599,1287,1,0.08,-0.11,-2.93,0.93,-0.44,3.8,-80.89,-30.44,-22.95,-6.82,-29.07,-25.27,Sad
59:17.4,558,475,712.5,571,421,1.43,699.34,2.06,20723.83,420,257,35.87,258,1286,4112,1544,1.01,0.08,-0.11,-0.42,1.52,-0.37,4.03,-80.55,-30.43,-22.99,-6.79,-29.05,-25.29,Sad
59:17.4,494,475,712.5,571,421,1.43,699.34,2.06,20723.83,420,258,35.87,258,1286,5140,1802,1,0.06,-0.09,-2.37,-0.05,0.86,2.97,-82.11,-30.57,-23.14,-6.66,-29.23,-25.5,Sad
59:17.5,477,474,711,571,421,1.43,699.34,2.06,20723.83,420,257,35.87,258,1286,5653,2059,1.04,0.07,-0.12,-5.52,-0.58,-1.62,3.37,-80.54,-30.94,-23.34,-6.72,-29.57,-25.63,Sad
59:17.6,479,474,711,571,420,1.44,696.52,2.05,20723.83,420,258,35.87,258,1286,6681,2317,1.01,0.07,-0.13,0.99,2.07,-1.11,3.55,-80.05,-30.82,-23.33,-6.75,-29.45,-25.6,Sad
59:17.7,546,475,712.5,571,421,1.43,699.34,2.06,20723.83,420,260,29.56,257,873,0,0,1.03,0.06,-0.1,-4.06,5.75,0.95,2.95,-81.94,-31.09,-23.05,-6.62,-29.72,-25.41,Sad
59:17.7,508,475,712.5,571,420,1.44,696.52,2.05,20723.83,420,259,29.56,257,873,1545,259,1.02,0.06,-0.09,-0.98,2.39,-2.1,2.93,-82.28,-31.12,-23.02,-6.72,-29.76,-25.39,Sad
59:17.8,487,475,712.5,571,421,1.43,699.34,2.06,20723.83,420,258,29.56,257,873,2573,517,1.03,0.06,-0.1,-2.11,-3.87,-1.83,2.98,-82,-31.23,-23.46,-6.79,-29.86,-25.8,Sad
59:17.9,405,475,712.5,571,421,1.43,699.34,2.06,20723.83,420,257,29.56,257,873,3086,774,1.01,0.07,-0.12,-2.17,-2.39,-1.03,3.56,-80.5,-31.35,-23.8,-6.81,-29.96,-26.06,Sad
59:18.0,493,476,714,571,420,1.44,696.52,2.05,20723.83,420,258,29.56,257,873,4114,1032,1.01,0.07,-0.11,0.21,2.75,0.56,3.36,-81.03,-31.3,-23.74,-6.71,-29.91,-26.03,Sad
59:18.0,526,477,715.5,571,421,1.43,699.34,2.06,20723.83,420,259,29.56,257,873,5659,1291,1.02,0.06,-0.1,-0.95,2.92,-0.21,2.58,-82.04,-31.33,-23.67,-6.66,-29.97,-26,Sad
59:18.1,501,478,717,571,420,1.44,696.52,2.05,20723.83,420,257,29.56,257,873,6172,1548,1.01,0.06,-0.1,-2.53,1.82,-2.58,2.82,-81.82,-31.48,-23.68,-6.8,-30.1,-26.01,Sad
59:18.2,457,478,717,571,421,1.43,699.34,2.06,20723.83,420,258,29.56,257,873,7200,1806,1.02,0.07,-0.11,-2.47,-0.04,-3,3.31,-81.23,-31.62,-23.83,-6.97,-30.22,-26.13,Sad
59:18.3,392,477,715.5,571,420,1.44,696.52,2.05,20723.83,420,259,29.56,257,873,8745,2065,1.01,0.08,-0.11,-1.76,-0.24,-1.47,3.67,-80.96,-31.71,-24.01,-7.02,-30.3,-26.29,Sad
59:18.3,454,476,714,571,420,1.44,696.52,2.05,20723.83,420,257,29.56,257,873,9258,2322,1.01,0.07,-0.12,-1.56,1.06,0.79,3.36,-80.73,-31.79,-24.08,-6.9,-30.38,-26.34,Sad
59:18.4,519,476,714,571,420,1.44,696.52,2.05,20723.83,420,259,32.86,258,1079,0,0,1.02,0.07,-0.1,-0.93,1.83,0.09,3.09,-81.57,-31.81,-24.09,-6.83,-30.42,-26.39,Sad
59:18.5,508,476,714,571,421,1.43,699.34,2.06,20723.83,420,258,32.86,258,1079,1028,258,1.02,0.06,-0.11,-1.73,2.3,-2.02,2.84,-81.54,-31.9,-24.07,-6.92,-30.51,-26.37,Sad
59:18.6,466,476,714,571,421,1.43,699.34,2.06,20723.83,420,255,32.86,258,1079,517,513,1.02,0.06,-0.11,-2.76,2.34,-2.49,2.95,-81.15,-32.07,-24.04,-7.05,-30.67,-26.33,Sad
59:18.6,419,475,712.5,571,420,1.44,696.52,2.05,20723.83,420,257,32.86,258,1079,1030,770,1,0.08,-0.09,-3.45,1,-3.38,3.82,-81.52,-32.29,-24.12,-7.25,-30.84,-26.41,Sad
59:18.7,477,475,712.5,571,421,1.43,699.34,2.06,20723.83,420,258,32.86,258,1079,2058,1028,1.02,0.08,-0.1,-0.94,0.84,-0.92,3.98,-81.3,-32.32,-24.21,-7.26,-30.87,-26.49,Sad
59:18.8,561,476,714,571,421,1.43,699.34,2.06,20723.83,420,258,32.86,258,1079,3086,1286,1.01,0.07,-0.11,-1.37,-2.25,1.09,3.16,-81.13,-32.38,-24.53,-7.12,-30.96,-26.79,Sad
59:18.9,542,477,715.5,571,421,1.43,699.34,2.06,20723.83,420,258,32.86,258,1079,4114,1544,1.02,0.06,-0.12,-0.24,-0.42,0.39,2.61,-80.92,-32.36,-24.71,-7.03,-30.96,-26.96,Sad
59:19.0,450,477,715.5,571,421,1.43,699.34,2.06,20723.83,420,257,32.86,258,1079,4627,1801,1.02,0.05,-0.11,-0.92,2.06,-0.4,2.39,-81.32,-32.38,-24.71,-7,-30.99,-26.97,Sad
59:19.0,431,477,715.5,571,421,1.43,699.34,2.06,20723.83,420,259,32.86,258,1079,6172,2060,1.02,0.06,-0.12,-2.15,3.66,-1.83,2.73,-81.14,-32.51,-24.58,-7.08,-31.1,-26.84,Sad
59:19.1,462,477,715.5,571,421,1.43,699.34,2.06,20723.83,420,257,32.86,258,1079,6685,2317,1.02,0.07,-0.1,-2.5,1.9,-2.17,3.13,-81.79,-32.65,-24.59,-7.19,-31.22,-26.87,Sad
59:19.2,511,478,717,571,420,1.44,696.52,2.05,20723.83,420,257,26.81,257,718,0,0,1.01,0.07,-0.11,-2.14,-0.85,-1.06,3.47,-81.24,-32.77,-24.8,-7.21,-31.32,-27.05,Sad
59:19.3,489,478,717,571,421,1.43,699.34,2.06,20723.83,420,255,26.81,257,718,4294966785,255,1.01,0.07,-0.1,-1.3,-0.92,-0.32,3.17,-81.75,-32.83,-25.02,-7.17,-31.39,-27.29,Sad
59:19.3,451,477,715.5,571,421,1.43,699.34,2.06,20723.83,420,256,26.81,257,718,4294966785,511,1.02,0.06,-0.12,-1.03,1.02,1.12,2.97,-80.67,-32.86,-25.1,-7.02,-31.43,-27.32,Sad
59:19.4,364,476,714,571,420,1.44,696.52,2.05,20723.83,420,256,26.81,257,718,4294966785,767,1.02,0.06,-0.1,-2.11,0.64,-0.87,2.64,-81.87,-32.98,-25.2,-7.03,-31.56,-27.47,Sad
59:19.5,404,475,712.5,571,420,1.44,696.52,2.05,20723.83,420,257,26.81,257,718,2,1024,1.02,0.07,-0.12,-1.29,0.84,-1.73,3.19,-80.64,-33.04,-25.29,-7.1,-31.59,-27.5,Sad
59:19.6,492,475,712.5,571,421,1.43,699.34,2.06,20723.83,420,257,26.81,257,718,515,1281,1.01,0.07,-0.1,-3.17,-0.49,-1.74,3.16,-81.5,-33.23,-25.48,-7.17,-31.78,-27.72,Sad
59:19.6,497,476,714,571,421,1.43,699.34,2.06,20723.83,420,256,26.81,257,718,515,1537,1.01,0.07,-0.12,-2.56,1.98,-1.26,3.22,-80.43,-33.38,-25.48,-7.21,-31.92,-27.68,Sad
59:19.7,430,476,714,571,420,1.44,696.52,2.05,20723.83,420,256,26.81,257,718,515,1793,1.01,0.06,-0.1,-1.79,2.09,-0.53,3.05,-81.72,-33.48,-25.47,-7.19,-32.02,-27.72,Sad
59:19.8,380,476,714,571,421,1.43,699.34,2.06,20723.83,420,256,26.81,257,718,515,2049,1.01,0.07,-0.11,-2.32,0.79,-1.24,3.21,-81.15,-33.61,-25.56,-7.22,-32.14,-27.79,Sad
59:19.9,447,476,714,571,422,1.42,702.16,2.06,20723.83,420,258,26.81,257,718,1543,2307,1.01,0.07,-0.12,-1.89,0.14,-0.05,3.27,-80.76,-33.71,-25.7,-7.16,-32.23,-27.9,Sad
59:19.9,521,477,715.5,571,422,1.42,702.16,2.06,20723.83,420,256,12.41,256,153,0,0,1.01,0.06,-0.11,-1.4,1.19,-1.21,2.77,-81.38,-33.77,-25.76,-7.2,-32.31,-27.99,Sad
59:20.0,482,477,715.5,571,421,1.43,699.34,2.06,20723.83,420,256,12.41,256,153,0,256,1.02,0.06,-0.11,-2.34,1.57,-0.8,2.93,-81.25,-33.91,-25.79,-7.2,-32.43,-28.01,Sad
59:20.1,409,476,714,571,421,1.43,699.34,2.06,20723.83,420,254,12.41,256,153,4294966276,510,1.02,0.06,-0.1,-1.9,1.17,-0.86,2.64,-81.83,-34.01,-25.86,-7.2,-32.55,-28.1,Sad
59:20.2,391,475,712.5,571,420,1.44,696.52,2.05,20723.83,420,255,12.41,256,153,4294965765,765,1.02,0.07,-0.11,-1.67,1.1,-1.63,3.1,-81.05,-34.1,-25.93,-7.27,-32.61,-28.13,Sad
59:20.2,464,475,712.5,571,421,1.43,699.34,2.06,20723.83,420,255,12.41,256,153,4294965254,1020,1,0.06,-0.1,-2.5,-0.73,-0.92,2.97,-81.45,-34.24,-26.14,-7.28,-32.76,-28.35,Sad
59:20.3,507,474,711,571,421,1.43,699.34,2.06,20723.83,420,255,12.41,256,153,4294964743,1275,1.02,0.06,-0.13,-0.98,0.5,-0.34,2.94,-80.41,-34.28,-26.25,-7.24,-32.79,-28.42,Sad
59:20.4,490,474,711,571,421,1.43,699.34,2.06,20723.83,420,255,12.41,256,153,4294964232,1530,1.01,0.05,-0.11,-1.9,1.21,0.02,2.41,-81.72,-34.38,-26.31,-7.18,-32.91,-28.53,Sad
59:20.5,505,474,711,571,421,1.43,699.34,2.06,20723.83,420,254,12.41,256,153,4294963212,1784,1.02,0.06,-0.11,-2.37,1.53,-2.15,2.71,-81.63,-34.52,-26.35,-7.28,-33.03,-28.56,Sad
59:20.6,451,473,709.5,571,421,1.43,699.34,2.06,20723.83,420,253,12.41,256,153,4294961685,2037,1.02,0.06,-0.11,-2.57,-0.61,-1.28,2.92,-81.32,-34.67,-26.55,-7.32,-33.17,-28.74,Sad
59:20.7,388,473,709.5,571,421,1.43,699.34,2.06,20723.83,420,253,12.41,256,153,4294960158,2290,1.01,0.07,-0.12,-1.27,-0.3,-1.73,3.15,-80.9,-34.73,-26.73,-7.39,-33.21,-28.89,Sad
59:20.7,447,473,709.5,571,422,1.42,702.16,2.06,20723.84,421,253,20724.28,254,429495872,0,0,1.01,0.06,-0.12,-1.69,1.4,-0.5,2.91,-80.59,-34.81,-26.77,-7.37,-33.31,-28.92,Sad
59:20.8,499,474,711,571,421,1.43,699.34,2.06,20723.84,421,253,20724.28,254,429495872,4294965769,253,1.01,0.05,-0.11,-1.4,0.43,-0.18,2.38,-81.72,-34.88,-26.9,-7.32,-33.39,-29.09,Sad
59:20.9,496,473,709.5,571,421,1.43,699.34,2.06,20723.84,421,254,20724.28,254,429495872,4294964749,507,1.02,0.06,-0.11,-1.6,0.17,-1.23,2.88,-81.22,-34.96,-27.04,-7.36,-33.45,-29.21,Sad
59:20.9,491,473,709.5,571,421,1.43,699.34,2.06,20723.84,421,253,20724.28,254,429495872,4294963222,760,1.01,0.06,-0.11,-2.6,-0.47,-1.89,2.9,-81.06,-35.12,-27.23,-7.45,-33.6,-29.38,Sad
59:21.0,482,472,708,571,421,1.43,699.34,2.06,20723.84,421,254,20724.28,254,429495872,4294962202,1014,1.02,0.06,-0.15,-1.88,1.02,-1.93,3.04,-79.4,-35.23,-27.31,-7.54,-33.7,-29.39,Sad
59:21.1,512,472,708,571,420,1.44,696.52,2.05,20723.84,421,253,20724.28,254,429495872,4294960675,1267,1.01,0.06,-0.11,-2.66,1.16,-0.72,2.85,-81.12,-35.39,-27.37,-7.53,-33.86,-29.52,Sad
59:21.2,505,472,708,571,421,1.43,699.34,2.06,20723.84,421,254,20724.28,254,429495872,4294959655,1521,1.03,0.06,-0.13,-1.08,1.95,-0.78,2.91,-80.51,-35.43,-27.38,-7.53,-33.9,-29.5,Sad
59:21.3,470,472,708,571,422,1.42,702.16,2.06,20723.84,421,252,20724.28,254,429495872,4294957623,1773,1.01,0.05,-0.12,-2.34,0.51,-0.98,2.46,-81.12,-35.57,-27.49,-7.54,-34.05,-29.64,Sad
59:21.3,434,471,706.5,571,420,1.44,696.52,2.05,20723.84,421,253,20724.28,254,429495872,4294956096,2026,1.02,0.06,-0.12,-2.05,0.73,-1.58,2.83,-80.66,-35.69,-27.59,-7.61,-34.15,-29.72,Sad
59:21.4,443,471,706.5,571,421,1.43,699.34,2.06,20723.84,421,253,20724.28,254,429495872,4294954569,2279,1.01,0.06,-0.12,-2.28,0.76,-1.11,2.92,-80.74,-35.82,-27.69,-7.63,-34.27,-29.81,Sad
59:21.5,417,471,706.5,571,422,1.42,702.16,2.06,20723.84,421,253,20724.27,253,429495296,0,0,1.02,0.06,-0.12,-2.69,1.79,-1.54,2.78,-80.92,-35.98,-27.71,-7.69,-34.43,-29.84,Sad
59:21.6,449,471,706.5,571,421,1.43,699.34,2.06,20723.84,421,252,20724.27,253,429495296,4294965264,252,1.01,0.06,-0.12,-1.74,1.21,-1.46,3.06,-80.61,-36.08,-27.77,-7.74,-34.51,-29.88,Sad
59:21.6,499,472,708,571,421,1.43,699.34,2.06,20723.84,421,252,20724.27,253,429495296,4294963232,504,1.01,0.06,-0.11,-2.5,0.23,-2.22,3.03,-81.48,-36.23,-27.91,-7.85,-34.66,-30.05,Sad
59:21.7,521,472,708,571,422,1.42,702.16,2.06,20723.84,421,252,20724.27,253,429495296,4294961200,756,1.02,0.07,-0.13,-1.76,0.76,-0.98,3.47,-79.94,-36.32,-28.01,-7.87,-34.73,-30.08,Sad
59:21.8,485,471,706.5,571,421,1.43,699.34,2.06,20723.84,421,251,20724.27,253,429495296,4294958665,1007,1,0.06,-0.11,-2.58,1.78,-0.5,2.96,-81.17,-36.48,-28.02,-7.84,-34.9,-30.15,Sad
59:21.9,530,472,708,571,422,1.42,702.16,2.06,20723.84,421,253,20724.27,253,429495296,4294957138,1260,1.02,0.06,-0.13,-1.69,3.54,-1.84,2.65,-80.52,-36.57,-27.9,-7.93,-35,-30.01,Sad
59:22.0,571,472,708,571,421,1.43,699.34,2.06,20723.84,421,252,20724.27,253,429495296,4294955106,1512,1.01,0.06,-0.11,-3.07,0.69,-1.6,3.03,-81.08,-36.77,-28,-7.99,-35.17,-30.13,Sad
59:22.0,544,472,708,571,421,1.43,699.34,2.06,20723.84,421,254,20724.27,253,429495296,4294954086,1766,1.02,0.07,-0.11,-1.73,1.08,-1.5,3.08,-81.32,-36.86,-28.08,-8.04,-35.26,-30.21,Sad
59:22.1,517,472,708,571,421,1.43,699.34,2.06,20723.84,421,251,20724.27,253,429495296,4294951551,2017,1.02,0.07,-0.11,-2.39,0.6,0.41,3.15,-81,-37,-28.19,-7.95,-35.39,-30.3,Sad
59:22.2,480,472,708,571,421,1.43,699.34,2.06,20723.84,421,251,20724.27,253,429495296,4294949016,2268,1.02,0.06,-0.12,-1.01,1.97,0.06,2.64,-81.08,-37.04,-28.19,-7.88,-35.45,-30.31,Sad
59:22.3,438,472,708,571,422,1.42,702.16,2.06,20723.84,421,252,20724.25,252,429494688,0,0,1.02,0.06,-0.11,-2.06,-0.15,-0.52,2.62,-81.35,-37.15,-28.36,-7.86,-35.56,-30.48,Sad
59:22.3,415,472,708,571,421,1.43,699.34,2.06,20723.84,421,252,20724.25,252,429494688,4294965264,252,1.01,0.06,-0.12,-2.43,-0.08,-2,2.95,-80.69,-37.3,-28.52,-7.96,-35.69,-30.6,Sad
59:22.4,451,472,708,571,422,1.42,702.16,2.06,20723.84,421,253,20724.25,252,429494688,4294963737,505,1.01,0.07,-0.12,-2.64,2.05,-1.61,3.19,-80.59,-37.46,-28.51,-8.02,-35.83,-30.6,Sad
59:22.5,476,472,708,571,422,1.42,702.16,2.06,20723.84,421,253,20724.25,252,429494688,4294962210,758,1.02,0.06,-0.12,-1.79,2.08,-1.26,2.94,-80.98,-37.56,-28.51,-8.06,-35.94,-30.61,Sad
59:22.6,480,472,708,571,421,1.43,699.34,2.06,20723.84,421,251,20724.25,252,429494688,4294959675,1009,1.02,0.07,-0.11,-1.61,1.74,-0.73,3.09,-81.15,-37.64,-28.53,-8.05,-36.01,-30.63,Sad
59:22.7,480,472,708,571,421,1.43,699.34,2.06,20723.84,421,251,20724.25,252,429494688,4294957140,1260,1.01,0.06,-0.11,-1.49,0.5,-1.12,3.03,-81.23,-37.71,-28.64,-8.08,-36.08,-30.75,Sad
59:22.7,493,472,708,571,421,1.43,699.34,2.06,20723.84,421,251,20724.25,252,429494688,4294954605,1511,1.02,0.06,-0.12,-1.44,-0.66,-0.88,2.71,-80.96,-37.78,-28.85,-8.09,-36.16,-30.94,Sad
59:22.8,518,472,708,571,422,1.42,702.16,2.06,20723.84,421,254,20724.25,252,429494688,4294953585,1765,1.01,0.06,-0.13,-2.16,0.95,-0.93,2.78,-80.53,-37.91,-28.94,-8.1,-36.28,-31,Sad
59:22.9,546,473,709.5,571,422,1.42,702.16,2.06,20723.84,421,251,20724.25,252,429494688,4294951050,2016,1.02,0.06,-0.12,-0.51,2.96,-1.75,2.82,-80.97,-37.9,-28.86,-8.17,-36.27,-30.95,Sad
59:23.0,522,474,711,571,421,1.43,699.34,2.06,20723.84,421,251,20724.25,252,429494688,4294948515,2267,1.02,0.06,-0.11,-1.85,1.05,-0.64,2.67,-81.57,-38,-28.94,-8.16,-36.38,-31.04,Sad
59:23.1,492,475,712.5,571,421,1.43,699.34,2.06,20723.84,421,252,20724.25,251,429494656,0,0,1.02,0.06,-0.11,-2.21,-0.63,-2.27,2.99,-81.25,-38.13,-29.14,-8.27,-36.48,-31.22,Sad
59:23.1,422,475,712.5,571,421,1.43,699.34,2.06,20723.84,421,251,20724.25,251,429494656,4294964761,251,1.01,0.07,-0.14,-1.52,-0.29,-0.82,3.29,-79.87,-38.2,-29.32,-8.27,-36.54,-31.34,Sad
59:23.2,398,474,711,571,421,1.43,699.34,2.06,20723.84,421,251,20724.25,251,429494656,4294962226,502,1.02,0.06,-0.11,-1.31,1.12,-0.34,2.95,-81.39,-38.26,-29.38,-8.24,-36.61,-31.46,Sad
59:23.3,378,473,709.5,571,422,1.42,702.16,2.06,20723.84,421,251,20724.25,251,429494656,4294959691,753,1.03,0.06,-0.14,-2.02,2.4,0.03,2.93,-80.15,-38.38,-29.35,-8.17,-36.73,-31.38,Sad
59:23.4,428,472,708,571,421,1.43,699.34,2.06,20723.84,421,251,20724.25,251,429494656,4294957156,1004,1.02,0.06,-0.1,-2.04,0.35,-1.67,2.9,-81.66,-38.49,-29.48,-8.24,-36.84,-31.57,Sad
59:23.4,429,471,706.5,571,421,1.43,699.34,2.06,20723.84,421,251,20724.25,251,429494656,4294954621,1255,1.02,0.06,-0.12,-2.44,0.21,-1.26,2.79,-80.82,-38.64,-29.62,-8.28,-36.98,-31.67,Sad
59:23.5,471,471,706.5,571,421,1.43,699.34,2.06,20723.84,421,252,20724.25,251,429494656,4294952589,1507,1.02,0.06,-0.11,-2.17,-0.1,-0.92,2.84,-81.24,-38.76,-29.79,-8.29,-37.1,-31.84,Sad
59:23.6,495,472,708,571,421,1.43,699.34,2.06,20723.84,421,250,20724.25,251,429494656,4294949553,1757,1.02,0.06,-0.13,-1.38,2.43,-0.73,2.82,-80.64,-38.83,-29.75,-8.28,-37.16,-31.79,Sad
59:23.7,521,473,709.5,571,422,1.42,702.16,2.06,20723.84,421,251,20724.25,251,429494656,4294947018,2008,1.02,0.06,-0.12,-1.82,0.7,-0.82,2.73,-81,-38.93,-29.85,-8.29,-37.26,-31.9,Sad
59:23.8,552,475,712.5,571,422,1.42,702.16,2.06,20723.84,421,253,20724.25,251,429494656,4294945491,2261,1.02,0.06,-0.12,-1.54,-0.02,-1.98,3,-80.95,-39.01,-30.01,-8.38,-37.33,-32.05,Sad
59:23.8,533,475,712.5,571,422,1.42,702.16,2.06,20723.84,421,251,20724.25,251,429494304,0,0,1.01,0.06,-0.11,-3.38,1.17,-1.49,2.96,-81.03,-39.22,-30.08,-8.43,-37.53,-32.11,Sad
59:23.9,462,475,712.5,571,421,1.43,699.34,2.06,20723.84,421,250,20724.25,251,429494304,4294964260,250,1.02,0.07,-0.13,-1.4,1.78,-1.66,3.06,-80.23,-39.28,-30.09,-8.5,-37.59,-32.1,Sad
59:24.0,442,475,712.5,571,421,1.43,699.34,2.06,20723.84,421,251,20724.25,251,429494304,4294961725,501,1.01,0.06,-0.1,-2.63,1.26,-1.5,3.06,-81.51,-39.44,-30.15,-8.56,-37.74,-32.2,Sad
59:24.1,410,475,712.5,571,422,1.42,702.16,2.06,20723.84,421,251,20724.25,251,429494304,4294959190,752,1.02,0.07,-0.12,-1.3,1.6,-1.59,3.11,-81,-39.5,-30.18,-8.62,-37.8,-32.22,Sad
59:24.1,413,475,712.5,571,421,1.43,699.34,2.06,20723.84,421,252,20724.25,251,429494304,4294957158,1004,1.02,0.07,-0.12,-2.34,0.3,-0.19,3.2,-80.84,-39.64,-30.32,-8.57,-37.93,-32.34,Sad
59:24.2,415,474,711,571,422,1.42,702.16,2.06,20723.84,421,253,20724.25,251,429494304,4294955631,1257,1.02,0.06,-0.13,-1.72,-0.37,-0.66,3.02,-80.48,-39.73,-30.5,-8.56,-38.02,-32.5,Sad
59:24.3,431,473,709.5,571,421,1.43,699.34,2.06,20723.84,421,251,20724.25,251,429494304,4294953096,1508,1.01,0.07,-0.12,-1.04,2.61,-0.98,3.17,-80.91,-39.77,-30.46,-8.58,-38.05,-32.47,Sad
59:24.4,467,472,708,571,422,1.42,702.16,2.06,20723.84,421,251,20724.25,251,429494304,4294950561,1759,1.01,0.06,-0.11,-3.04,1,-1.42,2.89,-81.25,-39.97,-30.53,-8.63,-38.25,-32.56,Sad
59:24.5,498,473,709.5,571,422,1.42,702.16,2.06,20723.84,421,254,20724.25,251,429494304,4294949541,2013,1.02,0.06,-0.12,-1.72,1.05,-2.24,2.98,-80.84,-40.06,-30.61,-8.74,-38.34,-32.62,Sad
59:24.5,493,474,711,571,422,1.42,702.16,2.06,20723.84,421,252,20724.25,251,429494304,4294947509,2265,1.01,0.06,-0.11,-2.89,0.6,-0.92,3.05,-81.21,-40.24,-30.72,-8.75,-38.51,-32.74,Sad
59:24.6,488,474,711,571,421,1.43,699.34,2.06,20723.85,421,251,20724.25,251,429494496,0,0,1.01,0.07,-0.11,-2.02,2.5,-0.84,3.39,-80.97,-40.35,-30.68,-8.75,-38.6,-32.69,Sad
59:24.7,495,473,709.5,571,421,1.43,699.34,2.06,20723.85,421,250,20724.25,251,429494496,4294964260,250,1.02,0.07,-0.1,-2.02,2.12,-0.5,3.15,-81.51,-40.47,-30.67,-8.73,-38.72,-32.7,Sad
59:24.8,496,473,709.5,571,421,1.43,699.34,2.06,20723.85,421,251,20724.25,251,429494496,4294961725,501,1.01,0.06,-0.11,-2.11,-0.68,-2.05,3.05,-81.36,-40.59,-30.88,-8.83,-38.84,-32.9,Sad
59:24.9,472,473,709.5,571,422,1.42,702.16,2.06,20723.85,421,251,20724.25,251,429494496,4294959190,752,1.02,0.07,-0.12,-2.62,0.47,-1.37,3.21,-80.59,-40.75,-31,-8.88,-38.99,-32.98,Sad
59:24.9,428,473,709.5,571,421,1.43,699.34,2.06,20723.85,421,250,20724.25,251,429494496,4294956154,1002,1.01,0.06,-0.11,-1.02,2.59,-1.5,2.93,-81.51,-40.78,-30.95,-8.93,-39.04,-32.97,Sad
59:25.0,427,472,708,571,421,1.43,699.34,2.06,20723.85,421,250,20724.25,251,429494496,4294953118,1252,1.02,0.07,-0.11,-2.21,2.5,-0.48,3.14,-81.11,-40.91,-30.91,-8.91,-39.15,-32.92,Sad
59:25.1,411,471,706.5,571,421,1.43,699.34,2.06,20723.85,421,249,20724.25,251,429494496,4294949583,1501,1.02,0.06,-0.11,-1.03,-0.01,-1.52,2.84,-81.38,-40.95,-31.07,-8.96,-39.2,-33.08,Sad
59:25.2,432,470,705,571,421,1.43,699.34,2.06,20723.85,421,250,20724.25,251,429494496,4294946547,1751,1.02,0.07,-0.11,-2.34,-0.44,-1.53,3.2,-81.33,-41.09,-31.26,-9.02,-39.32,-33.27,Sad
59:25.2,451,470,705,571,421,1.43,699.34,2.06,20723.85,421,249,20724.25,251,429494496,4294943012,2000,1.01,0.07,-0.12,-2.06,0.86,-0.87,3.31,-80.86,-41.21,-31.35,-9.03,-39.43,-33.33,Sad
59:25.3,489,470,705,571,421,1.43,699.34,2.06,20723.85,421,250,20724.25,251,429494496,4294939976,2250,1.01,0.07,-0.11,-1.23,2.28,-0.21,3.16,-80.96,-41.26,-31.33,-8.98,-39.48,-33.32,Sad
59:25.4,513,469,703.5,571,422,1.42,702.16,2.06,20723.84,421,251,20724.23,250,429493728,0,0,1.02,0.06,-0.11,-2.29,0.57,-0.69,2.8,-81.28,-41.39,-31.44,-8.97,-39.63,-33.43,Sad
59:25.5,541,470,705,571,422,1.42,702.16,2.06,20723.84,421,250,20724.23,250,429493728,4294964260,250,1.02,0.06,-0.12,-1.64,-0.3,-1.65,2.98,-80.7,-41.48,-31.62,-9.04,-39.7,-33.58,Sad
59:25.5,471,470,705,571,421,1.43,699.34,2.06,20723.84,421,250,20724.23,250,429493728,4294961224,500,1.02,0.07,-0.13,-2.63,-0.24,-1.6,3.23,-80.38,-41.64,-31.8,-9.1,-39.85,-33.74,Sad
59:25.6,479,470,705,571,422,1.42,702.16,2.06,20723.84,421,250,20724.23,250,429493728,4294958188,750,1.01,0.07,-0.13,-1.21,1.73,-0.85,3.14,-80.2,-41.69,-31.82,-9.11,-39.9,-33.75,Sad
59:25.7,463,470,705,571,421,1.43,699.34,2.06,20723.84,421,249,20724.23,250,429493728,4294954653,999,1.02,0.06,-0.11,-1.98,1.89,-0.7,2.61,-81.36,-41.8,-31.83,-9.1,-40.03,-33.81,Sad
59:25.8,479,470,705,571,422,1.42,702.16,2.06,20723.84,421,250,20724.23,250,429493728,4294951617,1249,1.01,0.07,-0.11,-2.09,0.82,-1.96,3.1,-80.99,-41.92,-31.92,-9.19,-40.12,-33.88,Sad
59:25.9,446,469,703.5,571,421,1.43,699.34,2.06,20723.84,421,251,20724.23,250,429493728,4294949082,1500,1.02,0.06,-0.12,-2.1,0.2,-2.24,2.98,-81.02,-42.04,-32.06,-9.31,-40.24,-34.02,Sad
59:25.9,394,468,702,571,421,1.43,699.34,2.06,20723.84,421,251,20724.23,250,429493728,4294946547,1751,1.01,0.07,-0.13,-2.28,2.44,-2.38,3.35,-80.11,-42.18,-32.03,-9.43,-40.36,-33.95,Sad
59:26.0,399,468,702,571,421,1.43,699.34,2.06,20723.84,421,250,20724.23,250,429493728,4294943511,2001,1.02,0.06,-0.11,-2.52,3.05,-1.34,2.92,-81.2,-42.33,-31.94,-9.48,-40.52,-33.91,Sad
59:26.1,406,468,702,571,421,1.43,699.34,2.06,20723.84,421,250,20724.23,250,429493728,4294940475,2251,1.01,0.07,-0.1,-2.34,0.31,-1.98,3.61,-81.21,-42.47,-32.08,-9.57,-40.63,-34.04,Sad
59:26.2,448,467,700.5,571,422,1.42,702.16,2.06,20723.84,421,251,20724.23,250,429493792,0,0,1.02,0.07,-0.12,-1.44,-1.02,0.59,3.57,-80.42,-42.54,-32.3,-9.46,-40.69,-34.23,Sad
59:26.3,514,467,700.5,571,421,1.43,699.34,2.06,20723.84,421,252,20724.23,250,429493792,4294965264,252,1.01,0.07,-0.11,-0.79,-1.44,0.67,3.12,-81.2,-42.56,-32.57,-9.35,-40.73,-34.52,Sad
59:26.3,506,468,702,571,421,1.43,699.34,2.06,20723.84,421,252,20724.23,250,429493792,4294963232,504,1.01,0.06,-0.13,-1.72,1.44,0.27,2.81,-80.53,-42.65,-32.62,-9.27,-40.83,-34.53,Sad
59:26.4,460,468,702,571,422,1.42,702.16,2.06,20723.84,421,250,20724.23,250,429493792,4294960196,754,1.02,0.06,-0.11,-2.27,1.42,-2.27,2.65,-81.27,-42.78,-32.66,-9.38,-40.96,-34.61,Sad
59:26.5,499,468,702,571,421,1.43,699.34,2.06,20723.84,421,251,20724.23,250,429493792,4294957661,1005,1.01,0.07,-0.12,-3.44,0.98,-3.01,3.07,-80.85,-43.01,-32.74,-9.56,-41.16,-34.67,Sad
59:26.6,497,468,702,571,422,1.42,702.16,2.06,20723.84,421,252,20724.23,250,429493792,4294955629,1257,1.01,0.08,-0.12,-2,0.77,-1.22,3.74,-80.36,-43.12,-32.84,-9.59,-41.24,-34.74,Sad
59:26.6,477,467,700.5,571,422,1.42,702.16,2.06,20723.84,421,249,20724.23,250,429493792,4294952094,1506,1.02,0.08,-0.11,-1.46,1.63,-0.23,3.74,-80.85,-43.19,-32.87,-9.55,-41.31,-34.79,Sad
59:26.7,489,467,700.5,571,421,1.43,699.34,2.06,20723.84,421,250,20724.23,250,429493792,4294949058,1756,1.02,0.06,-0.13,-1.51,0.78,0.52,2.94,-80.59,-43.26,-32.96,-9.44,-41.42,-34.87,Sad
59:26.8,473,468,702,571,422,1.42,702.16,2.06,20723.84,421,251,20724.23,250,429493792,4294946523,2007,1.01,0.06,-0.12,-2.21,0.37,-1.58,3.03,-80.74,-43.39,-33.09,-9.5,-41.53,-35,Sad
59:26.9,378,467,700.5,571,422,1.42,702.16,2.06,20723.84,421,251,20724.23,250,429493792,4294943988,2258,1.02,0.07,-0.13,-2.6,1.76,-1.53,3.05,-80.09,-43.55,-33.11,-9.56,-41.69,-34.99,Sad
59:27.0,394,466,699,571,421,1.43,699.34,2.06,20723.85,421,250,20724.24,250,429494080,0,0,1.02,0.07,-0.11,-2.38,1.56,-1.56,3.26,-81.22,-43.69,-33.14,-9.62,-41.81,-35.07,Sad
59:27.0,438,465,697.5,571,422,1.42,702.16,2.06,20723.85,421,250,20724.24,250,429494080,4294964260,250,1.01,0.07,-0.12,-2.14,2.08,-0.26,3.14,-80.73,-43.82,-33.14,-9.58,-41.94,-35.04,Sad
59:27.1,493,466,699,571,422,1.42,702.16,2.06,20723.85,421,250,20724.24,250,429494080,4294961224,500,1.02,0.06,-0.12,-1.49,0.67,-0.95,2.96,-80.94,-43.89,-33.24,-9.59,-42.01,-35.15,Sad
59:27.2,499,467,700.5,571,421,1.43,699.34,2.06,20723.85,421,250,20724.24,250,429494080,4294958188,750,1.01,0.06,-0.12,-2.44,-2.21,-1.27,2.96,-80.6,-44.03,-33.57,-9.63,-42.15,-35.45,Sad
59:27.3,527,468,702,571,421,1.43,699.34,2.06,20723.85,421,253,20724.24,250,429494080,4294956661,1003,1.02,0.07,-0.13,-2.12,0.61,-0.42,3.37,-80.13,-44.16,-33.68,-9.6,-42.26,-35.54,Sad
59:27.3,489,468,702,571,421,1.43,699.34,2.06,20723.85,421,251,20724.24,250,429494080,4294954126,1254,1.02,0.06,-0.12,-2.03,4.21,-1.33,2.81,-81.12,-44.27,-33.5,-9.64,-42.39,-35.41,Sad
59:27.4,488,468,702,571,421,1.43,699.34,2.06,20723.85,421,251,20724.24,250,429494080,4294951591,1505,1.01,0.07,-0.11,-1.98,3.45,-1.41,3.1,-81.22,-44.38,-33.39,-9.69,-42.49,-35.3,Sad
59:27.5,503,469,703.5,571,421,1.43,699.34,2.06,20723.85,421,249,20724.24,250,429494080,4294948056,1754,1.03,0.07,-0.1,-1.26,-0.69,-2.27,3.11,-81.79,-44.44,-33.6,-9.81,-42.54,-35.53,Sad
59:27.6,478,470,705,571,422,1.42,702.16,2.06,20723.85,421,250,20724.24,250,429494080,4294945020,2004,1.01,0.07,-0.12,-2.25,-1.73,-0.12,3.58,-80.43,-44.57,-33.89,-9.76,-42.64,-35.75,Sad
59:27.7,482,470,705,571,421,1.43,699.34,2.06,20723.85,421,249,20724.24,250,429494080,4294941485,2253,1.01,0.07,-0.13,-0.27,1.76,-0.45,3.08,-80.32,-44.55,-33.91,-9.73,-42.64,-35.76,Sad
59:27.7,442,470,705,571,421,1.43,699.34,2.06,20723.84,421,249,20724.23,250,429493792,0,0,1.02,0.07,-0.12,-2.37,2.5,0.01,3.21,-80.62,-44.69,-33.87,-9.67,-42.77,-35.74,Sad
59:27.8,432,469,703.5,571,422,1.42,702.16,2.06,20723.84,421,251,20724.23,250,429493792,4294964761,251,1.02,0.06,-0.1,-1.05,1.22,-3.08,2.51,-81.79,-44.72,-33.93,-9.85,-42.84,-35.84,Sad
59:27.9,465,470,705,571,422,1.42,702.16,2.06,20723.84,421,250,20724.23,250,429493792,4294961725,501,1.02,0.07,-0.12,-3.27,-0.79,-2.08,3.24,-80.53,-44.94,-34.15,-9.95,-43.01,-36,Sad
59:28.0,517,471,706.5,571,422,1.42,702.16,2.06,20723.84,421,251,20724.23,250,429493792,4294959190,752,1.01,0.07,-0.12,-1.08,0.11,-0.55,3.51,-80.42,-44.98,-34.3,-9.93,-43.04,-36.14,Sad
59:28.0,528,471,706.5,571,421,1.43,699.34,2.06,20723.84,421,251,20724.23,250,429493792,4294956655,1003,1.02,0.06,-0.12,-1.09,1.93,-0.21,2.97,-80.59,-45.02,-34.3,-9.88,-43.1,-36.15,Sad
59:28.1,496,471,706.5,571,423,1.42,705,2.07,20723.84,421,250,20724.23,250,429493792,4294953619,1253,1.02,0.06,-0.11,-2.1,1.17,-0.81,3.05,-81.3,-45.14,-34.37,-9.89,-43.21,-36.24,Sad
59:28.2,468,471,706.5,571,421,1.43,699.34,2.06,20723.84,421,250,20724.23,250,429493792,4294950583,1503,1.02,0.06,-0.11,-2.11,0.64,-2.22,2.99,-81.22,-45.26,-34.47,-10,-43.33,-36.34,Sad
59:28.3,495,471,706.5,571,422,1.42,702.16,2.06,20723.84,421,250,20724.23,250,429493792,4294947547,1753,1.01,0.08,-0.12,-2.69,-0.02,-1.06,3.66,-80.27,-45.43,-34.63,-10.02,-43.47,-36.46,Sad
59:28.4,511,472,708,571,422,1.42,702.16,2.06,20723.84,421,250,20724.23,250,429493792,4294944511,2003,1.01,0.07,-0.13,-1.24,1.53,-0.85,3.24,-80.3,-45.48,-34.67,-10.02,-43.53,-36.49,Sad
59:28.4,499,473,709.5,571,421,1.43,699.34,2.06,20723.84,421,250,20724.23,250,429493792,4294941475,2253,1.01,0.07,-0.12,-1.92,2.17,-0.79,3.32,-80.62,-45.59,-34.66,-10.02,-43.63,-36.49,Sad
59:28.5,499,473,709.5,571,422,1.42,702.16,2.06,20723.85,421,250,20724.24,250,429493856,0,0,1.02,0.07,-0.12,-1.76,0.98,-2.37,3.09,-80.59,-45.68,-34.73,-10.14,-43.73,-36.57,Sad
59:28.6,423,473,709.5,571,421,1.43,699.34,2.06,20723.85,421,251,20724.24,250,429493856,4294964761,251,1.02,0.08,-0.12,-2.62,-0.39,-1.24,3.72,-80.37,-45.84,-34.92,-10.18,-43.86,-36.74,Sad
59:28.7,405,472,708,571,421,1.43,699.34,2.06,20723.85,421,249,20724.24,250,429493856,4294961226,500,1.01,0.07,-0.12,-1.19,1.68,-1.24,3.22,-80.46,-45.89,-34.95,-10.21,-43.93,-36.77,Sad
59:28.8,391,471,706.5,571,422,1.42,702.16,2.06,20723.85,421,251,20724.24,250,429493856,4294958691,751,1.02,0.07,-0.11,-2.18,2.47,-0.35,3.28,-81.12,-46.02,-34.91,-10.18,-44.05,-36.76,Sad
59:28.8,446,470,705,571,421,1.43,699.34,2.06,20723.85,421,251,20724.24,250,429493856,4294956156,1002,1.01,0.07,-0.11,-1.53,0.22,-0.85,3.17,-80.99,-46.1,-35.05,-10.18,-44.12,-36.89,Sad
59:28.9,477,470,705,571,422,1.42,702.16,2.06,20723.85,421,250,20724.24,250,429493856,4294953120,1252,1.02,0.06,-0.11,-1.26,-0.41,-1.4,3,-81.19,-46.15,-35.24,-10.23,-44.18,-37.08,Sad
59:29.0,449,469,703.5,571,421,1.43,699.34,2.06,20723.85,421,250,20724.24,250,429493856,4294950084,1502,1.01,0.07,-0.13,-2.73,-0.85,0.11,3.18,-80.15,-46.32,-35.46,-10.16,-44.34,-37.25,Sad
59:29.1,504,470,705,571,423,1.42,705,2.07,20723.85,421,251,20724.24,250,429493856,4294947549,1753,1.02,0.06,-0.12,-0.45,2.47,-0.6,2.9,-80.72,-46.31,-35.42,-10.15,-44.34,-37.24,Sad
59:29.1,515,470,705,571,422,1.42,702.16,2.06,20723.85,421,250,20724.24,250,429493856,4294944513,2003,1.01,0.06,-0.11,-2.11,0.82,-0.85,2.6,-81.22,-46.43,-35.52,-10.15,-44.47,-37.34,Sad
59:29.2,543,471,706.5,571,422,1.42,702.16,2.06,20723.85,421,251,20724.24,250,429493856,4294941978,2254,1.02,0.07,-0.12,-2.33,-0.16,-1.98,3.25,-80.79,-46.57,-35.68,-10.24,-44.58,-37.49,Sad
59:29.3,505,472,708,571,422,1.42,702.16,2.06,20723.85,421,252,20724.24,250,429493984,0,0,1.01,0.07,-0.14,-2.42,0.66,-0.54,3.13,-79.85,-46.71,-35.79,-10.23,-44.72,-37.55,Sad
59:29.4,512,473,709.5,571,421,1.43,699.34,2.06,20723.85,421,252,20724.24,250,429493984,4294965264,252,1.01,0.06,-0.13,-1.5,2.06,-1,2.89,-80.32,-46.79,-35.78,-10.24,-44.8,-37.56,Sad
59:29.5,488,473,709.5,571,423,1.42,705,2.07,20723.85,421,251,20724.24,250,429493984,4294962729,503,1.02,0.06,-0.12,-2.23,2.26,-0.6,2.86,-81.06,-46.92,-35.76,-10.23,-44.93,-37.57,Sad
59:29.5,511,473,709.5,571,421,1.43,699.34,2.06,20723.85,421,250,20724.24,250,429493984,4294959693,753,1.02,0.06,-0.12,-1.77,0.31,-1.18,2.56,-81.19,-47.01,-35.9,-10.26,-45.03,-37.71,Sad
59:29.6,451,472,708,571,422,1.42,702.16,2.06,20723.85,421,253,20724.24,250,429493984,4294958166,1006,1.01,0.07,-0.12,-1.89,0.3,-1.21,3.16,-80.68,-47.12,-36.03,-10.29,-45.11,-37.82,Sad
59:29.7,448,472,708,571,422,1.42,702.16,2.06,20723.85,421,252,20724.24,250,429493984,4294956134,1258,1.02,0.06,-0.12,-1.11,1.58,-0.69,2.86,-80.88,-47.16,-36.06,-10.28,-45.16,-37.86,Sad
59:29.8,382,470,705,571,421,1.43,699.34,2.06,20723.85,421,253,20724.24,250,429493984,4294954607,1511,1.01,0.06,-0.13,-2.63,2.67,-0.27,2.9,-80.52,-47.32,-36.01,-10.24,-45.32,-37.79,Sad
59:29.9,418,468,702,571,422,1.42,702.16,2.06,20723.85,421,252,20724.24,250,429493984,4294952575,1763,1.02,0.07,-0.11,-1.27,1.76,-2.36,3.21,-81.16,-47.38,-36.03,-10.37,-45.36,-37.83,Sad
59:29.9,451,468,702,571,422,1.42,702.16,2.06,20723.85,421,253,20724.24,250,429493984,4294951048,2016,1.02,0.07,-0.11,-2.52,-0.73,-1.79,3.21,-80.93,-47.53,-36.24,-10.44,-45.5,-38.03,Sad
59:30.0,448,468,702,571,423,1.42,705,2.07,20723.85,421,253,20724.24,250,429493984,4294949521,2269,1.01,0.07,-0.12,-2.01,0.22,-0.89,3.21,-80.43,-47.65,-36.38,-10.45,-45.61,-38.14,Sad
59:30.1,467,468,702,571,423,1.42,705,2.07,20723.86,422,255,20724.26,252,429494912,0,0,1.02,0.06,-0.12,-1.01,2.01,0.19,2.89,-80.73,-47.68,-36.38,-10.38,-45.66,-38.15,Sad
59:30.2,509,469,703.5,571,422,1.42,702.16,2.06,20723.86,422,253,20724.26,252,429494912,4294965769,253,1.02,0.06,-0.12,-1.76,1.15,-0.34,2.58,-80.9,-47.77,-36.45,-10.34,-45.76,-38.22,Sad
59:30.2,464,469,703.5,571,422,1.42,702.16,2.06,20723.86,422,255,20724.26,252,429494912,4294965258,508,1.02,0.06,-0.12,-1.9,0.42,-2.05,3.04,-80.94,-47.88,-36.57,-10.44,-45.84,-38.35,Sad
59:30.3,518,469,703.5,571,422,1.42,702.16,2.06,20723.86,422,254,20724.26,252,429494912,4294964238,762,1.02,0.06,-0.12,-2.1,-0.34,-1.32,3.03,-80.69,-48,-36.75,-10.48,-45.96,-38.51,Sad
59:30.4,517,470,705,571,422,1.42,702.16,2.06,20723.86,422,253,20724.26,252,429494912,4294962711,1015,1.01,0.06,-0.12,-1.64,-0.02,-0.21,2.96,-80.61,-48.08,-36.91,-10.44,-46.04,-38.66,Sad
59:30.5,489,470,705,571,422,1.42,702.16,2.06,20723.86,422,255,20724.26,252,429494912,4294962200,1270,1.01,0.06,-0.12,-0.76,1.63,-0.06,3.05,-80.89,-48.1,-36.94,-10.38,-46.05,-38.7,Sad
59:30.6,452,469,703.5,571,422,1.42,702.16,2.06,20723.86,422,254,20724.26,252,429494912,4294961180,1524,1.02,0.06,-0.12,-1.62,0.6,-0.95,2.79,-80.65,-48.18,-37.05,-10.39,-46.15,-38.8,Sad
59:30.6,459,469,703.5,571,422,1.42,702.16,2.06,20723.86,422,255,20724.26,252,429494912,4294960669,1779,1.02,0.06,-0.12,-2.5,-0.47,-2.41,2.96,-80.88,-48.34,-37.25,-10.52,-46.29,-38.99,Sad
59:30.7,493,468,702,571,423,1.42,705,2.07,20723.86,422,254,20724.26,252,429494912,4294959649,2033,1.01,0.07,-0.14,-2.15,0.92,-1.09,3.44,-79.66,-48.46,-37.33,-10.54,-46.39,-39.02,Sad
59:30.8,473,468,702,571,421,1.43,699.34,2.06,20723.86,422,253,20724.26,252,429494912,4294958122,2286,1.02,0.06,-0.13,-1.53,2.56,-0.76,2.93,-80.47,-48.54,-37.29,-10.54,-46.48,-39.01,Sad
59:30.9,442,467,700.5,571,422,1.42,702.16,2.06,20723.86,422,254,20724.28,254,429495712,0,0,1.01,0.06,-0.12,-1.39,1.82,-0.11,2.85,-80.8,-48.6,-37.3,-10.49,-46.54,-39.04,Sad
59:30.9,501,468,702,571,422,1.42,702.16,2.06,20723.86,422,253,20724.28,254,429495712,4294965769,253,1.02,0.06,-0.11,-1.89,-0.77,-1.11,2.78,-81.35,-48.7,-37.52,-10.51,-46.65,-39.27,Sad
59:31.0,515,469,703.5,571,422,1.42,702.16,2.06,20723.86,422,254,20724.28,254,429495712,4294964749,507,1.01,0.06,-0.13,-1.92,0.25,-1.74,2.96,-80.53,-48.81,-37.65,-10.59,-46.74,-39.37,Sad
59:31.1,479,470,705,571,422,1.42,702.16,2.06,20723.86,422,255,20724.28,254,429495712,4294964238,762,1.01,0.07,-0.13,-2.53,1.37,-1.1,3.11,-80.39,-48.97,-37.7,-10.61,-46.88,-39.41,Sad
59:31.2,519,471,706.5,571,421,1.43,699.34,2.06,20723.86,422,253,20724.28,254,429495712,4294962711,1015,1.02,0.06,-0.13,-1.26,2.83,-1.44,2.85,-80.39,-49.02,-37.64,-10.66,-46.95,-39.35,Sad
59:31.3,491,472,708,571,422,1.42,702.16,2.06,20723.86,422,256,20724.28,254,429495712,4294962711,1271,1.01,0.06,-0.11,-2.54,0.54,-1.65,2.81,-81.25,-49.18,-37.75,-10.73,-47.1,-39.49,Sad
59:31.3,492,472,708,571,422,1.42,702.16,2.06,20723.86,422,254,20724.28,254,429495712,4294961691,1525,1.02,0.07,-0.14,-1.92,-0.82,-1.16,3.52,-79.74,-49.28,-37.97,-10.76,-47.17,-39.65,Sad
59:31.4,504,472,708,571,423,1.42,705,2.07,20723.86,422,253,20724.28,254,429495712,4294960164,1778,1.01,0.07,-0.12,-1.35,1.22,-0.79,3.28,-80.65,-49.35,-38.04,-10.76,-47.24,-39.74,Sad
59:31.5,484,472,708,571,422,1.42,702.16,2.06,20723.86,422,254,20724.28,254,429495712,4294959144,2032,1.02,0.06,-0.13,-2.53,2.66,-0.42,2.5,-80.35,-49.5,-37.98,-10.73,-47.42,-39.68,Sad
59:31.6,493,471,706.5,571,421,1.43,699.34,2.06,20723.86,422,255,20724.28,254,429495712,4294958633,2287,1.02,0.06,-0.12,-3.1,2.4,-2.13,2.82,-80.93,-49.7,-37.95,-10.84,-47.6,-39.67,Sad
59:31.7,456,470,705,571,422,1.42,702.16,2.06,20723.85,421,255,20724.28,254,429495808,0,0,1.01,0.06,-0.12,-3.06,1.56,-2.62,3.06,-80.85,-49.89,-37.99,-10.98,-47.78,-39.7,Sad
59:31.7,412,470,705,571,422,1.42,702.16,2.06,20723.85,421,256,20724.28,254,429495808,0,256,1.01,0.08,-0.11,-3.13,0.21,-1.65,3.83,-80.92,-50.09,-38.12,-11.05,-47.94,-39.84,Sad
59:31.8,442,470,705,571,422,1.42,702.16,2.06,20723.85,421,256,20724.28,254,429495808,0,512,1.01,0.07,-0.12,-0.72,1.98,-0.15,3.3,-80.45,-50.1,-38.13,-11,-47.97,-39.82,Sad
59:31.9,494,471,706.5,571,422,1.42,702.16,2.06,20723.85,421,257,20724.28,254,429495808,513,769,1.02,0.06,-0.11,-1.42,0.41,1.17,2.6,-81.64,-50.17,-38.25,-10.85,-48.06,-39.98,Sad
59:31.9,536,472,708,571,423,1.42,705,2.07,20723.85,421,255,20724.28,254,429495808,2,1024,1.01,0.06,-0.13,-1.69,-0.53,-0.61,2.56,-80.68,-50.26,-38.44,-10.83,-48.15,-40.13,Sad
59:32.0,517,473,709.5,571,423,1.42,705,2.07,20723.85,421,257,20724.28,254,429495808,515,1281,1.02,0.06,-0.13,-2.6,0.79,-1.66,2.93,-80.34,-50.42,-38.54,-10.9,-48.28,-40.21,Sad
59:32.1,434,473,709.5,571,423,1.42,705,2.07,20723.85,421,254,20724.28,254,429495808,4294966791,1535,1.01,0.06,-0.13,-2.38,2.67,-2.4,2.85,-80.5,-50.56,-38.48,-11.03,-48.42,-40.17,Sad
59:32.2,527,474,711,571,422,1.42,702.16,2.06,20723.85,421,256,20724.28,254,429495808,4294966791,1791,1.02,0.07,-0.12,-2.33,3.37,-0.65,3.15,-80.74,-50.7,-38.38,-11.02,-48.54,-40.07,Sad
59:32.3,513,474,711,571,422,1.42,702.16,2.06,20723.85,421,255,20724.28,254,429495808,4294966280,2046,1.01,0.07,-0.1,-1.37,0.27,-0.98,3.35,-81.31,-50.76,-38.51,-11.03,-48.6,-40.23,Sad
59:32.3,479,474,711,571,421,1.43,699.34,2.06,20723.85,421,256,20724.28,254,429495808,4294966280,2302,1.01,0.07,-0.13,-1.7,-1.09,-0.13,3.23,-80.4,-50.85,-38.76,-10.98,-48.69,-40.42,Sad
59:32.4,442,473,709.5,571,422,1.42,702.16,2.06,20723.86,422,256,20724.3,255,429496640,0,0,1.02,0.07,-0.12,-1.06,-2.04,-1.61,3.07,-80.79,-50.89,-39.07,-11.04,-48.73,-40.74,Sad
59:32.5,456,473,709.5,571,421,1.43,699.34,2.06,20723.86,422,255,20724.3,255,429496640,4294966785,255,1,0.07,-0.14,-1.73,1.86,-0.19,3.14,-79.68,-50.98,-39.08,-11,-48.82,-40.7,Sad
59:32.6,467,472,708,571,422,1.42,702.16,2.06,20723.86,422,256,20724.3,255,429496640,4294966785,511,1.02,0.06,-0.12,-0.97,2.79,-1.21,2.75,-81.01,-51.01,-39.02,-11.03,-48.86,-40.7,Sad
59:32.7,521,473,709.5,571,422,1.42,702.16,2.06,20723.86,422,257,20724.3,255,429496640,2,768,1.01,0.06,-0.13,-2.79,0.79,-2.5,2.67,-80.41,-51.18,-39.11,-11.16,-49.03,-40.76,Sad
59:32.7,524,474,711,571,421,1.43,699.34,2.06,20723.86,422,258,20724.3,255,429496640,1030,1026,1.02,0.07,-0.12,-1.74,-0.04,-1.95,3.12,-80.87,-51.27,-39.27,-11.25,-49.1,-40.93,Sad
59:32.8,513,475,712.5,571,422,1.42,702.16,2.06,20723.86,422,255,20724.3,255,429496640,519,1281,1.01,0.07,-0.12,-2.85,2.31,-1.47,3.45,-80.44,-51.45,-39.24,-11.3,-49.26,-40.89,Sad
59:32.9,494,476,714,571,422,1.42,702.16,2.06,20723.86,422,258,20724.3,255,429496640,1547,1539,1.02,0.07,-0.12,-1.03,2.6,-1.02,3.28,-80.54,-51.49,-39.2,-11.32,-49.3,-40.85,Sad
59:33.0,486,476,714,571,422,1.42,702.16,2.06,20723.86,422,257,20724.3,255,429496640,2060,1796,1.01,0.06,-0.11,-1.63,0.34,-1.09,2.9,-81.24,-51.57,-39.33,-11.34,-49.39,-41,Sad
59:33.0,468,476,714,571,422,1.42,702.16,2.06,20723.86,422,257,20724.3,255,429496640,2573,2053,1.02,0.07,-0.12,-2.02,-0.49,-0.96,3.27,-80.69,-51.68,-39.52,-11.36,-49.48,-41.16,Sad
59:33.1,405,475,712.5,571,421,1.43,699.34,2.06,20723.86,422,254,20724.3,255,429496640,1553,2307,1.01,0.07,-0.13,-1.5,0.37,-0.23,3.08,-80.42,-51.76,-39.64,-11.31,-49.56,-41.27,Sad
59:33.2,422,474,711,571,421,1.43,699.34,2.06,20723.85,421,254,7.28,256,52,0,0,1.02,0.05,-0.12,-1.56,1.27,-1.63,2.5,-81.11,-51.83,-39.7,-11.37,-49.66,-41.35,Sad
59:33.3,483,474,711,571,422,1.42,702.16,2.06,20723.85,421,256,7.28,256,52,0,256,1.01,0.07,-0.15,-2.79,0.55,-1.03,3.4,-79.31,-52,-39.81,-11.39,-49.78,-41.39,Sad
59:33.4,465,474,711,571,422,1.42,702.16,2.06,20723.85,421,254,7.28,256,52,4294966276,510,1.02,0.06,-0.12,-1.12,0.62,-1.59,3.04,-80.62,-52.04,-39.91,-11.45,-49.84,-41.54,Sad
59:33.4,457,474,711,571,422,1.42,702.16,2.06,20723.85,421,255,7.28,256,52,4294965765,765,1.01,0.07,-0.13,-2.37,1.31,-1.34,3.09,-80.32,-52.18,-39.97,-11.5,-49.97,-41.58,Sad
59:33.5,425,473,709.5,571,421,1.43,699.34,2.06,20723.85,421,253,7.28,256,52,4294964238,1018,1.01,0.06,-0.13,-2.27,1.36,-0.96,2.98,-80.49,-52.31,-40.02,-11.51,-50.1,-41.63,Sad
59:33.6,456,473,709.5,571,421,1.43,699.34,2.06,20723.85,421,255,7.28,256,52,4294963727,1273,1.02,0.06,-0.13,-1.86,1.8,-1.49,2.67,-80.56,-52.41,-40.03,-11.56,-50.21,-41.65,Sad
59:33.7,470,473,709.5,571,421,1.43,699.34,2.06,20723.85,421,254,7.28,256,52,4294962707,1527,1.01,0.06,-0.12,-2.26,0.67,-1.64,3.03,-80.87,-52.54,-40.13,-11.63,-50.32,-41.76,Sad
59:33.7,495,474,711,571,422,1.42,702.16,2.06,20723.85,421,255,7.28,256,52,4294962196,1782,1.02,0.07,-0.13,-1.39,0.7,-0.65,3.34,-80.08,-52.61,-40.23,-11.62,-50.37,-41.83,Sad
59:33.8,484,475,712.5,571,423,1.42,705,2.07,20723.85,421,254,7.28,256,52,4294961176,2036,1.01,0.07,-0.12,-1.78,-0.45,-0.22,3.11,-80.56,-52.7,-40.42,-11.57,-50.47,-42.02,Sad
59:33.9,511,476,714,571,422,1.42,702.16,2.06,20723.85,421,253,7.28,256,52,4294959649,2289,1.01,0.07,-0.14,-1.44,1.93,-1.04,3.09,-79.81,-52.77,-40.42,-11.59,-50.53,-42,Sad
59:34.0,460,476,714,571,422,1.42,702.16,2.06,20723.85,421,256,20724.29,254,429495968,0,0,1.01,0.06,-0.12,-1.83,1.77,-1.56,2.81,-80.69,-52.86,-40.44,-11.65,-50.64,-42.05,Sad
59:34.0,439,476,714,571,421,1.43,699.34,2.06,20723.85,421,252,20724.29,254,429495968,4294965264,252,1.01,0.07,-0.14,-3.27,0.63,-1.88,3.45,-79.82,-53.07,-40.55,-11.74,-50.81,-42.12,Sad
59:34.1,434,475,712.5,571,421,1.43,699.34,2.06,20723.85,421,252,20724.29,254,429495968,4294963232,504,1.01,0.07,-0.13,-1.64,0.9,-0.75,3.07,-80.27,-53.16,-40.64,-11.73,-50.91,-42.22,Sad
59:34.2,463,475,712.5,571,421,1.43,699.34,2.06,20723.85,421,253,20724.29,254,429495968,4294961705,757,1.02,0.06,-0.13,-2.32,1.53,-0.75,3.03,-80.27,-53.3,-40.67,-11.73,-51.04,-42.26,Sad
59:34.3,498,475,712.5,571,422,1.42,702.16,2.06,20723.85,421,250,20724.29,254,429495968,4294958669,1007,1.01,0.07,-0.12,-2.13,2.79,-1.83,3.26,-80.49,-53.42,-40.61,-11.81,-51.15,-42.21,Sad
59:34.4,516,475,712.5,571,423,1.42,705,2.07,20723.85,421,252,20724.29,254,429495968,4294956637,1259,1.02,0.06,-0.12,-2.06,1.24,-0.92,3.06,-80.96,-53.54,-40.67,-11.82,-51.27,-42.28,Sad
59:34.4,538,476,714,571,423,1.42,705,2.07,20723.85,421,249,20724.29,254,429495968,4294953102,1508,1.02,0.07,-0.12,-2,0.06,-0.65,3.17,-80.77,-53.65,-40.82,-11.81,-51.38,-42.42,Sad
59:34.5,524,476,714,571,422,1.42,702.16,2.06,20723.85,421,251,20724.29,254,429495968,4294950567,1759,1.01,0.07,-0.13,-2.07,0.54,-0.38,3.28,-80.3,-53.77,-40.94,-11.78,-51.49,-42.51,Sad
59:34.6,471,476,714,571,423,1.42,705,2.07,20723.85,421,250,20724.29,254,429495968,4294947531,2009,1.01,0.06,-0.11,-1.15,1.6,-0.21,2.92,-81.1,-53.82,-40.97,-11.73,-51.55,-42.57,Sad
59:34.7,484,477,715.5,571,423,1.42,705,2.07,20723.85,421,250,20724.29,254,429495968,4294944495,2259,1.02,0.06,-0.12,-1.84,1.13,-1.8,2.88,-80.68,-53.92,-41.04,-11.81,-51.65,-42.62,Sad
59:34.8,488,478,717,571,423,1.42,705,2.07,20723.86,422,250,20724.24,250,429494144,0,0,1.01,0.07,-0.12,-2.24,0.08,-1.51,3.11,-80.56,-54.04,-41.18,-11.87,-51.76,-42.76,Sad
59:34.8,490,478,717,571,421,1.43,699.34,2.06,20723.86,422,249,20724.24,250,429494144,4294963761,249,1.01,0.07,-0.12,-2.19,-0.05,-1.31,3.26,-80.81,-54.17,-41.34,-11.91,-51.88,-42.92,Sad
59:34.9,465,478,717,571,422,1.42,702.16,2.06,20723.86,422,251,20724.24,250,429494144,4294961226,500,1.01,0.06,-0.13,-1.51,2.18,-0.54,2.92,-80.47,-54.25,-41.33,-11.89,-51.96,-42.89,Sad
59:35.0,457,478,717,571,421,1.43,699.34,2.06,20723.86,422,250,20724.24,250,429494144,4294958190,750,1.02,0.06,-0.12,-0.92,1.82,-0.42,2.84,-80.89,-54.28,-41.34,-11.86,-51.99,-42.93,Sad
59:35.1,449,477,715.5,571,422,1.42,702.16,2.06,20723.86,422,247,20724.24,250,429494144,4294953663,997,1.01,0.06,-0.12,-2.33,-0.6,-1.23,2.52,-81.21,-54.42,-41.55,-11.9,-52.14,-43.13,Sad
59:35.1,460,477,715.5,571,423,1.42,705,2.07,20723.86,422,247,20724.24,250,429494144,4294949136,1244,1.01,0.07,-0.13,-1.63,-0.89,-0.92,3.28,-79.99,-54.5,-41.77,-11.9,-52.19,-43.3,Sad
59:35.2,489,477,715.5,571,422,1.42,702.16,2.06,20723.86,422,248,20724.24,250,429494144,4294945104,1492,1.01,0.06,-0.12,-1.52,1.18,-0.94,2.71,-80.76,-54.57,-41.84,-11.92,-52.28,-43.39,Sad
59:35.3,504,477,715.5,571,421,1.43,699.34,2.06,20723.86,422,247,20724.24,250,429494144,4294940577,1739,1.01,0.06,-0.13,-2.34,2.19,-0.65,2.91,-80.33,-54.71,-41.82,-11.91,-52.41,-43.36,Sad
59:35.4,508,477,715.5,571,422,1.42,702.16,2.06,20723.86,422,249,20724.24,250,429494144,4294937042,1988,1.01,0.06,-0.12,-1.25,1.21,-2.07,2.99,-80.79,-54.77,-41.88,-12.01,-52.46,-43.44,Sad
59:35.5,509,477,715.5,571,423,1.42,705,2.07,20723.86,422,247,20724.24,250,429494144,4294932515,2235,1.01,0.06,-0.12,-2.4,-0.37,-1.69,3.07,-80.58,-54.91,-42.07,-12.08,-52.59,-43.61,Sad
59:35.5,533,478,717,571,422,1.42,702.16,2.06,20723.85,421,248,20724.21,248,429492832,0,0,1.02,0.07,-0.12,-1.6,0.37,-0.34,3.34,-80.58,-54.99,-42.19,-12.04,-52.66,-43.73,Sad
59:35.6,523,479,718.5,571,422,1.42,702.16,2.06,20723.85,421,249,20724.21,248,429492832,4294963761,249,1.02,0.06,-0.12,-1.65,2.03,-0.14,2.99,-80.59,-55.08,-42.19,-11.99,-52.76,-43.73,Sad
59:35.7,519,480,720,571,422,1.42,702.16,2.06,20723.85,421,250,20724.21,248,429492832,4294960725,499,1.02,0.05,-0.13,-2.48,1.4,-1.02,2.25,-80.72,-55.23,-42.24,-12.01,-52.93,-43.78,Sad
59:35.8,488,479,718.5,571,422,1.42,702.16,2.06,20723.85,421,248,20724.21,248,429492832,4294956693,747,1.02,0.06,-0.12,-2.18,0.44,-2.79,2.7,-81.1,-55.35,-42.36,-12.17,-53.03,-43.91,Sad
59:35.8,423,478,717,571,422,1.42,702.16,2.06,20723.85,421,249,20724.21,248,429492832,4294953158,996,1.01,0.07,-0.14,-2.08,0.29,-1.12,3.18,-79.79,-55.47,-42.5,-12.19,-53.13,-43.99,Sad
59:35.9,444,478,717,571,422,1.42,702.16,2.06,20723.85,421,249,20724.21,248,429492832,4294949623,1245,1.01,0.07,-0.13,-2.05,2.09,-0.27,3.3,-80.28,-55.59,-42.49,-12.15,-53.24,-44,Sad
59:36.0,408,477,715.5,571,422,1.42,702.16,2.06,20723.85,421,248,20724.21,248,429492832,4294945591,1493,1.01,0.06,-0.12,-1.23,1.58,-0.83,2.92,-80.67,-55.64,-42.52,-12.15,-53.3,-44.05,Sad
59:36.1,428,477,715.5,571,421,1.43,699.34,2.06,20723.85,421,248,20724.21,248,429492832,4294941559,1741,1.01,0.06,-0.11,-2.37,-0.32,-1.93,3.04,-81,-55.79,-42.7,-12.24,-53.43,-44.24,Sad
59:36.2,404,475,712.5,571,421,1.43,699.34,2.06,20723.85,421,251,20724.21,248,429492832,4294939024,1992,1.01,0.07,-0.14,-1.84,0.18,-1.66,3.27,-79.66,-55.89,-42.84,-12.31,-53.52,-44.32,Sad
59:36.2,415,475,712.5,571,422,1.42,702.16,2.06,20723.85,421,250,20724.21,248,429492832,4294935988,2242,1.01,0.07,-0.12,-2.11,1.35,-0.15,3.1,-80.52,-56.01,-42.9,-12.26,-53.64,-44.4,Sad
59:36.3,466,474,711,571,423,1.42,705,2.07,20723.85,421,250,20724.22,249,429493280,0,0,1.02,0.07,-0.12,-1.5,2.85,-0.99,3.16,-80.66,-56.08,-42.83,-12.28,-53.71,-44.34,Sad
59:36.4,520,475,712.5,571,422,1.42,702.16,2.06,20723.85,421,251,20724.22,249,429493280,4294964761,251,1.02,0.06,-0.12,-2.27,0.89,-0.08,2.89,-80.9,-56.22,-42.92,-12.22,-53.85,-44.44,Sad
59:36.5,511,476,714,571,422,1.42,702.16,2.06,20723.85,421,248,20724.22,249,429493280,4294960729,499,1.02,0.06,-0.12,-2.18,-0.89,-1.57,2.82,-80.9,-56.34,-43.15,-12.28,-53.98,-44.66,Sad
59:36.6,488,477,715.5,571,422,1.42,702.16,2.06,20723.85,421,250,20724.22,249,429493280,4294957693,749,1.02,0.06,-0.13,-0.34,0.08,-0.9,2.98,-80.09,-56.33,-43.3,-12.29,-53.95,-44.77,Sad
59:36.6,454,477,715.5,571,422,1.42,702.16,2.06,20723.85,421,252,20724.22,249,429493280,4294955661,1001,1,0.06,-0.11,-3.08,2.44,-0.61,2.79,-81.49,-56.52,-43.26,-12.28,-54.15,-44.79,Sad
59:36.7,479,477,715.5,571,422,1.42,702.16,2.06,20723.85,421,248,20724.22,249,429493280,4294951629,1249,1.03,0.07,-0.14,-1.01,2.98,-0.69,3.08,-79.69,-56.56,-43.19,-12.27,-54.17,-44.65,Sad
59:36.8,483,478,717,571,421,1.43,699.34,2.06,20723.85,421,253,20724.22,249,429493280,4294950102,1502,1,0.06,-0.12,-2.12,-1.16,-1.27,2.66,-81.07,-56.68,-43.44,-12.31,-54.31,-44.94,Sad
59:36.9,464,477,715.5,571,421,1.43,699.34,2.06,20723.85,421,252,20724.22,249,429493280,4294948070,1754,1.02,0.06,-0.14,-1.62,0.73,-1.89,2.78,-80.06,-56.76,-43.53,-12.39,-54.38,-45,Sad
59:36.9,448,477,715.5,571,422,1.42,702.16,2.06,20723.85,421,248,20724.22,249,429493280,4294944038,2002,1,0.06,-0.13,-2.27,1.57,-0.33,2.88,-80.44,-56.9,-43.57,-12.36,-54.51,-45.04,Sad
59:37.0,386,475,712.5,571,422,1.42,702.16,2.06,20723.85,421,249,20724.22,249,429493280,4294940503,2251,1.02,0.07,-0.12,-1.59,3.08,-1.53,3.08,-80.61,-56.98,-43.48,-12.42,-54.58,-44.97,Sad
59:37.1,410,474,711,571,422,1.42,702.16,2.06,20723.85,421,249,20724.23,250,429493696,0,0,1.01,0.06,-0.12,-2.61,0.34,-0.77,3.03,-80.74,-57.13,-43.61,-12.42,-54.73,-45.09,Sad
59:37.2,478,474,711,571,423,1.42,705,2.07,20723.85,421,250,20724.23,250,429493696,4294964260,250,1.02,0.07,-0.14,-1.81,-0.15,-1.52,3.19,-79.79,-57.23,-43.78,-12.47,-54.81,-45.22,Sad
59:37.3,502,474,711,571,423,1.42,705,2.07,20723.85,421,250,20724.23,250,429493696,4294961224,500,1.02,0.06,-0.12,-1.67,1.82,-1.26,2.78,-81.01,-57.32,-43.79,-12.51,-54.91,-45.28,Sad
59:37.3,494,474,711,571,423,1.42,705,2.07,20723.85,421,249,20724.23,250,429493696,4294957689,749,1.01,0.06,-0.12,-2.79,1.47,-0.45,3.03,-80.92,-57.49,-43.83,-12.48,-55.07,-45.32,Sad
59:37.4,497,474,711,571,423,1.42,705,2.07,20723.85,421,249,20724.23,250,429493696,4294954154,998,1.02,0.06,-0.12,-0.69,1.17,-2.16,2.97,-80.71,-57.5,-43.9,-12.59,-55.08,-45.37,Sad
59:37.5,518,475,712.5,571,422,1.42,702.16,2.06,20723.85,421,248,20724.23,250,429493696,4294950122,1246,1.01,0.06,-0.12,-2.8,-0.97,-0.76,2.79,-81.04,-57.68,-44.13,-12.59,-55.26,-45.61,Sad
59:37.6,504,476,714,571,423,1.42,705,2.07,20723.85,421,249,20724.23,250,429493696,4294946587,1495,1.01,0.06,-0.13,-1.47,0.47,-0.94,2.92,-80.08,-57.75,-44.25,-12.6,-55.32,-45.68,Sad
59:37.6,507,477,715.5,571,422,1.42,702.16,2.06,20723.85,421,249,20724.23,250,429493696,4294943052,1744,1.01,0.06,-0.12,-1.82,1.84,-0.37,2.86,-80.79,-57.85,-44.26,-12.57,-55.42,-45.72,Sad
59:37.7,504,478,717,571,422,1.42,702.16,2.06,20723.85,421,249,20724.23,250,429493696,4294939517,1993,1.03,0.06,-0.14,-2.08,1.66,-1.18,2.87,-80.09,-57.97,-44.29,-12.6,-55.54,-45.72,Sad
59:37.8,522,478,717,571,422,1.42,702.16,2.06,20723.85,421,249,20724.23,250,429493696,4294935982,2242,1.01,0.06,-0.12,-2.31,0.74,-1.76,2.79,-80.96,-58.11,-44.39,-12.67,-55.67,-45.85,Sad
59:37.9,524,479,718.5,571,422,1.42,702.16,2.06,20723.87,422,250,20724.22,249,429493280,0,0,1.02,0.06,-0.12,-1.74,0.26,-1.97,2.85,-80.91,-58.2,-44.52,-12.76,-55.76,-45.98,Sad
59:38.0,463,478,717,571,422,1.42,702.16,2.06,20723.87,422,249,20724.22,249,429493280,4294963761,249,1.01,0.06,-0.13,-2.31,0.81,-0.79,2.66,-80.4,-58.34,-44.62,-12.76,-55.9,-46.05,Sad
59:38.0,495,479,718.5,571,422,1.42,702.16,2.06,20723.87,422,250,20724.22,249,429493280,4294960725,499,1.02,0.07,-0.12,-1.03,1.71,-1.33,3.4,-80.38,-58.37,-44.64,-12.8,-55.9,-46.07,Sad
59:38.1,485,478,717,571,422,1.42,702.16,2.06,20723.87,422,250,20724.22,249,429493280,4294957689,749,1.01,0.06,-0.12,-2.97,-0.11,-0.85,2.78,-80.66,-58.56,-44.8,-12.81,-56.11,-46.24,Sad
59:38.2,441,478,717,571,423,1.42,705,2.07,20723.87,422,248,20724.22,249,429493280,4294953657,997,1.02,0.06,-0.13,-1.62,-0.2,-2.33,2.91,-80.3,-58.65,-44.98,-12.93,-56.18,-46.39,Sad
59:38.3,486,478,717,571,423,1.42,705,2.07,20723.87,422,250,20724.22,249,429493280,4294950621,1247,1.01,0.06,-0.13,-2.59,1.29,-0.25,3.05,-80.04,-58.8,-45.03,-12.89,-56.33,-46.43,Sad
59:38.4,503,478,717,571,423,1.42,705,2.07,20723.87,422,249,20724.22,249,429493280,4294947086,1496,1.02,0.07,-0.12,-1.45,2.73,-1.46,3.17,-80.78,-58.87,-44.98,-12.94,-56.39,-46.41,Sad
59:38.4,519,479,718.5,571,423,1.42,705,2.07,20723.87,422,249,20724.22,249,429493280,4294943551,1745,1.01,0.06,-0.12,-2.99,1.52,-1.4,2.72,-80.83,-59.07,-45.01,-12.99,-56.6,-46.45,Sad
59:38.5,521,479,718.5,571,422,1.42,702.16,2.06,20723.87,422,249,20724.22,249,429493280,4294940016,1994,1.01,0.07,-0.11,-2.05,-0.31,-2.27,3.23,-80.94,-59.18,-45.19,-13.11,-56.69,-46.62,Sad
59:38.6,486,479,718.5,571,422,1.42,702.16,2.06,20723.87,422,253,20724.22,249,429493280,4294938489,2247,1.01,0.07,-0.14,-2.38,0.8,-0.34,3.44,-79.55,-59.32,-45.29,-13.07,-56.81,-46.66,Sad
59:38.7,509,480,720,571,423,1.42,705,2.07,20723.87,422,249,20724.23,249,429493504,0,0,1.01,0.06,-0.12,-0.51,1.89,0.18,2.96,-80.77,-59.32,-45.3,-13,-56.83,-46.71,Sad
59:38.7,491,480,720,571,423,1.42,705,2.07,20723.87,422,249,20724.23,249,429493504,4294963761,249,1.02,0.06,-0.12,-2.05,0.48,-1.33,2.69,-81.14,-59.44,-45.41,-13.04,-56.95,-46.84,Sad
59:38.8,512,480,720,571,422,1.42,702.16,2.06,20723.87,422,251,20724.23,249,429493504,4294961226,500,1.02,0.06,-0.14,-2.68,-0.52,-2.15,2.87,-79.98,-59.61,-45.61,-13.14,-57.11,-46.99,Sad
59:38.9,459,479,718.5,571,422,1.42,702.16,2.06,20723.87,422,248,20724.23,249,429493504,4294957194,748,1.02,0.07,-0.13,-1.96,1.91,-2.31,3.09,-80.23,-59.72,-45.62,-13.26,-57.2,-47,Sad
59:39.0,434,479,718.5,571,422,1.42,702.16,2.06,20723.87,422,250,20724.23,249,429493504,4294954158,998,1.01,0.07,-0.12,-2.89,2.62,-0.08,3.19,-80.58,-59.89,-45.57,-13.21,-57.37,-46.97,Sad
59:39.1,432,478,717,571,422,1.42,702.16,2.06,20723.87,422,248,20724.23,249,429493504,4294950126,1246,1.02,0.06,-0.12,-1.01,2.21,-1.47,3,-80.8,-59.93,-45.56,-13.26,-57.41,-46.97,Sad
59:39.1,447,478,717,571,422,1.42,702.16,2.06,20723.87,422,249,20724.23,249,429493504,4294946591,1495,1.01,0.06,-0.12,-2.92,-0.48,-0.61,2.94,-80.69,-60.12,-45.75,-13.25,-57.59,-47.15,Sad
59:39.2,506,478,717,571,422,1.42,702.16,2.06,20723.87,422,249,20724.23,249,429493504,4294943056,1744,1.01,0.07,-0.13,-1.69,-0.09,-1.37,3.36,-79.99,-60.21,-45.92,-13.29,-57.66,-47.28,Sad
59:39.3,502,478,717,571,422,1.42,702.16,2.06,20723.87,422,248,20724.23,249,429493504,4294939024,1992,1.02,0.06,-0.13,-2.09,2.26,-1.12,3,-80.15,-60.33,-45.9,-13.32,-57.79,-47.27,Sad
59:39.4,520,478,717,571,423,1.42,705,2.07,20723.87,422,249,20724.23,249,429493504,4294935489,2241,1.01,0.06,-0.11,-2.07,1.17,-0.34,2.94,-81.06,-60.45,-45.96,-13.28,-57.91,-47.37,Sad
59:39.4,528,479,718.5,571,422,1.42,702.16,2.06,20723.86,422,249,20724.22,249,429493184,0,0,1.02,0.06,-0.12,-1.83,0.82,-2.26,3.01,-80.66,-60.54,-46.05,-13.4,-58,-47.44,Sad
59:39.5,517,480,720,571,422,1.42,702.16,2.06,20723.86,422,250,20724.22,249,429493184,4294964260,250,1.01,0.06,-0.12,-2.15,0.57,-0.84,2.88,-80.92,-60.67,-46.16,-13.4,-58.12,-47.55,Sad
59:39.6,483,480,720,571,423,1.42,705,2.07,20723.86,422,249,20724.22,249,429493184,4294960725,499,1.02,0.07,-0.13,-1.32,0.92,-1.2,3.25,-80.38,-60.73,-46.25,-13.43,-58.17,-47.62,Sad
59:39.7,449,480,720,571,423,1.42,705,2.07,20723.86,422,250,20724.22,249,429493184,4294957689,749,1.02,0.06,-0.13,-2.09,1.87,-0.34,2.82,-80.24,-60.85,-46.26,-13.4,-58.3,-47.62,Sad
59:39.8,423,479,718.5,571,422,1.42,702.16,2.06,20723.86,422,247,20724.22,249,429493184,4294953162,996,1.02,0.06,-0.12,-1.2,1.27,-1.37,2.82,-81.06,-60.9,-46.32,-13.44,-58.35,-47.71,Sad
59:39.8,388,477,715.5,571,423,1.42,705,2.07,20723.86,422,249,20724.22,249,429493184,4294949627,1245,1.01,0.07,-0.13,-2.15,-0.31,-1.15,3.12,-80.21,-61.02,-46.5,-13.47,-58.46,-47.85,Sad
59:39.9,440,477,715.5,571,422,1.42,702.16,2.06,20723.86,422,250,20724.22,249,429493184,4294946591,1495,1.02,0.07,-0.13,-1.57,-0.6,-0.82,3.25,-80.39,-61.1,-46.7,-13.47,-58.53,-48.05,Sad
59:40.0,399,476,714,571,423,1.42,705,2.07,20723.86,422,246,20724.22,249,429493184,4294941571,1741,1.01,0.06,-0.13,-1.19,2.07,-0.39,2.76,-80.29,-61.15,-46.7,-13.44,-58.59,-48.04,Sad
59:40.1,401,475,712.5,571,422,1.42,702.16,2.06,20723.86,422,249,20724.22,249,429493184,4294938036,1990,1.01,0.06,-0.12,-2.01,1.44,-1.09,3.01,-80.81,-61.26,-46.74,-13.47,-58.69,-48.1,Sad
59:40.2,436,475,712.5,571,423,1.42,705,2.07,20723.86,422,250,20724.22,249,429493184,4294935000,2240,1.03,0.06,-0.13,-1.12,0.87,-2.19,2.89,-80.19,-61.31,-46.83,-13.58,-58.74,-48.16,Sad
59:40.2,442,475,712.5,571,422,1.42,702.16,2.06,20723.87,422,249,20724.22,248,429493152,0,0,1.01,0.07,-0.12,-2.84,-0.2,-1.85,3.3,-80.55,-61.48,-47,-13.66,-58.89,-48.34,Sad
59:40.3,484,475,712.5,571,423,1.42,705,2.07,20723.87,422,248,20724.22,248,429493152,4294963264,248,1.01,0.07,-0.13,-2.09,2.15,-1.85,3.54,-80,-61.6,-46.98,-13.74,-59,-48.3,Sad
59:40.4,515,475,712.5,571,422,1.42,702.16,2.06,20723.87,422,250,20724.22,248,429493152,4294960228,498,1.02,0.07,-0.13,-1.87,2.18,0.29,3.08,-80.42,-61.71,-46.97,-13.66,-59.11,-48.31,Sad
59:40.5,475,475,712.5,571,423,1.42,705,2.07,20723.87,422,249,20724.22,248,429493152,4294956693,747,1.02,0.06,-0.11,-0.73,1.05,-1.1,2.7,-81.24,-61.72,-47.04,-13.68,-59.14,-48.41,Sad
59:40.5,478,474,711,571,422,1.42,702.16,2.06,20723.87,422,250,20724.22,248,429493152,4294953657,997,1.01,0.06,-0.11,-3.09,-0.59,-0.65,2.83,-81.14,-61.92,-47.25,-13.67,-59.33,-48.6,Sad
59:40.6,499,474,711,571,423,1.42,705,2.07,20723.87,422,249,20724.22,248,429493152,4294950122,1246,1.02,0.07,-0.14,-1.15,0.69,-2.11,3.42,-79.73,-61.96,-47.35,-13.77,-59.35,-48.65,Sad
59:40.7,519,475,712.5,571,423,1.42,705,2.07,20723.87,422,250,20724.22,248,429493152,4294947086,1496,1.01,0.07,-0.12,-2.82,1.42,-0.27,3.16,-80.47,-62.14,-47.4,-13.73,-59.53,-48.72,Sad
59:40.8,502,475,712.5,571,422,1.42,702.16,2.06,20723.87,422,249,20724.22,248,429493152,4294943551,1745,1.02,0.06,-0.13,-1.71,1.64,-2.3,2.93,-80.35,-62.23,-47.43,-13.85,-59.63,-48.74,Sad
59:40.9,496,475,712.5,571,421,1.43,699.34,2.06,20723.87,422,250,20724.22,248,429493152,4294940515,1995,1.01,0.07,-0.13,-2.46,0.47,-1.62,3.14,-80.39,-62.38,-47.55,-13.92,-59.76,-48.86,Sad
59:40.9,450,475,712.5,571,422,1.42,702.16,2.06,20723.87,422,249,20724.22,248,429493152,4294936980,2244,1.01,0.08,-0.12,-2.06,0.47,-1.67,3.65,-80.24,-62.5,-47.66,-13.99,-59.85,-48.97,Sad
59:41.0,457,476,714,571,423,1.42,705,2.07,20723.86,422,249,20724.22,249,429493344,0,0,1.02,0.07,-0.14,-1.65,2.26,-0.56,3.28,-79.75,-62.58,-47.64,-13.97,-59.95,-48.93,Sad
59:41.1,448,475,712.5,571,422,1.42,702.16,2.06,20723.86,422,249,20724.22,249,429493344,4294963761,249,1.01,0.07,-0.11,-2.2,1.5,-1.08,3.22,-81.19,-62.71,-47.68,-13.99,-60.07,-49.02,Sad
59:41.2,483,476,714,571,422,1.42,702.16,2.06,20723.86,422,249,20724.22,249,429493344,4294960226,498,1.01,0.07,-0.13,-1.81,0.16,-0.75,3.07,-80.15,-62.81,-47.83,-13.99,-60.17,-49.12,Sad
59:41.2,495,476,714,571,423,1.42,705,2.07,20723.86,422,249,20724.22,249,429493344,4294956691,747,1.01,0.06,-0.12,-1.33,-0.22,-1,3.04,-80.91,-62.87,-48,-14,-60.23,-49.32,Sad
59:41.3,490,477,715.5,571,422,1.42,702.16,2.06,20723.86,422,250,20724.22,249,429493344,4294953655,997,1.02,0.07,-0.15,-2.89,1.7,-0.13,3.41,-79.31,-63.05,-48.03,-13.95,-60.39,-49.28,Sad
59:41.4,497,477,715.5,571,423,1.42,705,2.07,20723.86,422,249,20724.22,249,429493344,4294950120,1246,1.02,0.06,-0.13,-0.83,3.47,-1.64,2.66,-80.57,-63.07,-47.91,-14.02,-60.44,-49.22,Sad
59:41.5,505,477,715.5,571,423,1.42,705,2.07,20723.86,422,250,20724.22,249,429493344,4294947084,1496,1.01,0.06,-0.11,-3.08,2.6,-1.57,2.87,-81.13,-63.27,-47.86,-14.08,-60.63,-49.2,Sad
59:41.6,507,478,717,571,423,1.42,705,2.07,20723.86,422,250,20724.22,249,429493344,4294944048,1746,1.02,0.07,-0.12,-2.38,-0.25,-1.06,3.27,-80.9,-63.41,-48.04,-14.1,-60.75,-49.35,Sad
59:41.6,508,478,717,571,423,1.42,705,2.07,20723.86,422,250,20724.22,249,429493344,4294941012,1996,1.02,0.06,-0.12,-1.95,-1.05,0.31,2.84,-80.9,-63.52,-48.28,-14.01,-60.87,-49.59,Sad
59:41.7,475,477,715.5,571,423,1.42,705,2.07,20723.86,422,250,20724.22,249,429493344,4294937976,2246,1.01,0.06,-0.13,-1.37,-1.01,0.67,3.08,-80.07,-63.59,-48.52,-13.9,-60.92,-49.78,Sad
59:41.8,440,477,715.5,571,422,1.42,702.16,2.06,20723.87,422,250,20724.23,249,429493504,0,0,1.03,0.06,-0.12,-1.04,2.74,-1.08,2.8,-80.72,-63.63,-48.46,-13.92,-60.97,-49.75,Sad
59:41.9,426,477,715.5,571,423,1.42,705,2.07,20723.87,422,251,20724.23,249,429493504,4294964761,251,1,0.05,-0.12,-0.95,0.76,-1.47,2.38,-81.12,-63.66,-48.56,-13.97,-61.01,-49.86,Sad
59:41.9,449,477,715.5,571,423,1.42,705,2.07,20723.87,422,251,20724.23,249,429493504,4294962226,502,1.02,0.06,-0.12,-2.44,-0.08,-1.07,2.86,-81.03,-63.8,-48.72,-14,-61.14,-50.01,Sad
59:42.0,451,477,715.5,571,422,1.42,702.16,2.06,20723.87,422,251,20724.23,249,429493504,4294959691,753,1.01,0.05,-0.12,-1.3,-0.07,-0.53,2.39,-80.78,-63.86,-48.88,-13.97,-61.21,-50.16,Sad
59:42.1,468,477,715.5,571,423,1.42,705,2.07,20723.87,422,252,20724.23,249,429493504,4294957659,1005,1.02,0.05,-0.13,-2.62,4.44,-1.74,2.11,-80.69,-64.02,-48.69,-14.05,-61.38,-49.97,Sad
59:42.2,468,476,714,571,423,1.42,705,2.07,20723.87,422,251,20724.23,249,429493504,4294955124,1256,1.02,0.06,-0.12,-5.34,2.96,-5.37,2.6,-80.95,-64.4,-48.62,-14.41,-61.72,-49.91,Sad
59:42.3,514,476,714,571,423,1.42,705,2.07,20723.87,422,253,20724.23,249,429493504,4294953597,1509,1.01,0.07,-0.14,-8.17,3.87,-5.89,3.59,-79.7,-65,-48.47,-14.81,-62.26,-49.72,Sad
59:42.4,508,476,714,571,423,1.42,705,2.07,20723.87,422,251,20724.23,249,429493504,4294951062,1760,1.01,0.08,-0.09,-6.14,5.89,-4.92,3.88,-81.61,-65.43,-48.17,-15.13,-62.66,-49.51,Sad
59:42.4,499,476,714,571,422,1.42,702.16,2.06,20723.87,422,253,20724.23,249,429493504,4294949535,2013,1.01,0.09,-0.1,-1.33,4.1,-2.53,4.54,-80.96,-65.49,-48,-15.27,-62.69,-49.32,Sad
59:42.5,467,476,714,571,421,1.43,699.34,2.06,20723.87,422,264,20724.23,249,429493504,4294953695,2277,1.02,0.08,-0.1,-1.46,0.21,-1.07,4.01,-81.12,-65.56,-48.14,-15.29,-62.78,-49.46,Sad
59:42.6,547,477,715.5,571,422,1.42,702.16,2.06,20723.87,422,269,20724.29,254,429496064,0,0,1.01,0.08,-0.1,-3.82,-1.72,0.41,3.89,-81.33,-65.81,-48.43,-15.2,-63.02,-49.74,Sad
59:42.7,499,477,715.5,571,423,1.42,705,2.07,20723.87,422,268,20724.29,254,429496064,6288,268,1.02,0.07,-0.13,-1.91,0.98,-0.73,3.4,-80.37,-65.92,-48.51,-15.2,-63.14,-49.78,Sad
59:42.7,457,477,715.5,571,422,1.42,702.16,2.06,20723.87,422,268,20724.29,254,429496064,12576,536,1.02,0.07,-0.1,-3.8,3.73,-3.48,3.59,-81.21,-66.17,-48.37,-15.41,-63.38,-49.68,Sad
59:42.8,422,476,714,571,423,1.42,705,2.07,20723.87,422,266,20724.29,254,429496064,17796,802,1.01,0.08,-0.09,-3.74,3.36,-3.45,3.96,-81.63,-66.41,-48.27,-15.61,-63.6,-49.6,Sad
59:42.9,486,477,715.5,571,422,1.42,702.16,2.06,20723.87,422,267,20724.29,254,429496064,23549,1069,1.02,0.09,-0.09,-0.9,1.39,-3.74,4.49,-81.33,-66.44,-48.31,-15.84,-63.6,-49.64,Sad
59:43.0,497,477,715.5,571,422,1.42,702.16,2.06,20723.87,422,267,20724.29,254,429496064,29302,1336,1.01,0.1,-0.1,-5.41,-1.08,-1.47,4.83,-80.59,-66.82,-48.55,-15.89,-63.95,-49.84,Sad
59:43.0,510,477,715.5,571,423,1.42,705,2.07,20723.87,422,265,20724.29,254,429496064,33991,1601,1.02,0.09,-0.08,-0.34,-1.04,-1.08,4.57,-81.46,-66.8,-48.79,-15.91,-63.94,-50.1,Sad
59:43.1,539,478,717,571,423,1.42,705,2.07,20723.87,422,266,20724.29,254,429496064,39211,1867,1,0.09,-0.11,0.47,0.4,1.88,4.67,-80.41,-66.72,-48.92,-15.71,-63.86,-50.18,Sad
59:43.2,509,478,717,571,423,1.42,705,2.07,20723.87,422,257,20724.29,254,429496064,39724,2124,1.01,0.09,-0.1,0.44,-0.12,0.48,4.31,-80.94,-66.64,-49.08,-15.61,-63.8,-50.35,Sad
59:43.3,514,478,717,571,424,1.41,707.85,2.07,20723.87,422,262,20724.29,254,429496064,42832,2386,1,0.07,-0.11,-1.82,-0.9,0.55,3.39,-81.06,-66.74,-49.3,-15.5,-63.93,-50.57,Sad
59:43.4,426,477,715.5,571,422,1.42,702.16,2.06,20723.87,422,267,69.7,265,4857,0,0,1.02,0.08,-0.12,-0.84,-3.98,-1.47,4.09,-80.41,-66.76,-49.76,-15.56,-63.93,-50.98,Sad
59:43.4,383,475,712.5,571,423,1.42,705,2.07,20723.87,422,267,69.7,265,4857,5753,267,1,0.09,-0.14,-1.82,-0.18,-1.77,4.72,-78.95,-66.85,-49.92,-15.63,-63.99,-51.09,Sad
59:43.5,378,474,711,571,423,1.42,705,2.07,20723.87,422,267,69.7,265,4857,11506,534,1.01,0.08,-0.11,-0.48,6.21,1.85,4.11,-80.43,-66.85,-49.6,-15.43,-64.01,-50.83,Sad
59:43.6,469,474,711,571,423,1.42,705,2.07,20723.87,422,269,69.7,265,4857,18331,803,1.02,0.08,-0.11,-0.55,6.76,2.12,3.63,-81.07,-66.85,-49.24,-15.21,-64.03,-50.52,Sad
59:43.7,525,475,712.5,571,423,1.42,705,2.07,20723.87,422,267,69.7,265,4857,24084,1070,1.02,0.07,-0.08,-1.02,-1.5,-0.43,3.37,-82.39,-66.88,-49.51,-15.18,-64.07,-50.82,Sad
59:43.7,491,475,712.5,571,423,1.42,705,2.07,20723.87,422,264,69.7,265,4857,28244,1334,1.01,0.07,-0.11,-2.47,-4.58,-1.88,3.2,-81.32,-67.03,-50.02,-15.26,-64.22,-51.27,Sad
59:43.8,440,475,712.5,571,423,1.42,705,2.07,20723.87,422,266,69.7,265,4857,33464,1600,1.01,0.08,-0.13,-1.02,0.25,-1.25,3.92,-79.82,-67.07,-50.15,-15.3,-64.23,-51.34,Sad
59:43.9,391,475,712.5,571,422,1.42,702.16,2.06,20723.87,422,268,69.7,265,4857,39752,1868,1.01,0.07,-0.12,-1.73,4.36,-0.97,3.48,-80.41,-67.16,-49.97,-15.31,-64.33,-51.19,Sad
59:44.0,457,476,714,571,422,1.42,702.16,2.06,20723.87,422,267,69.7,265,4857,45505,2135,1.02,0.07,-0.11,-2.11,2.82,-1.32,3.5,-81.14,-67.27,-49.91,-15.35,-64.44,-51.16,Sad
59:44.0,514,477,715.5,571,423,1.42,705,2.07,20723.87,422,268,69.7,265,4857,51793,2403,1.01,0.08,-0.1,-1.89,-2.25,-2.36,3.67,-81.31,-67.37,-50.23,-15.47,-64.53,-51.47,Sad
59:44.1,510,477,715.5,571,422,1.42,702.16,2.06,20723.87,422,270,76.91,267,5914,0,0,1.01,0.08,-0.12,-1.5,-0.51,-0.91,4.11,-80.16,-67.45,-50.42,-15.48,-64.58,-51.61,Sad
59:44.2,430,476,714,571,423,1.42,705,2.07,20723.87,422,266,76.91,267,5914,5220,266,1.01,0.08,-0.11,-0.91,1.27,-0.44,3.65,-81.13,-67.47,-50.48,-15.46,-64.63,-51.7,Sad
59:44.3,405,475,712.5,571,422,1.42,702.16,2.06,20723.87,422,253,76.91,267,5914,3693,519,1.01,0.08,-0.12,-2.06,1.44,0.34,3.65,-80.31,-67.59,-50.52,-15.37,-64.74,-51.71,Sad
59:44.3,476,475,712.5,571,423,1.42,705,2.07,20723.87,422,259,76.91,267,5914,5238,778,1.02,0.07,-0.12,-1.7,-0.12,-1.06,3.5,-80.77,-67.67,-50.68,-15.39,-64.83,-51.89,Sad
59:44.4,513,475,712.5,571,422,1.42,702.16,2.06,20723.87,422,258,76.91,267,5914,6266,1036,1.01,0.08,-0.13,-2.79,1.37,-1.92,3.74,-80.11,-67.84,-50.73,-15.48,-64.98,-51.91,Sad
59:44.5,521,476,714,571,423,1.42,705,2.07,20723.87,422,263,76.91,267,5914,9899,1299,1.01,0.08,-0.11,-2.07,1.85,-1.6,3.91,-80.65,-67.96,-50.74,-15.54,-65.08,-51.94,Sad
59:44.6,436,475,712.5,571,423,1.42,705,2.07,20723.87,422,259,76.91,267,5914,11444,1558,1.01,0.07,-0.12,-2.54,2.02,-0.16,3.49,-80.65,-68.11,-50.74,-15.49,-65.25,-51.94,Sad
59:44.7,432,475,712.5,571,424,1.41,707.85,2.07,20723.87,422,257,76.91,267,5914,11957,1815,1.02,0.07,-0.12,-1.67,1.54,-1.39,3.49,-80.57,-68.19,-50.78,-15.54,-65.33,-51.97,Sad
59:44.7,514,476,714,571,422,1.42,702.16,2.06,20723.87,422,244,76.91,267,5914,5957,2059,1.01,0.08,-0.13,-2.56,-0.25,-0.67,3.66,-79.81,-68.35,-50.95,-15.53,-65.47,-52.1,Sad
59:44.8,503,477,715.5,571,423,1.42,705,2.07,20723.87,422,251,76.91,267,5914,3422,2310,1.01,0.08,-0.11,-1.34,2.18,-2.13,3.66,-81.09,-68.41,-50.93,-15.63,-65.52,-52.14,Sad
59:44.9,551,478,717,571,423,1.42,705,2.07,20723.87,422,247,20724.3,255,429496608,0,0,1.01,0.08,-0.12,-2.66,2.12,-0.69,3.68,-80.32,-68.57,-50.92,-15.62,-65.68,-52.1,Sad
59:45.0,505,479,718.5,571,424,1.41,707.85,2.07,20723.87,422,250,20724.3,255,429496608,4294964260,250,1.02,0.08,-0.11,-1.69,-1.72,-2,3.69,-80.8,-68.66,-51.22,-15.72,-65.76,-52.4,Sad
59:45.0,459,478,717,571,423,1.42,705,2.07,20723.87,422,250,20724.3,255,429496608,4294961224,500,1.01,0.08,-0.11,-2.69,0.59,-1.73,3.75,-81.03,-68.82,-51.33,-15.79,-65.92,-52.51,Sad
59:45.1,436,478,717,571,423,1.42,705,2.07,20723.87,422,232,20724.3,255,429496608,4294949512,732,1.01,0.07,-0.13,-2.02,1.4,-0.58,3.58,-80.05,-68.94,-51.37,-15.77,-66.04,-52.52,Sad
59:45.2,424,477,715.5,571,422,1.42,702.16,2.06,20723.87,422,226,20724.3,255,429496608,4294935052,958,1,0.07,-0.11,-1.56,1.05,-0.11,3.36,-80.87,-69.01,-51.45,-15.72,-66.12,-52.62,Sad
59:45.3,421,476,714,571,422,1.42,702.16,2.06,20723.87,422,246,20724.3,255,429496608,4294930032,1204,1.02,0.07,-0.12,-1.06,1.05,-0.93,3.56,-80.49,-69.05,-51.52,-15.73,-66.15,-52.68,Sad
59:45.3,460,475,712.5,571,423,1.42,705,2.07,20723.87,422,250,20724.3,255,429496608,4294926996,1454,1.02,0.07,-0.11,-3.01,1.76,-1.44,3.56,-80.9,-69.25,-51.54,-15.78,-66.33,-52.72,Sad
59:45.4,485,475,712.5,571,423,1.42,705,2.07,20723.87,422,248,20724.3,255,429496608,4294922964,1702,1.02,0.07,-0.12,-1.7,1.35,-2.46,3.59,-80.31,-69.34,-51.59,-15.91,-66.42,-52.74,Sad
59:45.5,484,475,712.5,571,424,1.41,707.85,2.07,20723.87,422,243,20724.3,255,429496608,4294916477,1945,1.01,0.07,-0.1,-2.74,1.41,-1.07,3.61,-81.18,-69.51,-51.64,-15.93,-66.58,-52.82,Sad
59:45.6,494,475,712.5,571,423,1.42,705,2.07,20723.87,422,249,20724.3,255,429496608,4294912942,2194,1.02,0.08,-0.11,-1.05,1.69,-2.33,3.93,-80.63,-69.54,-51.66,-16.06,-66.6,-52.82,Sad
59:45.7,506,475,712.5,571,424,1.41,707.85,2.07,20723.88,423,231,20724.14,242,429490080,0,0,1.01,0.08,-0.11,-2.34,0.21,-0.32,3.99,-80.65,-69.68,-51.8,-16.02,-66.73,-52.96,Sad
59:45.7,533,475,712.5,571,422,1.42,702.16,2.06,20723.88,423,227,20724.14,242,429490080,4294953289,227,1.02,0.08,-0.1,-0.63,0.02,-0.74,3.97,-81.04,-69.69,-51.96,-16.02,-66.74,-53.12,Sad
59:45.8,579,476,714,579,423,1.42,705,2.07,20723.88,423,230,20724.14,242,429490080,4294940653,457,1.01,0.07,-0.12,-1.44,-0.44,-0.05,3.49,-80.62,-69.76,-52.15,-15.96,-66.83,-53.29,Sad
59:45.9,523,477,715.5,579,424,1.41,707.85,2.07,20723.88,423,229,20724.14,242,429490080,4294927558,686,1.02,0.08,-0.12,-2.86,-1.53,0.11,3.85,-80.27,-69.93,-52.42,-15.89,-66.98,-53.54,Sad
59:46.0,509,477,715.5,579,423,1.42,705,2.07,20723.88,423,230,20724.14,242,429490080,4294914922,916,1.02,0.07,-0.13,-1.24,2.32,-2.4,3.24,-80.25,-69.99,-52.4,-16.01,-67.06,-53.51,Sad
59:46.1,452,477,715.5,579,423,1.42,705,2.07,20723.88,423,244,20724.14,242,429490080,4294908922,1160,1.02,0.08,-0.13,-3.56,3.92,-3.35,3.78,-80.11,-70.22,-52.25,-16.22,-67.26,-53.36,Sad
59:46.1,468,477,715.5,579,422,1.42,702.16,2.06,20723.88,423,243,20724.14,242,429490080,4294902435,1403,1.02,0.08,-0.11,-2.79,3.7,-2.05,4.05,-80.57,-70.4,-52.11,-16.31,-67.42,-53.25,Sad
59:46.2,431,476,714,579,423,1.42,705,2.07,20723.88,423,242,20724.14,242,429490080,4294895463,1645,1.01,0.08,-0.09,-1.43,0.37,-1.12,4.19,-81.42,-70.47,-52.24,-16.34,-67.48,-53.41,Sad
59:46.3,405,474,711,579,423,1.42,705,2.07,20723.88,423,241,20724.14,242,429490080,4294888008,1886,1.01,0.08,-0.11,-1.3,-1.85,1.44,3.94,-80.6,-70.53,-52.55,-16.16,-67.55,-53.67,Sad
59:46.4,423,474,711,579,423,1.42,705,2.07,20723.88,423,243,20724.14,242,429490080,4294881521,2129,1.02,0.08,-0.12,-0.99,-1.81,1.01,3.65,-80.27,-70.56,-52.84,-16.02,-67.59,-53.94,Sad
59:46.5,459,473,709.5,579,423,1.42,705,2.07,20723.88,422,243,20724.08,237,429487488,0,0,1.01,0.07,-0.14,-2.06,2.16,-1.43,3.21,-79.81,-70.67,-52.83,-16.07,-67.72,-53.91,Sad
