Datetime, ECGRaw , AvgECG , ampECG , MAX , GSRRaw , Resistance , GSR(kohm) , SCL , GSRRMS , GSRMAV , EMGRaw , EMGRMS , EMGMAV , EMGVAR , EMGSSI , IEMG , AccX , AccY, AccZ , GyroX , GyroY , GyroZ , Aroll , Apitch , Groll , Gpitch, Gyaw , Combroll , Combpitch,Features
38:17.8,609,609,913.5,609,421,1.43,699.34,2.06,0,0,155,0,0,0,48361,311,0.96,0,0.31,-1.79,0.85,-1.08,-0.34,-70.54,-0.2,0,0.09,-0.21,-2.82,Standing
38:17.9,535,572,858,609,422,1.42,702.16,2.06,0,0,155,0,0,0,72386,466,0.96,0.01,0.29,-1.31,-1.15,-0.65,-0.05,-71.42,-0.27,-0.3,0.1,-0.26,-3.15,Standing
38:18.0,550,564,846,609,421,1.43,699.34,2.06,0,0,154,0,0,0,96102,620,0.95,0,0.3,-1.49,-2.6,-1.47,-0.48,-71.11,-0.36,-0.75,0.03,-0.37,-3.56,Standing
38:18.1,551,561,841.5,609,421,1.43,699.34,2.06,0,0,154,0,0,0,119818,774,0.95,0,0.29,-0.15,2.47,-1.64,-0.31,-71.2,-0.32,-0.7,-0.05,-0.32,-3.52,Standing
38:18.2,521,553,829.5,609,421,1.43,699.34,2.06,0,0,154,0,0,0,143534,928,0.94,0.01,0.29,-1.7,0.99,0.64,-0.13,-71.42,-0.44,-0.8,0.09,-0.42,-3.63,Standing
38:18.3,520,547,820.5,609,422,1.42,702.16,2.06,0,0,154,0,0,0,167250,1082,0.96,0,0.3,-1.66,0.5,1.08,-0.5,-71.2,-0.54,-0.95,0.27,-0.54,-3.76,Standing
38:18.3,559,549,823.5,609,421,1.43,699.34,2.06,0,0,154,0,0,0,190966,1236,0.96,0,0.3,0.27,1.95,-1.02,-0.69,-71.11,-0.46,-0.95,0.25,-0.47,-3.76,Standing
38:18.4,614,557,835.5,614,421,1.43,699.34,2.06,0,0,154,0,0,0,214682,1390,0.96,-0.01,0.28,-0.89,-1.05,-1.43,-1.1,-71.99,-0.49,-1.25,0.19,-0.52,-4.08,Standing
38:18.5,537,555,832.5,614,421,1.43,699.34,2.06,20723.84,421,156,154.6,154,23900,0,0,0.96,0.02,0.28,-2.77,0.1,-1.22,0.4,-72.09,-0.71,-1.44,0.15,-0.67,-4.27,Standing
38:18.6,563,555,832.5,614,421,1.43,699.34,2.06,20723.84,421,156,154.6,154,23900,24336,156,0.96,0,0.29,-2.23,4.02,-2.53,-0.52,-71.5,-0.88,-1.24,-0.03,-0.86,-4.05,Standing
38:18.7,600,559,838.5,614,422,1.42,702.16,2.06,20723.84,421,153,154.6,154,23900,47745,309,0.95,0,0.3,-3.15,0.64,-3.44,-0.34,-70.88,-1.14,-1.38,-0.29,-1.11,-4.16,Standing
38:18.8,549,559,838.5,614,421,1.43,699.34,2.06,20723.84,421,156,154.6,154,23900,72081,465,0.95,0.01,0.29,-3.47,-1.69,-2.07,0.01,-71.48,-1.43,-1.75,-0.42,-1.37,-4.54,Standing
38:18.9,537,557,835.5,614,421,1.43,699.34,2.06,20723.84,421,156,154.6,154,23900,96417,621,0.96,0.01,0.29,-1.05,0.48,-1.64,-0.16,-71.38,-1.48,-1.9,-0.5,-1.43,-4.68,Standing
38:19.0,567,558,837,614,421,1.43,699.34,2.06,20723.84,421,152,154.6,154,23900,119521,773,0.95,0,0.29,-2.15,0.06,-0.55,-0.48,-71.41,-1.64,-2.09,-0.48,-1.59,-4.87,Standing
38:19.1,521,555,832.5,614,421,1.43,699.34,2.06,20723.84,421,156,154.6,154,23900,143857,929,0.95,0.01,0.29,-3.95,-0.56,0.21,0.08,-71.68,-1.98,-2.35,-0.38,-1.89,-5.12,Standing
38:19.2,516,553,829.5,614,422,1.42,702.16,2.06,20723.84,421,156,154.6,154,23900,168193,1085,0.96,0.01,0.28,-1.58,2.02,0.21,-0.27,-72.09,-2.08,-2.35,-0.28,-2.01,-5.14,Standing
38:19.3,525,551,826.5,614,421,1.43,699.34,2.06,20723.84,421,153,154.6,154,23900,191602,1238,0.96,0,0.27,-2.94,-1.2,0.19,-0.48,-72.74,-2.32,-2.67,-0.18,-2.25,-5.47,Standing
38:19.4,540,550,825,614,421,1.43,699.34,2.06,20723.84,421,152,154.6,154,23900,214706,1390,0.96,0,0.3,-0.98,1.74,-0.11,-0.4,-71.26,-2.36,-2.7,-0.11,-2.28,-5.44,Standing
38:19.5,508,548,822,614,421,1.43,699.34,2.06,20723.84,421,152,154.21,154,23780,0,0,0.96,0,0.3,-2.21,0.63,-0.69,-0.62,-71.23,-2.52,-2.83,-0.1,-2.45,-5.57,Standing
38:19.6,487,545,817.5,614,421,1.43,699.34,2.06,20723.84,421,152,154.21,154,23780,23104,152,0.96,-0.01,0.3,-0.34,0.69,-2.53,-1.37,-71.13,-2.5,-2.96,-0.28,-2.45,-5.69,Standing
38:19.7,515,544,816,614,421,1.43,699.34,2.06,20723.84,421,152,154.21,154,23780,46208,304,0.96,0,0.28,-1.8,-1.37,-3.14,-0.45,-71.95,-2.62,-3.3,-0.51,-2.54,-6.04,Standing
38:19.8,490,541,811.5,614,421,1.43,699.34,2.06,20723.84,421,152,154.21,154,23780,69312,456,0.95,0.01,0.28,-1.83,-1.24,-1.85,-0.07,-72.26,-2.75,-3.62,-0.62,-2.64,-6.36,Standing
38:19.9,480,538,807,614,421,1.43,699.34,2.06,20723.84,421,152,154.21,154,23780,92416,608,0.95,0,0.28,-1,-1.16,0.43,-0.48,-71.95,-2.79,-3.93,-0.5,-2.7,-6.66,Standing
38:20.0,488,536,804,614,422,1.42,702.16,2.06,20723.84,421,155,154.21,154,23780,116441,763,0.97,0,0.27,-1.18,2.1,0.08,-0.8,-72.75,-2.86,-3.92,-0.41,-2.77,-6.68,Standing
38:20.1,513,535,802.5,614,421,1.43,699.34,2.06,20723.84,421,152,154.21,154,23780,139545,915,0.98,0,0.29,0.1,1.92,-1.95,-0.5,-72.12,-2.79,-3.93,-0.53,-2.7,-6.66,Standing
38:20.2,777,545,817.5,777,422,1.42,702.16,2.06,20723.84,421,156,154.21,154,23780,163881,1071,0.97,0,0.27,-1.15,-1.55,-2.79,-0.43,-72.77,-2.85,-4.29,-0.73,-2.75,-7.03,Standing
38:20.3,553,545,817.5,777,422,1.42,702.16,2.06,20723.84,421,156,154.21,154,23780,188217,1227,0.96,0,0.26,-1.85,-0.25,-3.52,-0.31,-73.47,-2.98,-4.51,-1,-2.87,-7.27,Standing
38:20.4,608,547,820.5,777,422,1.42,702.16,2.06,20723.84,421,152,154.21,154,23780,211321,1379,0.95,0.01,0.27,-1.6,4.5,-1.82,0.14,-72.59,-3.08,-4.26,-1.1,-2.95,-7,Standing
38:20.5,516,546,819,777,421,1.43,699.34,2.06,20723.84,421,152,153.11,153,23441,0,0,0.96,0.01,0.27,-3.05,0.05,-0.11,0.28,-72.61,-3.33,-4.46,-1.03,-3.18,-7.18,Standing
38:20.6,505,545,817.5,777,421,1.43,699.34,2.06,20723.84,421,155,153.11,153,23441,24025,155,0.97,0,0.28,-2.49,0.63,0.48,-0.46,-72.11,-3.52,-4.59,-0.91,-3.4,-7.29,Standing
38:20.8,537,544,816,777,422,1.42,702.16,2.06,20723.84,421,152,153.11,153,23441,47129,307,0.96,0,0.28,-0.89,2.18,-1.92,-0.61,-72.37,-3.55,-4.58,-1.02,-3.44,-7.29,Standing
38:20.8,508,543,814.5,777,422,1.42,702.16,2.06,20723.84,421,152,153.11,153,23441,70233,459,0.96,0.01,0.28,-1.09,1.09,-1.97,0.08,-72.33,-3.61,-4.67,-1.14,-3.46,-7.37,Standing
38:20.9,522,543,814.5,777,422,1.42,702.16,2.06,20723.84,421,155,153.11,153,23441,94258,614,0.95,0.01,0.28,-0.52,0.49,-0.44,-0.1,-71.92,-3.6,-4.82,-1.1,-3.46,-7.5,Standing
38:21.0,536,542,813,777,422,1.42,702.16,2.06,20723.84,421,152,153.11,153,23441,117362,766,0.96,0.01,0.28,-2.01,-0.73,-0.74,0.2,-72.07,-3.75,-5.09,-1.1,-3.59,-7.77,Standing
38:21.1,554,543,814.5,777,422,1.42,702.16,2.06,20723.84,421,154,153.11,153,23441,141078,920,0.96,0.01,0.27,-1.87,3.25,-2.15,-0.24,-72.59,-3.88,-4.96,-1.23,-3.73,-7.67,Standing
38:21.2,514,542,813,777,422,1.42,702.16,2.06,20723.84,421,155,153.11,153,23441,165103,1075,0.96,0.01,0.29,-3.72,2.52,-1.33,-0.26,-71.92,-4.2,-4.91,-1.29,-4.04,-7.59,Standing
38:21.3,524,541,811.5,777,422,1.42,702.16,2.06,20723.84,421,155,153.11,153,23441,189128,1230,0.95,0.01,0.27,-2.6,-2.09,-2.24,-0.13,-72.35,-4.4,-5.32,-1.43,-4.23,-8,Standing
38:21.4,552,542,813,777,422,1.42,702.16,2.06,20723.84,421,155,153.11,153,23441,213153,1385,0.95,0.02,0.28,-1.66,0.5,-1.24,0.61,-71.95,-4.51,-5.47,-1.48,-4.31,-8.13,Standing
38:21.5,610,543,814.5,777,422,1.42,702.16,2.06,20723.85,421,151,153.61,153,23594,0,0,0.96,0.02,0.28,-1.82,1.1,1.34,0.34,-72.31,-4.63,-5.56,-1.27,-4.43,-8.23,Standing
38:21.6,561,544,816,777,422,1.42,702.16,2.06,20723.85,421,154,153.61,153,23594,23716,154,0.97,0,0.28,-3,1.42,1.73,-0.65,-72.29,-4.87,-5.62,-1.02,-4.71,-8.29,Standing
38:21.7,621,546,819,777,422,1.42,702.16,2.06,20723.85,421,154,153.61,153,23594,47432,308,0.96,0,0.27,-1.85,3.12,-0.45,-0.68,-72.65,-5.01,-5.51,-0.99,-4.83,-8.19,Standing
38:21.8,526,545,817.5,777,422,1.42,702.16,2.06,20723.85,421,151,153.61,153,23594,70233,459,0.97,0,0.27,-2.59,2.98,-0.14,-0.47,-72.79,-5.21,-5.41,-0.92,-5.02,-8.1,Standing
38:21.9,523,545,817.5,777,422,1.42,702.16,2.06,20723.85,421,154,153.61,153,23594,93949,613,0.97,0,0.28,-6.11,-1.53,-1.89,-0.51,-72.37,-5.76,-5.76,-1.03,-5.55,-8.43,Standing
38:22.0,547,545,817.5,777,422,1.42,702.16,2.06,20723.85,421,154,153.61,153,23594,117665,767,0.96,0,0.28,-4.02,3.76,-3.68,-0.75,-72.12,-6.11,-5.59,-1.32,-5.89,-8.25,Standing
38:22.1,535,544,816,777,422,1.42,702.16,2.06,20723.85,421,153,153.61,153,23594,141074,920,0.95,0.01,0.29,-2.64,1.58,-3.4,-0.17,-71.61,-6.32,-5.63,-1.58,-6.07,-8.27,Standing
38:22.2,546,545,817.5,777,422,1.42,702.16,2.06,20723.85,421,154,153.61,153,23594,164790,1074,0.95,-0.01,0.31,-1.5,-1.85,-1.87,-1.02,-70.49,-6.41,-6.01,-1.69,-6.19,-8.59,Standing
38:22.3,572,545,817.5,777,422,1.42,702.16,2.06,20723.85,421,154,153.61,153,23594,188506,1228,0.95,0,0.28,-2.76,0.01,-0.6,-0.79,-72.01,-6.63,-6.21,-1.67,-6.4,-8.85,Standing
38:22.4,625,547,820.5,777,422,1.42,702.16,2.06,20723.85,421,150,153.61,153,23594,211006,1378,0.96,0.01,0.29,-1.33,3.79,-1.64,0.02,-71.62,-6.71,-6.03,-1.76,-6.44,-8.66,Standing
38:22.5,532,546,819,777,422,1.42,702.16,2.06,20723.86,422,150,152.81,152,23349,0,0,0.96,0.01,0.28,-2.72,-0.1,1.1,-0.09,-72.07,-6.92,-6.24,-1.57,-6.65,-8.87,Standing
38:22.6,552,547,820.5,777,422,1.42,702.16,2.06,20723.86,422,154,152.81,152,23349,23716,154,0.96,0,0.29,-2.58,-0.55,0.11,-0.58,-71.78,-7.12,-6.5,-1.48,-6.86,-9.11,Standing
38:22.7,594,547,820.5,777,422,1.42,702.16,2.06,20723.86,422,154,152.81,152,23349,47432,308,0.96,0,0.29,-0.83,1.18,-2.14,-0.82,-71.93,-7.15,-6.58,-1.61,-6.9,-9.19,Standing
38:22.8,594,548,822,777,422,1.42,702.16,2.06,20723.86,422,154,152.81,152,23349,71148,462,0.96,0,0.28,-1.03,-0.37,-0.85,-0.64,-72.31,-7.2,-6.82,-1.62,-6.94,-9.44,Standing
38:22.9,577,549,823.5,777,422,1.42,702.16,2.06,20723.86,422,153,152.81,152,23349,94557,615,0.96,-0.01,0.29,-1.5,0.7,-1.3,-0.9,-71.46,-7.29,-6.95,-1.67,-7.04,-9.53,Standing
38:23.0,637,550,825,777,422,1.42,702.16,2.06,20723.86,422,154,152.81,152,23349,118273,769,0.96,0,0.3,-1.53,3.41,-2.83,-0.73,-71.29,-7.39,-6.81,-1.87,-7.12,-9.39,Standing
38:23.1,560,551,826.5,777,422,1.42,702.16,2.06,20723.86,422,153,152.81,152,23349,141682,922,0.94,0.01,0.28,-2.66,-0.02,-0.41,-0.1,-72.05,-7.6,-7.01,-1.84,-7.3,-9.61,Standing
38:23.2,539,550,825,777,422,1.42,702.16,2.06,20723.86,422,153,152.81,152,23349,165091,1075,0.96,0,0.29,-0.97,2.27,-0.35,-0.44,-71.67,-7.64,-6.98,-1.79,-7.35,-9.57,Standing
38:23.3,531,550,825,777,422,1.42,702.16,2.06,20723.86,422,153,152.81,152,23349,188500,1228,0.97,0,0.29,-1.61,1.57,-0.63,-0.86,-71.81,-7.74,-7.02,-1.78,-7.47,-9.62,Standing
38:23.4,556,550,825,777,422,1.42,702.16,2.06,20723.86,422,153,152.81,152,23349,211909,1381,0.96,0.01,0.28,-1.87,-1.19,-1.65,-0.2,-72.33,-7.88,-7.35,-1.86,-7.57,-9.95,Standing
38:23.5,524,550,825,777,422,1.42,702.16,2.06,20723.86,422,150,153.1,153,23439,0,0,0.96,0.01,0.28,-1.76,0.08,-1.05,-0.12,-72.32,-8,-7.54,-1.89,-7.68,-10.13,Standing
38:23.6,508,549,823.5,777,422,1.42,702.16,2.06,20723.86,422,149,153.1,153,23439,22201,149,0.96,0,0.28,-2.27,2.64,-1.44,-0.54,-71.96,-8.17,-7.47,-1.95,-7.86,-10.05,Standing
38:23.7,537,549,823.5,777,422,1.42,702.16,2.06,20723.86,422,153,153.1,153,23439,45610,302,0.96,0.01,0.29,-2.58,0.34,-2.46,-0.27,-71.57,-8.37,-7.64,-2.12,-8.05,-10.2,Standing
38:23.8,520,548,822,777,422,1.42,702.16,2.06,20723.86,422,149,153.1,153,23439,67811,451,0.95,0.01,0.28,-1.43,-0.66,-1.37,-0.18,-72.04,-8.46,-7.9,-2.18,-8.12,-10.47,Standing
38:23.9,466,547,820.5,777,422,1.42,702.16,2.06,20723.86,422,153,153.1,153,23439,91220,604,0.95,0,0.27,-1.83,1.05,0.4,-0.44,-72.44,-8.58,-8,-2.06,-8.26,-10.57,Standing
38:24.0,475,546,819,777,422,1.42,702.16,2.06,20723.86,422,153,153.1,153,23439,114629,757,0.96,-0.01,0.29,-1.98,0.43,-0.56,-0.87,-71.45,-8.73,-8.16,-2.04,-8.41,-10.69,Standing
38:24.1,499,545,817.5,777,422,1.42,702.16,2.06,20723.86,422,152,153.1,153,23439,137733,909,0.97,0,0.27,-1.79,-0.23,-1.56,-0.62,-72.82,-8.85,-8.38,-2.11,-8.52,-10.96,Standing
38:24.2,527,545,817.5,777,422,1.42,702.16,2.06,20723.86,422,153,153.1,153,23439,161142,1062,0.96,0.01,0.27,-1.78,-1.26,-1.36,0.09,-72.75,-8.97,-8.7,-2.17,-8.61,-11.27,Standing
38:24.3,479,544,816,777,422,1.42,702.16,2.06,20723.86,422,153,153.1,153,23439,184551,1215,0.97,0,0.27,-3.15,-1.18,-1.58,-0.45,-72.69,-9.23,-9.03,-2.25,-8.88,-11.57,Standing
38:24.4,573,544,816,777,422,1.42,702.16,2.06,20723.86,422,153,153.1,153,23439,207960,1368,0.97,0,0.27,-3.18,1.71,-3.24,-0.33,-72.8,-9.49,-9.05,-2.49,-9.13,-11.6,Standing
38:24.5,654,546,819,777,422,1.42,702.16,2.06,20723.86,422,152,152.01,152,23105,0,0,0.96,0.01,0.28,-2.89,2.93,-3.77,-0.18,-72.45,-9.73,-8.96,-2.79,-9.34,-11.5,Standing
38:24.6,555,546,819,777,422,1.42,702.16,2.06,20723.86,422,149,152.01,152,23105,22201,149,0.95,0.01,0.28,-2.63,3.11,-2.34,0.21,-72.19,-9.93,-8.85,-2.94,-9.53,-11.38,Standing
38:24.7,559,546,819,777,422,1.42,702.16,2.06,20723.86,422,152,152.01,152,23105,45305,301,0.95,0.01,0.28,-1.69,3.53,-1.63,0.16,-72.08,-10.04,-8.7,-3.03,-9.64,-11.23,Standing
38:24.8,547,546,819,777,422,1.42,702.16,2.06,20723.86,422,152,152.01,152,23105,68409,453,0.96,0.01,0.29,-2.03,1.52,-0.11,0.27,-71.8,-10.19,-8.74,-2.96,-9.77,-11.27,Standing
38:24.9,554,546,819,777,422,1.42,702.16,2.06,20723.86,422,152,152.01,152,23105,91513,605,0.96,0.01,0.29,-1.59,1.18,-0.98,-0.22,-71.89,-10.29,-8.83,-2.98,-9.89,-11.35,Standing
38:25.0,551,546,819,777,422,1.42,702.16,2.06,20723.86,422,152,152.01,152,23105,114617,757,0.96,0.01,0.28,-1.82,0.05,-1.46,0.18,-72.11,-10.42,-9.02,-3.05,-10,-11.55,Standing
38:25.1,556,546,819,777,422,1.42,702.16,2.06,20723.86,422,152,152.01,152,23105,137721,909,0.96,0,0.28,-0.34,1.4,-0.4,-0.43,-72.43,-10.4,-9.08,-3.01,-10,-11.62,Standing
38:25.2,572,547,820.5,777,422,1.42,702.16,2.06,20723.86,422,152,152.01,152,23105,160825,1061,0.97,0.02,0.26,-4.13,2.5,-1.03,0.48,-73.3,-10.76,-9.03,-3.03,-10.31,-11.6,Standing
38:25.3,636,548,822,777,422,1.42,702.16,2.06,20723.86,422,152,152.01,152,23105,183929,1213,0.95,0.01,0.28,-2.26,3.89,-1.24,0.03,-71.76,-10.93,-8.84,-3.08,-10.49,-11.36,Standing
38:25.4,535,548,822,777,422,1.42,702.16,2.06,20723.86,422,149,152.01,152,23105,206130,1362,0.96,0.01,0.29,-3.34,0.44,-1.34,-0.01,-71.8,-11.21,-9,-3.13,-10.76,-11.51,Standing
38:25.5,524,547,820.5,777,422,1.42,702.16,2.06,20723.86,422,149,151.11,151,22832,0,0,0.95,0.01,0.29,-2.76,0.63,-2.37,-0.2,-71.38,-11.43,-9.14,-3.29,-10.98,-11.63,Standing
38:25.6,526,547,820.5,777,422,1.42,702.16,2.06,20723.86,422,148,151.11,151,22832,21904,148,0.95,0,0.29,-2.89,1.18,-0.83,-0.33,-71.39,-11.66,-9.22,-3.3,-11.2,-11.71,Standing
38:25.7,544,547,820.5,777,422,1.42,702.16,2.06,20723.86,422,152,151.11,151,22832,45008,300,0.95,0.01,0.3,-2.35,0.85,0.06,-0.01,-70.84,-11.84,-9.33,-3.21,-11.36,-11.79,Standing
38:25.8,503,547,820.5,777,422,1.42,702.16,2.06,20723.86,422,152,151.11,151,22832,68112,452,0.96,0.01,0.28,-2.5,0.7,0.6,-0.19,-71.89,-12.03,-9.47,-3.07,-11.56,-11.96,Standing
38:25.9,514,546,819,777,422,1.42,702.16,2.06,20723.86,422,152,151.11,151,22832,91216,604,0.97,0,0.3,-2.27,2.02,-1.54,-0.33,-71.47,-12.2,-9.46,-3.14,-11.73,-11.94,Standing
38:26.0,560,546,819,777,422,1.42,702.16,2.06,20723.86,422,151,151.11,151,22832,114017,755,0.95,0,0.29,-1.91,1.09,-2.3,-0.68,-71.36,-12.34,-9.55,-3.3,-11.87,-12.03,Standing
38:26.1,574,547,820.5,777,422,1.42,702.16,2.06,20723.86,422,151,151.11,151,22832,136818,906,0.95,0.01,0.29,-1.67,1.17,-1.55,-0.28,-71.48,-12.45,-9.64,-3.37,-11.96,-12.11,Standing
38:26.2,495,546,819,777,422,1.42,702.16,2.06,20723.86,422,150,151.11,151,22832,159318,1056,0.94,0.01,0.29,-1.98,1.16,-0.93,-0.28,-71.48,-12.59,-9.72,-3.39,-12.1,-12.19,Standing
38:26.3,492,545,817.5,777,422,1.42,702.16,2.06,20723.86,422,152,151.11,151,22832,182422,1208,0.96,0.01,0.29,-2.91,2.8,0.32,-0.04,-71.56,-12.83,-9.64,-3.27,-12.32,-12.12,Standing
38:26.4,501,545,817.5,777,422,1.42,702.16,2.06,20723.86,422,151,151.11,151,22832,205223,1359,0.96,0.01,0.3,-2.05,2.98,-1.66,-0.19,-71.18,-12.98,-9.54,-3.36,-12.47,-12.01,Standing
38:26.5,497,544,816,777,422,1.42,702.16,2.06,20723.86,422,151,151,151,22801,0,0,0.95,0.01,0.29,-2.58,0.65,-1.58,-0.19,-71.28,-13.18,-9.68,-3.44,-12.66,-12.14,Standing
38:26.6,548,544,816,777,422,1.42,702.16,2.06,20723.86,422,151,151,151,22801,22801,151,0.95,0.01,0.29,-2.4,2.57,-1.08,0.04,-71.42,-13.37,-9.62,-3.47,-12.83,-12.09,Standing
38:26.7,559,545,817.5,777,422,1.42,702.16,2.06,20723.86,422,151,151,151,22801,45602,302,0.95,0.01,0.3,-1.82,1.89,-1,-0.05,-70.65,-13.49,-9.63,-3.49,-12.95,-12.07,Standing
38:26.8,612,545,817.5,777,422,1.42,702.16,2.06,20723.86,422,151,151,151,22801,68403,453,0.95,0,0.3,-2.15,-0.54,-0.93,-0.75,-70.93,-13.65,-9.88,-3.5,-13.14,-12.32,Standing
38:26.9,513,545,817.5,777,422,1.42,702.16,2.06,20723.86,422,151,151,151,22801,91204,604,0.96,0.01,0.3,-2.32,2.17,-0.6,-0.24,-71.14,-13.83,-9.87,-3.48,-13.29,-12.32,Standing
38:27.0,528,545,817.5,777,422,1.42,702.16,2.06,20723.86,422,147,151,151,22801,112813,751,0.96,0.01,0.3,-1.65,1.43,-0.77,-0.23,-71.12,-13.94,-9.92,-3.48,-13.39,-12.37,Standing
38:27.1,527,545,817.5,777,422,1.42,702.16,2.06,20723.86,422,151,151,151,22801,135614,902,0.96,0,0.3,-2.13,-0.84,-0.63,-0.59,-71.2,-14.1,-10.21,-3.47,-13.56,-12.65,Standing
38:27.3,537,545,817.5,777,422,1.42,702.16,2.06,20723.86,422,150,151,151,22801,158114,1052,0.95,0.01,0.3,-0.99,3.11,-1.95,-0.17,-70.72,-14.14,-10.09,-3.58,-13.58,-12.52,Standing
38:27.3,587,545,817.5,777,422,1.42,702.16,2.06,20723.86,422,150,151,151,22801,180614,1202,0.94,0.01,0.29,-2.31,-0.49,0.61,-0.11,-71.25,-14.32,-10.34,-3.44,-13.75,-12.78,Standing
38:27.5,505,545,817.5,777,422,1.42,702.16,2.06,20723.86,422,150,151,151,22801,203114,1352,0.96,-0.01,0.3,-2.56,-1.21,0.54,-0.98,-71.02,-14.52,-10.67,-3.31,-13.98,-13.08,Standing
38:27.6,559,545,817.5,777,422,1.42,702.16,2.06,20723.86,422,146,149.81,149,22442,0,0,0.95,-0.01,0.28,-1.71,1.59,0.27,-1.29,-71.76,-14.63,-10.71,-3.2,-14.1,-13.15,Standing
38:27.7,486,544,816,777,422,1.42,702.16,2.06,20723.86,422,146,149.81,149,22442,21316,146,0.96,0.01,0.3,-2.95,-0.13,-0.73,-0.26,-71.37,-14.87,-10.92,-3.2,-14.29,-13.34,Standing
38:27.8,464,543,814.5,777,423,1.42,705,2.07,20723.86,422,147,149.81,149,22442,42925,293,0.96,0,0.29,-1.63,3.57,-0.11,-0.78,-71.42,-14.98,-10.76,-3.13,-14.41,-13.19,Standing
38:27.9,475,542,813,777,422,1.42,702.16,2.06,20723.86,422,150,149.81,149,22442,65425,443,0.96,-0.01,0.32,-2.47,0.21,-0.79,-1.43,-69.96,-15.17,-10.95,-3.13,-14.62,-13.31,Standing
38:28.0,490,541,811.5,777,422,1.42,702.16,2.06,20723.86,422,146,149.81,149,22442,86741,589,0.96,0,0.29,-2.73,1.63,-1.44,-0.62,-71.38,-15.39,-10.98,-3.19,-14.8,-13.4,Standing
38:28.1,470,541,811.5,777,422,1.42,702.16,2.06,20723.86,422,147,149.81,149,22442,108350,736,0.96,-0.01,0.29,-2.73,0.8,-1.01,-1.17,-71.27,-15.61,-11.1,-3.22,-15.03,-13.51,Standing
38:28.2,493,540,810,777,422,1.42,702.16,2.06,20723.86,422,146,149.81,149,22442,129666,882,0.96,-0.01,0.29,-2.47,1.39,-1.67,-1.19,-71.71,-15.8,-11.17,-3.31,-15.22,-13.59,Standing
38:28.3,527,540,810,777,423,1.42,705,2.07,20723.86,422,150,149.81,149,22442,152166,1032,0.94,-0.01,0.29,-2.29,2.55,-2.19,-1.43,-71.35,-15.97,-11.11,-3.45,-15.39,-13.52,Standing
38:28.4,576,541,811.5,777,423,1.42,705,2.07,20723.86,422,150,149.81,149,22442,174666,1182,0.94,0,0.32,-2.81,1.74,-1.01,-0.76,-69.79,-16.2,-11.14,-3.47,-15.59,-13.48,Standing
38:28.5,496,539,808.5,777,423,1.42,705,2.07,20723.86,422,146,149.81,149,22442,195982,1328,0.96,-0.01,0.32,-3.04,0.58,-0.27,-1.22,-69.91,-16.45,-11.28,-3.41,-15.84,-13.63,Standing
38:28.6,528,539,808.5,777,423,1.42,705,2.07,20723.87,422,150,147.81,147,21847,0,0,0.95,-0.01,0.31,-1.82,0.14,-2.61,-1.04,-70.43,-16.58,-11.47,-3.6,-15.96,-13.82,Standing
38:28.7,533,539,808.5,777,423,1.42,705,2.07,20723.87,422,150,147.81,147,21847,22500,150,0.95,-0.01,0.3,-0.18,1.59,-1.47,-0.92,-70.75,-16.54,-11.51,-3.66,-15.92,-13.88,Standing
38:28.8,548,538,807,777,423,1.42,705,2.07,20723.87,422,150,147.81,147,21847,45000,300,0.95,-0.01,0.31,-0.71,-1.11,-1.05,-0.89,-70.49,-16.56,-11.82,-3.69,-15.93,-14.17,Standing
38:28.9,514,538,807,777,423,1.42,705,2.07,20723.87,422,150,147.81,147,21847,67500,450,0.95,-0.01,0.29,-1.96,-0.61,-1.11,-0.97,-71.6,-16.7,-12.08,-3.72,-16.07,-14.47,Standing
38:36.9,500,500,750,500,423,1.42,705,2.07,0,0,141,0,0,0,40330,284,0.96,0.01,0.28,-1.21,-0.67,2.31,0.26,-71.98,0.29,-0.19,0.36,0.29,-3.06,Left Fall while Standing
38:37.0,427,463,694.5,500,423,1.42,705,2.07,0,0,142,0,0,0,60494,426,0.97,0,0.25,-0.51,-3.73,3.43,-0.59,-73.87,0.3,-0.74,0.76,0.26,-3.66,Left Fall while Standing
38:37.0,550,492,738,550,423,1.42,705,2.07,0,0,143,0,0,0,80943,569,0.99,0.01,0.28,-2.18,-3.14,-2.51,0.12,-72.45,0.14,-1.23,0.59,0.14,-4.08,Left Fall while Standing
38:37.1,636,528,792,636,424,1.41,707.85,2.07,0,0,144,0,0,0,101679,713,0.99,0.02,0.28,7.99,6.47,-9.48,0.34,-72.39,0.97,-0.8,-0.25,0.94,-3.66,Left Fall while Standing
38:37.2,593,541,811.5,636,424,1.41,707.85,2.07,0,0,142,0,0,0,121843,855,0.96,0.03,0.23,8.12,8.08,-12.15,1.41,-74.61,1.81,-0.21,-1.35,1.79,-3.19,Left Fall while Standing
38:37.3,641,557,835.5,641,423,1.42,705,2.07,0,0,142,0,0,0,142007,997,0.97,0.05,0.26,4.41,7.09,-12.48,2.43,-73.09,2.29,0.28,-2.48,2.3,-2.65,Left Fall while Standing
38:37.4,630,568,852,641,424,1.41,707.85,2.07,0,0,142,0,0,0,162171,1139,0.95,0.08,0.28,6.57,8.11,-18.44,3.98,-71.23,2.98,0.88,-4.2,3.02,-2.01,Left Fall while Standing
38:37.5,654,578,867,654,423,1.42,705,2.07,0,0,141,0,0,0,182052,1280,0.9,0.12,0.27,5.73,6.93,-17.04,6.62,-70.38,3.59,1.35,-5.77,3.72,-1.51,Left Fall while Standing
38:37.6,952,620,930,952,423,1.42,705,2.07,20723.88,423,143,142.3,142,20249,0,0,0.91,0.16,0.27,3.71,0.19,-9.92,9.13,-69.12,4.01,1.18,-6.67,4.22,-1.63,Left Fall while Standing
38:37.7,682,626,939,952,423,1.42,705,2.07,20723.88,423,141,142.3,142,20249,19881,141,0.95,0.16,0.3,9.07,-7.38,-12.51,8.76,-68.61,4.97,0.25,-7.83,5.12,-2.51,Left Fall while Standing
38:37.8,718,634,951,952,424,1.41,707.85,2.07,20723.88,423,145,142.3,142,20249,40906,286,0.94,0.2,0.27,9.06,-3.7,-16.66,11.2,-68.48,5.92,-0.32,-9.4,6.13,-3.04,Left Fall while Standing
38:37.9,558,628,942,952,424,1.41,707.85,2.07,20723.88,423,144,142.3,142,20249,61642,430,0.94,0.24,0.28,6.06,-2.11,-16.2,13.32,-67.06,6.58,-0.73,-10.94,6.85,-3.38,Left Fall while Standing
38:38.0,537,621,931.5,952,423,1.42,705,2.07,20723.88,423,141,142.3,142,20249,81523,571,0.93,0.26,0.27,8.78,2.24,-19.15,14.64,-66.41,7.51,-0.7,-12.78,7.8,-3.33,Left Fall while Standing
38:38.1,519,614,921,952,423,1.42,705,2.07,20723.88,423,141,142.3,142,20249,101404,712,0.9,0.29,0.26,11.25,1.09,-20.15,16.69,-64.86,8.68,-0.79,-14.69,9,-3.36,Left Fall while Standing
38:38.2,538,609,913.5,952,424,1.41,707.85,2.07,20723.88,423,144,142.3,142,20249,122140,856,0.89,0.33,0.24,7.05,-3.91,-14.08,19,-63.93,9.45,-1.39,-16.03,9.83,-3.89,Left Fall while Standing
38:38.3,675,613,919.5,952,424,1.41,707.85,2.07,20723.88,423,141,142.3,142,20249,142021,997,0.88,0.34,0.24,4.1,1.06,-9.32,19.95,-63.13,9.91,-1.48,-16.88,10.31,-3.95,Left Fall while Standing
38:38.4,553,609,913.5,952,424,1.41,707.85,2.07,20723.88,423,145,142.3,142,20249,163046,1142,0.89,0.36,0.25,1.66,1.97,-10.72,20.57,-62.41,10.14,-1.49,-17.87,10.55,-3.92,Left Fall while Standing
38:38.5,623,610,915,952,423,1.42,705,2.07,20723.88,423,144,142.3,142,20249,183782,1286,0.89,0.38,0.23,4.78,1.24,-12.37,21.72,-62,10.67,-1.56,-19.04,11.12,-3.98,Left Fall while Standing
38:38.6,498,604,906,952,424,1.41,707.85,2.07,20723.89,423,141,142.71,142,20365,0,0,0.89,0.4,0.24,9.46,-1.97,-13.09,22.55,-60.92,11.66,-1.95,-20.25,12.09,-4.31,Left Fall while Standing
38:38.7,521,600,900,952,424,1.41,707.85,2.07,20723.89,423,145,142.71,142,20365,21025,145,0.86,0.44,0.2,6.31,-1.7,-12.49,26.06,-58.83,12.34,-2.32,-21.42,12.89,-4.58,Left Fall while Standing
38:38.8,549,597,895.5,952,423,1.42,705,2.07,20723.89,423,144,142.71,142,20365,41761,289,0.85,0.45,0.18,-0.03,0.1,-6.06,26.99,-58.53,12.4,-2.51,-21.95,12.98,-4.75,Left Fall while Standing
38:38.9,555,595,892.5,952,424,1.41,707.85,2.07,20723.89,423,145,142.71,142,20365,62786,434,0.86,0.45,0.2,-2,6.52,-5.56,26.38,-58.75,12.25,-2.06,-22.43,12.82,-4.33,Left Fall while Standing
38:39.0,654,598,897,952,424,1.41,707.85,2.07,20723.89,423,145,142.71,142,20365,83811,579,0.86,0.46,0.22,1.93,1.63,-7.46,27.09,-57.61,12.5,-2.1,-23.09,13.08,-4.32,Left Fall while Standing
38:39.1,528,595,892.5,952,423,1.42,705,2.07,20723.89,423,141,142.71,142,20365,103692,720,0.86,0.47,0.22,6.36,-0.88,-10.61,27.44,-57.1,13.2,-2.39,-24.08,13.77,-4.58,Left Fall while Standing
38:39.2,551,593,889.5,952,423,1.42,705,2.07,20723.89,423,141,142.71,142,20365,123573,861,0.83,0.48,0.18,5.15,-1.18,-5.33,28.92,-56.65,13.77,-2.71,-24.53,14.37,-4.86,Left Fall while Standing
38:39.3,457,588,882,952,423,1.42,705,2.07,20723.89,423,144,142.71,142,20365,144309,1005,0.83,0.49,0.18,2.68,-3.53,-5.66,29.51,-56.21,14.1,-3.27,-25.03,14.71,-5.38,Left Fall while Standing
38:39.4,493,584,876,952,423,1.42,705,2.07,20723.89,423,144,142.71,142,20365,165045,1149,0.85,0.51,0.17,0.99,-1.56,-4.36,30.04,-56.01,14.25,-3.62,-25.38,14.88,-5.72,Left Fall while Standing
38:39.5,522,582,873,952,423,1.42,705,2.07,20723.89,423,144,142.71,142,20365,185781,1293,0.81,0.51,0.18,-4.82,3.34,-2.95,30.73,-54.98,13.83,-3.49,-25.6,14.5,-5.55,Left Fall while Standing
38:39.6,558,581,871.5,952,423,1.42,705,2.07,20723.88,423,141,143.41,143,20565,0,0,0.82,0.5,0.21,-1.66,2.85,-2.1,30.16,-54.71,13.72,-3.4,-25.73,14.37,-5.46,Left Fall while Standing
38:39.7,569,581,871.5,952,423,1.42,705,2.07,20723.88,423,141,143.41,143,20565,19881,141,0.84,0.5,0.18,-2.99,2.2,-0.71,29.59,-56.06,13.47,-3.38,-25.72,14.12,-5.49,Left Fall while Standing
38:39.8,546,580,870,952,423,1.42,705,2.07,20723.88,423,140,143.41,143,20565,39481,281,0.83,0.52,0.18,-2.37,1.06,-2.6,30.99,-54.7,13.29,-3.48,-25.9,14,-5.53,Left Fall while Standing
38:39.9,574,580,870,952,423,1.42,705,2.07,20723.88,423,144,143.41,143,20565,60217,425,0.83,0.53,0.17,-2.02,0.82,0.09,31.22,-54.7,13.15,-3.6,-25.81,13.87,-5.64,Left Fall while Standing
38:40.0,636,581,871.5,952,424,1.41,707.85,2.07,20723.88,423,144,143.41,143,20565,80953,569,0.83,0.5,0.18,-4.51,-0.75,1.75,29.96,-55.72,12.75,-3.87,-25.56,13.44,-5.94,Left Fall while Standing
38:40.1,532,580,870,952,424,1.41,707.85,2.07,20723.88,423,144,143.41,143,20565,101689,713,0.83,0.5,0.2,-1.98,0.69,1.26,29.82,-55.35,12.61,-4,-25.36,13.3,-6.05,Left Fall while Standing
38:40.2,526,578,867,952,423,1.42,705,2.07,20723.88,423,144,143.41,143,20565,122425,857,0.83,0.5,0.17,-5.86,3.04,4.84,29.92,-56.09,12.08,-3.9,-24.79,12.79,-5.98,Left Fall while Standing
38:40.3,502,576,864,952,423,1.42,705,2.07,20723.88,423,144,143.41,143,20565,143161,1001,0.83,0.48,0.18,-6.65,0.85,7.04,28.73,-56.89,11.47,-4.01,-24.01,12.16,-6.13,Left Fall while Standing
38:40.4,526,575,862.5,952,423,1.42,705,2.07,20723.88,423,141,143.41,143,20565,163042,1142,0.85,0.47,0.2,-4.08,2.63,8.96,27.89,-57.27,11.11,-3.95,-23.03,11.79,-6.08,Left Fall while Standing
38:40.5,564,574,861,952,423,1.42,705,2.07,20723.88,423,140,143.41,143,20565,182642,1282,0.86,0.45,0.19,-8.14,-0.13,9.16,26.4,-58.97,10.36,-4.16,-22.04,11,-6.35,Left Fall while Standing
38:40.6,503,573,859.5,952,423,1.42,705,2.07,20723.88,423,144,142.61,142,20336,0,0,0.86,0.44,0.18,-13.98,3.69,14.52,25.9,-59.71,9.03,-3.99,-20.52,9.7,-6.22,Left Fall while Standing
38:40.7,576,573,859.5,952,424,1.41,707.85,2.07,20723.88,423,145,142.61,142,20336,21025,145,0.88,0.39,0.24,-12.11,3.08,15.5,22.33,-61.06,7.88,-3.89,-18.91,8.46,-6.17,Left Fall while Standing
38:40.8,485,571,856.5,952,423,1.42,705,2.07,20723.88,423,141,142.61,142,20336,40906,286,0.88,0.37,0.22,-6.02,-1.44,12.07,21.61,-62.39,7.33,-4.23,-17.61,7.9,-6.56,Left Fall while Standing
38:40.9,425,567,850.5,952,424,1.41,707.85,2.07,20723.88,423,141,142.61,142,20336,60787,427,0.91,0.34,0.21,-9.45,0.36,16.21,19.6,-64.59,6.45,-4.4,-15.93,6.98,-6.8,Left Fall while Standing
38:41.0,418,564,846,952,423,1.42,705,2.07,20723.88,423,141,142.61,142,20336,80668,568,0.89,0.32,0.21,-16.29,5.65,20.5,18.85,-65.17,4.88,-4.03,-13.8,5.44,-6.48,Left Fall while Standing
38:41.1,385,559,838.5,952,423,1.42,705,2.07,20723.88,423,144,142.61,142,20336,101404,712,0.92,0.26,0.29,-23.6,9.18,30.63,14.58,-65.63,2.58,-3.31,-10.66,3.06,-5.81,Left Fall while Standing
38:41.2,395,556,834,952,423,1.42,705,2.07,20723.88,423,144,142.61,142,20336,122140,856,0.94,0.19,0.23,-29.95,0.99,32.2,10.69,-70.51,-0.36,-3.41,-7.36,0.08,-6.1,Left Fall while Standing
38:41.3,309,550,825,952,423,1.42,705,2.07,20723.88,423,144,142.61,142,20336,142876,1000,0.95,0.14,0.26,-22.5,0.92,29.24,7.59,-71.03,-2.56,-3.52,-4.35,-2.15,-6.22,Left Fall while Standing
38:41.4,400,547,820.5,952,423,1.42,705,2.07,20723.88,423,144,142.61,142,20336,163612,1144,0.94,0.05,0.33,-16.86,-8.79,28.96,2.57,-68.84,-4.19,-4.6,-1.38,-3.92,-7.17,Left Fall while Standing
38:41.5,473,546,819,952,423,1.42,705,2.07,20723.88,423,143,142.61,142,20336,184061,1287,0.98,-0.01,0.29,-8.69,-11.73,20.28,-1.19,-72.1,-5,-5.97,0.73,-4.85,-8.62,Left Fall while Standing
38:41.6,346,542,813,952,423,1.42,705,2.07,20723.88,423,140,142.71,142,20365,0,0,0.98,-0.02,0.24,-2.95,2.68,9.24,-1.44,-74.34,-5.24,-5.91,1.72,-5.09,-8.64,Left Fall while Standing
38:41.7,370,538,807,952,423,1.42,705,2.07,20723.88,423,143,142.71,142,20365,20449,143,0.97,-0.03,0.25,-12.74,-4.68,15.48,-2.45,-74.11,-6.46,-6.57,3.35,-6.29,-9.28,Left Fall while Standing
38:41.8,408,536,804,952,423,1.42,705,2.07,20723.88,423,143,142.71,142,20365,40898,286,0.97,-0.1,0.25,-13.93,-4.09,11.23,-6.04,-72.99,-7.79,-7.18,4.55,-7.72,-9.82,Left Fall while Standing
38:41.9,421,533,799.5,952,423,1.42,705,2.07,20723.88,423,143,142.71,142,20365,61347,429,0.95,-0.08,0.21,-8.89,3.74,10.4,-5.52,-75.08,-8.62,-7.01,5.67,-8.5,-9.73,Left Fall while Standing
38:42.0,408,531,796.5,952,423,1.42,705,2.07,20723.88,423,143,142.71,142,20365,81796,572,0.93,-0.07,0.22,-12.19,-8.9,18.89,-4.96,-74.17,-9.79,-8.1,7.64,-9.59,-10.74,Left Fall while Standing
38:42.1,459,530,795,952,423,1.42,705,2.07,20723.88,423,143,142.71,142,20365,102245,715,0.97,-0.15,0.23,-13.78,-18.87,19.21,-9,-72.58,-11.12,-10.21,9.66,-11.04,-12.7,Left Fall while Standing
38:42.2,549,530,795,952,423,1.42,705,2.07,20723.88,423,143,142.71,142,20365,122694,858,1.01,-0.22,0.16,2.18,1.43,-3.54,-12.52,-73.36,-10.85,-10.26,9.38,-10.92,-12.79,Left Fall while Standing
38:42.3,594,531,796.5,952,423,1.42,705,2.07,20723.88,423,143,142.71,142,20365,143143,1001,0.99,-0.19,0.13,-6.25,5.69,0.66,-11.31,-75.48,-11.43,-9.89,9.53,-11.42,-12.51,Left Fall while Standing
38:42.4,551,531,796.5,952,423,1.42,705,2.07,20723.88,423,143,142.71,142,20365,163592,1144,1,-0.19,0.17,-8.47,3.24,0.88,-11.33,-73.89,-12.22,-9.76,9.7,-12.18,-12.33,Left Fall while Standing
38:42.5,577,532,798,952,423,1.42,705,2.07,20723.88,423,142,142.71,142,20365,183756,1286,0.99,-0.2,0.24,-0.88,12.5,-6.46,-11.75,-70.97,-12.25,-8.7,9.12,-12.23,-11.19,Left Fall while Standing
38:42.6,563,533,799.5,952,423,1.42,705,2.07,20723.88,423,139,142.5,142,20306,0,0,0.98,-0.18,0.19,1.3,15.57,-10.6,-10.65,-73.43,-12.07,-7.35,8.14,-12.01,-9.99,Left Fall while Standing
38:42.7,567,533,799.5,952,423,1.42,705,2.07,20723.88,423,139,142.5,142,20306,19321,139,0.96,-0.14,0.24,-7.11,-0.33,-4.04,-8.78,-72.02,-12.72,-7.58,7.82,-12.56,-10.16,Left Fall while Standing
38:42.8,593,534,801,952,423,1.42,705,2.07,20723.88,423,143,142.5,142,20306,39770,282,0.96,-0.15,0.25,-4.1,-3.33,-2.81,-9.34,-71.63,-13.08,-8.12,7.62,-12.93,-10.66,Left Fall while Standing
38:42.9,609,535,802.5,952,423,1.42,705,2.07,20723.88,423,139,142.5,142,20306,59091,421,0.96,-0.14,0.25,-0.1,0.98,-0.75,-8.39,-71.94,-13.03,-8.22,7.62,-12.85,-10.77,Left Fall while Standing
38:43.0,662,537,805.5,952,423,1.42,705,2.07,20723.88,423,139,142.5,142,20306,78412,560,0.96,-0.17,0.24,0.35,-1.72,0.89,-10.15,-71.26,-12.94,-8.59,7.79,-12.83,-11.1,Left Fall while Standing
38:43.1,551,538,807,952,422,1.42,702.16,2.06,20723.88,423,142,142.5,142,20306,98576,702,0.97,-0.18,0.23,-1.44,-4.96,-2.78,-10.87,-71.66,-13.03,-9.29,7.59,-12.94,-11.79,Left Fall while Standing
38:43.2,562,538,807,952,423,1.42,705,2.07,20723.88,423,142,142.5,142,20306,118740,844,0.99,-0.17,0.2,0,-0.09,-1.47,-9.92,-73.64,-12.97,-9.5,7.52,-12.85,-12.07,Left Fall while Standing
38:43.3,576,539,808.5,952,423,1.42,705,2.07,20723.88,423,139,142.5,142,20306,138061,983,0.97,-0.14,0.2,0.53,4.39,-1.53,-8.8,-74.02,-12.87,-9.26,7.44,-12.7,-11.85,Left Fall while Standing
38:51.7,625,625,937.5,625,423,1.42,705,2.07,0,0,136,0,0,0,37540,274,0.96,-0.12,0.25,-0.81,-6.34,-5.44,-7.38,-72.08,0.23,-0.78,-0.62,-0.07,-3.64,Right Fall while Standing
38:51.8,607,616,924,625,423,1.42,705,2.07,0,0,136,0,0,0,56036,410,0.97,-0.11,0.28,-1.27,-0.67,-6.31,-6.91,-71.39,0.16,-1.04,-1.16,-0.12,-3.86,Right Fall while Standing
38:51.9,645,625,937.5,645,423,1.42,705,2.07,0,0,136,0,0,0,74532,546,0.94,-0.12,0.28,0.74,2.41,-4.55,-7.5,-70.63,0.29,-1,-1.52,-0.02,-3.79,Right Fall while Standing
38:52.0,541,604,906,645,423,1.42,705,2.07,0,0,135,0,0,0,92757,681,0.95,-0.09,0.24,-0.53,3.49,-5.6,-5.8,-73.34,0.29,-0.86,-1.99,0.05,-3.76,Right Fall while Standing
38:52.1,556,594,891,645,423,1.42,705,2.07,0,0,136,0,0,0,111253,817,0.96,-0.08,0.24,-2.82,-3.89,-1.48,-5.16,-73.68,0.07,-1.44,-2.06,-0.14,-4.33,Right Fall while Standing
38:52.2,530,584,876,645,423,1.42,705,2.07,0,0,136,0,0,0,129749,953,0.94,-0.11,0.24,-0.82,-3.32,5.63,-6.77,-72.73,0.05,-1.95,-1.44,-0.23,-4.78,Right Fall while Standing
38:52.3,459,566,849,645,423,1.42,705,2.07,0,0,136,0,0,0,148245,1089,0.99,-0.16,0.27,-4.6,3.06,6.63,-9.51,-70.9,-0.35,-1.85,-0.71,-0.71,-4.61,Right Fall while Standing
38:52.4,543,563,844.5,645,423,1.42,705,2.07,0,0,136,0,0,0,166741,1225,0.98,-0.15,0.23,-3.18,5.36,5.05,-8.82,-72.81,-0.6,-1.52,-0.14,-0.93,-4.37,Right Fall while Standing
38:52.5,387,543,814.5,645,423,1.42,705,2.07,20723.88,423,135,136,136,18495,0,0,0.96,-0.13,0.27,-11.31,1.54,11.39,-7.98,-71.28,-1.67,-1.56,1.07,-1.92,-4.35,Right Fall while Standing
38:52.6,448,534,801,645,423,1.42,705,2.07,20723.88,423,135,136,136,18495,18225,135,0.88,-0.18,0.26,-2.51,10.63,21.07,-11.91,-68.37,-1.86,-0.71,3.23,-2.26,-3.42,Right Fall while Standing
38:52.7,404,522,783,645,423,1.42,705,2.07,20723.88,423,138,136,136,18495,37269,273,0.89,-0.23,0.25,-18.15,12.47,38.33,-14.34,-67.6,-3.64,0.35,7.18,-4.07,-2.37,Right Fall while Standing
38:52.8,410,512,768,645,423,1.42,705,2.07,20723.88,423,138,136,136,18495,56313,411,0.9,-0.27,0.32,-9.22,-0.15,28.83,-16.35,-63.28,-4.5,0.13,10.15,-4.98,-2.4,Right Fall while Standing
38:52.9,446,507,760.5,645,423,1.42,705,2.07,20723.88,423,135,136,136,18495,74538,546,0.91,-0.33,0.27,-4.45,1.47,23.68,-19.78,-63.41,-4.89,0.08,12.59,-5.49,-2.46,Right Fall while Standing
38:53.0,473,505,757.5,645,423,1.42,705,2.07,20723.88,423,135,136,136,18495,92763,681,0.89,-0.36,0.29,-1.74,4.34,26.11,-21.9,-60.77,-5.01,0.31,15.28,-5.69,-2.13,Right Fall while Standing
38:53.1,464,502,753,645,423,1.42,705,2.07,20723.88,423,135,136,136,18495,110988,816,0.88,-0.43,0.27,-6.82,-3.6,16.47,-25.38,-58.48,-5.64,-0.25,17.01,-6.43,-2.58,Right Fall while Standing
38:53.2,456,499,748.5,645,423,1.42,705,2.07,20723.88,423,138,136,136,18495,130032,954,0.88,-0.45,0.27,-3.48,-5.85,10.41,-26.67,-57.7,-5.93,-1.03,18.13,-6.76,-3.3,Right Fall while Standing
38:53.3,495,499,748.5,645,423,1.42,705,2.07,20723.88,423,135,136,136,18495,148257,1089,0.87,-0.46,0.25,-8.15,-4.32,8.91,-27.35,-57.59,-6.7,-1.67,19.11,-7.52,-3.91,Right Fall while Standing
38:53.4,509,499,748.5,645,423,1.42,705,2.07,20723.88,423,135,136,136,18495,166482,1224,0.87,-0.47,0.24,-5.81,-5.47,6.6,-27.87,-57.49,-7.23,-2.42,19.86,-8.05,-4.63,Right Fall while Standing
38:53.5,477,498,747,645,423,1.42,705,2.07,20723.88,423,135,135.9,135,18469,0,0,0.85,-0.47,0.23,-5.05,-7.66,7.95,-28.84,-56.73,-7.67,-3.37,20.71,-8.51,-5.51,Right Fall while Standing
38:53.6,493,498,747,645,423,1.42,705,2.07,20723.88,423,138,135.9,135,18469,19044,138,0.87,-0.49,0.21,-3.54,-8.85,8.27,-29.47,-56.74,-7.97,-4.47,21.63,-8.83,-6.56,Right Fall while Standing
38:53.7,501,498,747,645,423,1.42,705,2.07,20723.88,423,135,135.9,135,18469,37269,273,0.85,-0.52,0.21,-3.24,-5.92,3.57,-31.1,-55.12,-8.24,-5.26,22.06,-9.15,-7.25,Right Fall while Standing
38:53.8,537,500,750,645,423,1.42,705,2.07,20723.88,423,135,135.9,135,18469,55494,408,0.83,-0.51,0.19,-3.24,-5.17,1.99,-31.65,-55.14,-8.51,-5.98,22.34,-9.43,-7.94,Right Fall while Standing
38:53.9,547,502,753,645,423,1.42,705,2.07,20723.88,423,135,135.9,135,18469,73719,543,0.86,-0.52,0.19,-3.98,-4.6,1.27,-31.44,-55.46,-8.85,-6.63,22.55,-9.75,-8.59,Right Fall while Standing
38:54.0,551,504,756,645,423,1.42,705,2.07,20723.88,423,134,135.9,135,18469,91675,677,0.85,-0.54,0.16,-3.4,-2.08,0.9,-32.45,-54.93,-9.13,-7.04,22.72,-10.06,-8.96,Right Fall while Standing
38:54.1,606,508,762,645,423,1.42,705,2.07,20723.88,423,135,135.9,135,18469,109900,812,0.83,-0.52,0.16,-2.08,-4.05,0.27,-32.28,-55.19,-9.28,-7.65,22.82,-10.2,-9.55,Right Fall while Standing
38:54.2,488,507,760.5,645,423,1.42,705,2.07,20723.88,423,135,135.9,135,18469,128125,947,0.85,-0.53,0.15,-4.31,-1.42,3.31,-32.22,-55.38,-9.66,-7.99,23.24,-10.56,-9.89,Right Fall while Standing
38:54.3,503,507,760.5,645,423,1.42,705,2.07,20723.88,423,135,135.9,135,18469,146350,1082,0.85,-0.55,0.15,-3.93,-2.85,6.2,-32.86,-54.82,-10,-8.48,23.94,-10.92,-10.34,Right Fall while Standing
38:54.4,495,507,760.5,645,423,1.42,705,2.07,20723.88,423,137,135.9,135,18469,165119,1219,0.85,-0.56,0.14,-4.01,-5.31,7.58,-33.35,-54.54,-10.35,-9.21,24.78,-11.27,-11.03,Right Fall while Standing
38:54.5,511,507,760.5,645,423,1.42,705,2.07,20723.88,423,135,135.4,135,18333,0,0,0.84,-0.57,0.14,-4.5,-2.05,4.32,-34.31,-53.49,-10.75,-9.62,25.3,-11.69,-11.38,Right Fall while Standing
38:54.6,488,506,759,645,423,1.42,705,2.07,20723.88,423,135,135.4,135,18333,18225,135,0.83,-0.57,0.12,-2.07,-1.08,3.6,-34.62,-53.49,-10.9,-9.93,25.73,-11.85,-11.68,Right Fall while Standing
38:54.7,502,506,759,645,423,1.42,705,2.07,20723.88,423,135,135.4,135,18333,36450,270,0.83,-0.58,0.11,-1.91,-2.41,5.27,-35.16,-53.09,-11.03,-10.38,26.35,-12,-12.09,Right Fall while Standing
38:54.8,593,509,763.5,645,423,1.42,705,2.07,20723.88,423,135,135.4,135,18333,54675,405,0.83,-0.59,0.1,-2.65,-2.34,4.15,-36,-52.4,-11.24,-10.82,26.85,-12.23,-12.48,Right Fall while Standing
38:54.9,571,510,765,645,423,1.42,705,2.07,20723.88,423,135,135.4,135,18333,72900,540,0.82,-0.6,0.1,-3.89,-1.08,3.08,-36.74,-51.69,-11.58,-11.12,27.23,-12.58,-12.75,Right Fall while Standing
38:55.0,554,512,768,645,423,1.42,705,2.07,20723.88,423,139,135.4,135,18333,92221,679,0.82,-0.61,0.11,-2.1,-2.08,1.67,-37,-51.32,-11.73,-11.54,27.49,-12.74,-13.13,Right Fall while Standing
38:55.1,555,513,769.5,645,423,1.42,705,2.07,20723.88,423,139,135.4,135,18333,111542,818,0.82,-0.62,0.08,-0.92,-2.15,1.92,-37.54,-51.14,-11.77,-11.96,27.76,-12.8,-13.52,Right Fall while Standing
38:55.2,558,514,771,645,423,1.42,705,2.07,20723.88,423,139,135.4,135,18333,130863,957,0.81,-0.61,0.1,-2.09,-1.32,-0.14,-37.34,-51.1,-11.92,-12.29,27.82,-12.94,-13.84,Right Fall while Standing
38:55.3,565,516,774,645,423,1.42,705,2.07,20723.88,423,139,135.4,135,18333,150184,1096,0.81,-0.62,0.09,-2.1,-1.58,0.18,-37.6,-50.96,-12.08,-12.66,27.92,-13.1,-14.19,Right Fall while Standing
38:55.4,825,524,786,825,423,1.42,705,2.07,20723.88,423,135,135.4,135,18333,168409,1231,0.81,-0.61,0.09,-1.04,-0.12,-0.4,-37.44,-51.14,-12.13,-12.87,27.96,-13.14,-14.4,Right Fall while Standing
38:55.5,537,524,786,825,423,1.42,705,2.07,20723.88,423,138,136.91,136,18744,0,0,0.81,-0.61,0.08,-2.56,-1.24,-0.13,-37.35,-51.26,-12.33,-13.19,28.03,-13.33,-14.72,Right Fall while Standing
38:55.6,596,526,789,825,423,1.42,705,2.07,20723.88,423,135,136.91,136,18744,18225,135,0.83,-0.61,0.07,-3.21,-2.16,-0.61,-36.99,-51.72,-12.6,-13.62,28.04,-13.57,-15.14,Right Fall while Standing
38:55.7,489,525,787.5,825,423,1.42,705,2.07,20723.88,423,134,136.91,136,18744,36181,269,0.8,-0.61,0.07,-4.93,-0.46,-1.5,-37.99,-50.71,-13.04,-13.86,27.97,-14.03,-15.34,Right Fall while Standing
38:55.8,495,524,786,825,423,1.42,705,2.07,20723.88,423,138,136.91,136,18744,55225,407,0.81,-0.63,0.1,-2.57,1.83,-1.52,-37.98,-50.41,-13.24,-13.88,27.9,-14.23,-15.34,Right Fall while Standing
38:55.9,489,523,784.5,825,423,1.42,705,2.07,20723.88,423,138,136.91,136,18744,74269,545,0.82,-0.62,0.08,0.14,2.55,-1.25,-37.61,-50.99,-13.17,-13.83,27.85,-14.15,-15.31,Right Fall while Standing
38:56.0,482,522,783,825,423,1.42,705,2.07,20723.88,423,138,136.91,136,18744,93313,683,0.83,-0.62,0.07,0.71,3.58,-5.32,-37.2,-51.52,-13.04,-13.67,27.39,-14.01,-15.18,Right Fall while Standing
38:56.1,488,522,783,825,423,1.42,705,2.07,20723.88,423,138,136.91,136,18744,112357,821,0.85,-0.62,0.09,-1.91,1.05,-13.73,-36.66,-51.89,-13.18,-13.76,26.09,-14.12,-15.29,Right Fall while Standing
38:56.2,472,521,781.5,825,423,1.42,705,2.07,20723.88,423,138,136.91,136,18744,131401,959,0.83,-0.59,0.1,1.63,5.62,-26.03,-35.71,-52.69,-12.96,-13.4,23.54,-13.87,-14.97,Right Fall while Standing
38:56.3,525,521,781.5,825,423,1.42,705,2.07,20723.88,423,139,136.91,136,18744,150722,1098,0.82,-0.53,0.1,-0.85,6.72,-21.21,-33.43,-54.9,-12.99,-12.92,21.48,-13.8,-14.6,Right Fall while Standing
38:56.4,612,522,783,825,423,1.42,705,2.07,20723.88,423,135,136.91,136,18744,168947,1233,0.87,-0.52,0.1,-4.79,0.44,-15.22,-31.3,-57.1,-13.42,-13.08,20,-14.13,-14.84,Right Fall while Standing
38:56.5,546,523,784.5,825,423,1.42,705,2.07,20723.88,423,135,136.81,136,18716,0,0,0.92,-0.51,0.08,-6.34,-2.96,-18.36,-29.46,-59.19,-13.99,-13.57,18.27,-14.61,-15.4,Right Fall while Standing
38:56.6,553,524,786,825,423,1.42,705,2.07,20723.88,423,139,136.81,136,18716,19321,139,0.91,-0.47,0.11,0.63,3.24,-22.44,-27.78,-60.45,-13.87,-13.45,16.08,-14.43,-15.33,Right Fall while Standing
38:56.7,563,524,786,825,422,1.42,702.16,2.06,20723.88,423,139,136.81,136,18716,38642,278,0.94,-0.44,0.1,-3.56,6.21,-26.15,-25.85,-62.43,-14.17,-13.02,13.52,-14.64,-15,Right Fall while Standing
38:56.8,569,525,787.5,825,422,1.42,702.16,2.06,20723.88,423,137,136.81,136,18716,57411,415,0.96,-0.4,0.1,-6.3,4.77,-28.56,-22.94,-65.36,-14.75,-12.74,10.71,-15.08,-14.85,Right Fall while Standing
38:56.9,518,525,787.5,825,423,1.42,705,2.07,20723.88,423,139,136.81,136,18716,76732,554,0.95,-0.34,0.13,-3.21,5.34,-26.4,-20.33,-67.29,-15.02,-12.4,8.1,-15.24,-14.6,Right Fall while Standing
38:57.0,476,524,786,825,422,1.42,702.16,2.06,20723.88,423,139,136.81,136,18716,96053,693,0.96,-0.33,0.12,-1.93,5.98,-25.72,-19.09,-68.66,-15.16,-12,5.61,-15.32,-14.27,Right Fall while Standing
38:57.1,463,523,784.5,825,423,1.42,705,2.07,20723.88,423,139,136.81,136,18716,115374,832,0.99,-0.26,0.13,-0.37,5.01,-20.31,-15.26,-71.99,-15.14,-11.7,3.64,-15.15,-14.11,Right Fall while Standing
38:57.2,368,520,780,825,423,1.42,705,2.07,20723.88,423,135,136.81,136,18716,133599,967,0.98,-0.21,0.12,-2,2.2,-18.94,-12.87,-74.39,-15.29,-11.68,1.8,-15.19,-14.19,Right Fall while Standing
38:57.3,335,517,775.5,825,422,1.42,702.16,2.06,20723.88,423,139,136.81,136,18716,152920,1106,0.94,-0.18,0.12,-4.85,3.21,-18.59,-11.44,-75.3,-15.72,-11.56,0,-15.55,-14.11,Right Fall while Standing
38:57.4,330,514,771,825,422,1.42,702.16,2.06,20723.88,423,139,136.81,136,18716,172241,1245,0.92,-0.16,0.15,-4.11,4.02,-10.36,-10.34,-75.14,-16.08,-11.35,-0.96,-15.85,-13.9,Right Fall while Standing
38:57.5,336,511,766.5,825,423,1.42,705,2.07,20723.87,422,135,138.01,138,19045,0,0,0.98,-0.14,0.13,-7.33,-0.76,-5.32,-8.45,-77.56,-16.76,-11.63,-1.41,-16.42,-14.27,Right Fall while Standing
38:57.6,494,510,765,825,423,1.42,705,2.07,20723.87,422,135,138.01,138,19045,18225,135,1.04,-0.15,0.15,2.77,6.44,-15.83,-8.76,-76.85,-16.42,-11.18,-2.93,-16.11,-13.81,Right Fall while Standing
38:57.7,362,508,762,825,423,1.42,705,2.07,20723.87,422,135,138.01,138,19045,36450,270,0.99,-0.12,0.16,-5.09,16.68,-13.66,-7.56,-76.73,-16.87,-9.71,-4.22,-16.5,-12.39,Right Fall while Standing
38:57.8,419,507,760.5,825,423,1.42,705,2.07,20723.87,422,135,138.01,138,19045,54675,405,0.99,-0.11,0.15,-15.8,-10.53,-11.8,-6.94,-77.94,-18.43,-10.99,-5.34,-17.97,-13.67,Right Fall while Standing
38:57.9,327,504,756,825,422,1.42,702.16,2.06,20723.87,422,135,138.01,138,19045,72900,540,1.01,-0.13,0.2,-15.38,-14.84,-3.76,-8.03,-75.06,-19.92,-12.69,-5.64,-19.45,-15.19,Right Fall while Standing
38:58.0,370,502,753,825,423,1.42,705,2.07,20723.87,422,135,138.01,138,19045,91125,675,0.98,-0.09,0.1,7.07,-5.64,-7.11,-5.63,-80.5,-19.15,-13.46,-6.28,-18.61,-16.15,Right Fall while Standing
38:58.1,430,500,750,825,423,1.42,705,2.07,20723.87,422,139,138.01,138,19045,110446,814,0.95,-0.04,0.05,-3.97,-1.41,-0.92,-3.23,-84.58,-19.5,-13.81,-6.3,-18.85,-16.64,Right Fall while Standing
38:58.2,525,501,751.5,825,423,1.42,705,2.07,20723.87,422,137,138.01,138,19045,129215,951,0.94,-0.07,0.06,3.48,18,4.16,-4.81,-82.94,-19.09,-12.21,-5.8,-18.52,-15.04,Right Fall while Standing
38:58.3,988,508,762,988,423,1.42,705,2.07,20723.87,422,141,138.01,138,19045,149096,1092,0.96,-0.11,0.08,-5.05,8.22,11.5,-6.97,-80.41,-19.55,-11.57,-4.55,-19.05,-14.33,Right Fall while Standing
38:58.4,706,511,766.5,988,423,1.42,705,2.07,20723.87,422,143,138.01,138,19045,169545,1235,1.02,-0.14,0.14,-3.68,-0.86,9.68,-8.4,-77.31,-19.86,-11.86,-3.5,-19.41,-14.48,Right Fall while Standing
38:58.5,785,515,772.5,988,423,1.42,705,2.07,20723.88,422,147,138.26,138,19114,0,0,1.02,-0.17,0.15,-2.76,-4.82,8.27,-10.2,-75.81,-20.08,-12.54,-2.59,-19.69,-15.07,Right Fall while Standing
38:58.6,672,517,775.5,988,423,1.42,705,2.07,20723.88,422,148,138.26,138,19114,21904,148,1.05,-0.18,0.17,1.27,3.75,1.58,-10.31,-75.15,-19.9,-12.37,-2.35,-19.52,-14.88,Right Fall while Standing
38:58.7,650,519,778.5,988,423,1.42,705,2.07,20723.88,422,145,138.26,138,19114,42929,293,1.02,-0.17,0.14,5.28,6.95,-3.87,-9.71,-76.34,-19.31,-11.87,-2.66,-18.93,-14.45,Right Fall while Standing
38:58.8,629,521,781.5,988,423,1.42,705,2.07,20723.88,422,149,138.26,138,19114,65130,442,0.98,-0.15,0.13,-0.84,-2.13,-2.79,-9.2,-77.12,-19.34,-12.28,-2.86,-18.94,-14.88,Right Fall while Standing
38:58.9,579,521,781.5,988,423,1.42,705,2.07,20723.88,422,149,138.26,138,19114,87331,591,0.97,-0.15,0.14,3.76,6.63,-2.82,-9.19,-76.65,-18.9,-11.81,-3.07,-18.51,-14.4,Right Fall while Standing
38:59.0,475,521,781.5,988,423,1.42,705,2.07,20723.88,422,148,138.26,138,19114,109235,739,0.97,-0.13,0.15,0.5,1.16,2.85,-8.41,-76.77,-18.8,-11.9,-2.7,-18.38,-14.49,Right Fall while Standing
38:59.1,553,521,781.5,988,423,1.42,705,2.07,20723.88,422,150,138.26,138,19114,131735,889,0.99,-0.16,0.14,0.02,-3.63,3.06,-9.76,-76.34,-18.74,-12.46,-2.31,-18.38,-15.02,Right Fall while Standing
38:59.2,613,522,783,988,423,1.42,705,2.07,20723.88,422,149,138.26,138,19114,153936,1038,1.01,-0.15,0.14,1.53,0.45,0.86,-8.88,-76.94,-18.53,-12.62,-2.15,-18.14,-15.19,Right Fall while Standing
38:59.3,493,522,783,988,423,1.42,705,2.07,20723.88,422,146,138.26,138,19114,175252,1184,1,-0.15,0.16,-1.18,2.6,-3.34,-9.09,-76.18,-18.59,-12.56,-2.4,-18.21,-15.11,Right Fall while Standing
38:59.4,523,522,783,988,423,1.42,705,2.07,20723.88,422,150,138.26,138,19114,197752,1334,0.99,-0.15,0.15,2.24,3.86,-2.11,-9.31,-76.25,-18.3,-12.37,-2.54,-17.94,-14.93,Right Fall while Standing
39:02.3,525,525,787.5,525,423,1.42,705,2.07,0,0,146,0,0,0,43220,294,0.99,-0.09,0.14,-0.7,3.54,-3.82,-5.85,-78.78,-0.5,-0.17,-0.83,-0.71,-3.31,Forward Fall while Standing
39:02.4,567,546,819,567,423,1.42,705,2.07,0,0,147,0,0,0,64829,441,0.98,-0.1,0.14,-4.6,-0.51,-0.1,-6.62,-78.47,-0.89,-0.41,-0.77,-1.12,-3.53,Forward Fall while Standing
39:02.5,516,536,804,567,423,1.42,705,2.07,0,0,148,0,0,0,86733,589,0.98,-0.09,0.15,-9.24,-7.26,-1.46,-6.03,-77.97,-1.74,-1.32,-0.83,-1.91,-4.39,Forward Fall while Standing
39:02.6,443,512,768,567,423,1.42,705,2.07,0,0,148,0,0,0,108637,737,0.95,-0.11,0.12,-8.97,-30.73,2.39,-7.35,-78.56,-2.56,-4.49,-0.52,-2.75,-7.46,Forward Fall while Standing
39:02.7,630,536,804,630,423,1.42,705,2.07,0,0,148,0,0,0,130541,885,1.01,-0.13,0.11,-0.6,-23.94,6.45,-7.62,-79.11,-2.56,-7.06,0.19,-2.76,-9.94,Forward Fall while Standing
39:02.8,465,524,786,630,423,1.42,705,2.07,0,0,143,0,0,0,150990,1028,0.96,-0.11,0.06,3.95,-12.11,2.48,-7.26,-80.8,-2.12,-8.43,0.51,-2.33,-11.33,Forward Fall while Standing
39:02.9,397,506,759,630,423,1.42,705,2.07,0,0,139,0,0,0,170311,1167,1,-0.14,0.02,-2.02,-15.35,2.11,-8.37,-80.57,-2.27,-10.13,0.8,-2.51,-12.95,Forward Fall while Standing
39:03.0,474,502,753,630,423,1.42,705,2.07,0,0,136,0,0,0,188807,1303,1,-0.14,-0.04,-2.53,-18.92,1.6,-8.6,-80.09,-2.46,-12.2,1.03,-2.71,-14.92,Forward Fall while Standing
39:03.1,514,503,754.5,630,423,1.42,705,2.07,20723.88,423,136,143.98,143,20729,0,0,1.05,-0.13,-0.08,-6.55,-34.5,0.63,-7.54,-80.33,-3.05,-15.82,1.17,-3.23,-18.4,Forward Fall while Standing
39:03.2,501,503,754.5,630,423,1.42,705,2.07,20723.88,423,134,143.98,143,20729,17956,134,0.96,-0.14,-0.11,-3.15,-39.34,4.48,-8.63,-78.1,-3.31,-19.95,1.7,-3.53,-22.28,Forward Fall while Standing
39:03.3,535,506,759,630,423,1.42,705,2.07,20723.88,423,137,143.98,143,20729,36725,271,0.61,-0.21,0.1,-0.53,-29.79,12.49,-19.26,-67.48,-3.31,-23.16,3.04,-3.95,-24.93,Forward Fall while Standing
39:03.4,726,524,786,726,423,1.42,705,2.07,20723.88,423,147,143.98,143,20729,58334,418,0.92,-0.19,-0.14,-0.18,-22.6,8.04,-12.12,-74,-3.27,-25.65,3.93,-3.63,-27.58,Forward Fall while Standing
39:03.5,1000,561,841.5,1000,423,1.42,705,2.07,20723.88,423,166,143.98,143,20729,85890,584,0.99,-0.2,-0.28,-8.08,-25.17,7.02,-11.57,-69.39,-4.02,-28.36,4.71,-4.33,-30,Forward Fall while Standing
39:03.6,1001,592,888,1001,424,1.41,707.85,2.07,20723.88,423,183,143.98,143,20729,53843,767,0.99,-0.2,-0.33,0.31,-21.6,5.63,-11.4,-67.01,-3.93,-30.77,5.37,-4.23,-32.22,Forward Fall while Standing
39:03.7,1001,619,928.5,1001,423,1.42,705,2.07,20723.88,423,191,143.98,143,20729,24788,958,0.95,-0.22,-0.36,-1.92,-23.66,7.6,-12.9,-64.48,-4.07,-33.34,6.21,-4.42,-34.58,Forward Fall while Standing
39:03.8,1001,643,964.5,1001,423,1.42,705,2.07,20723.88,423,196,143.98,143,20729,4294964964,1154,0.91,-0.27,-0.39,1.4,-32.82,6.08,-15.65,-60.93,-3.87,-36.92,6.92,-4.34,-37.88,Forward Fall while Standing
39:03.9,1001,664,996,1001,423,1.42,705,2.07,20723.88,423,180,143.98,143,20729,30068,1334,0.98,-0.27,-0.48,1.22,-27.54,8.65,-14.62,-58.75,-3.69,-39.91,7.87,-4.13,-40.66,Forward Fall while Standing
39:04.0,1001,683,1024.5,1001,424,1.41,707.85,2.07,20723.88,423,189,143.98,143,20729,253,1523,0.92,-0.28,-0.48,-2.24,-27.09,7.78,-15.67,-57.25,-3.86,-42.82,8.73,-4.33,-43.39,Forward Fall while Standing
39:04.1,1001,699,1048.5,1001,424,1.41,707.85,2.07,20723.88,423,184,20724.23,170,429493600,0,0,0.87,-0.28,-0.55,-6.46,-27.55,3.2,-15.63,-53.15,-4.46,-45.83,9.13,-4.91,-46.12,Forward Fall while Standing
39:04.2,709,700,1050,1001,423,1.42,705,2.07,20723.88,423,175,20724.23,170,429493600,30625,175,0.82,-0.3,-0.57,-5.87,-32.84,3.31,-17.07,-50.34,-4.99,-49.35,9.55,-5.48,-49.39,Forward Fall while Standing
39:04.3,185,675,1012.5,1001,423,1.42,705,2.07,20723.88,423,163,20724.23,170,429493600,57194,338,0.76,-0.3,-0.58,-5.34,-32.2,5.9,-17.97,-47.72,-5.48,-52.84,10.23,-5.98,-52.63,Forward Fall while Standing
39:04.4,0,645,967.5,1001,423,1.42,705,2.07,20723.88,423,162,20724.23,170,429493600,83438,500,0.76,-0.29,-0.62,-1.34,-26.21,9.09,-16.8,-46.54,-5.56,-55.71,11.24,-6.01,-55.35,Forward Fall while Standing
39:04.5,0,617,925.5,1001,423,1.42,705,2.07,20723.88,423,162,20724.23,170,429493600,109682,662,0.8,-0.3,-0.7,2.24,-9.47,4.11,-16.57,-45.02,-5.28,-56.88,11.74,-5.73,-56.41,Forward Fall while Standing
39:04.6,0,591,886.5,1001,423,1.42,705,2.07,20723.88,423,161,20724.23,170,429493600,135603,823,0.8,-0.31,-0.75,-5.25,-19.88,4.25,-16.19,-42.92,-5.75,-59.12,12.25,-6.17,-58.47,Forward Fall while Standing
39:04.7,0,567,850.5,1001,423,1.42,705,2.07,20723.88,423,160,20724.23,170,429493600,161203,983,0.74,-0.29,-0.72,-6.98,-9.24,-5.27,-16.17,-41.8,-6.4,-60.25,11.8,-6.79,-59.51,Forward Fall while Standing
39:04.8,0,545,817.5,1001,423,1.42,705,2.07,20723.88,423,159,20724.23,170,429493600,186484,1142,0.78,-0.32,-0.73,-2.69,-10.34,0.72,-17.34,-42.59,-6.62,-61.51,11.95,-7.05,-60.75,Forward Fall while Standing
39:04.9,73,528,792,1001,423,1.42,705,2.07,20723.88,423,165,20724.23,170,429493600,213709,1307,0.71,-0.25,-0.72,-13.21,-9.88,-3.22,-14.67,-41.12,-7.92,-62.73,11.7,-8.19,-61.87,Forward Fall while Standing
39:05.0,225,517,775.5,1001,423,1.42,705,2.07,20723.88,423,166,20724.23,170,429493600,241265,1473,0.7,-0.26,-0.83,-3.94,-13.66,-4.82,-14.29,-37.27,-8.27,-64.33,11.29,-8.51,-63.25,Forward Fall while Standing
39:05.1,386,513,769.5,1001,423,1.42,705,2.07,20723.88,423,168,164.16,164,26947,0,0,0.65,-0.24,-0.81,-6.99,-10.86,-3.46,-13.63,-36.27,-8.9,-65.6,11.03,-9.09,-64.43,Forward Fall while Standing
39:05.2,397,509,763.5,1001,423,1.42,705,2.07,20723.88,423,173,164.16,164,26947,29929,173,0.65,-0.23,-0.8,-6.76,-12.73,1.71,-13.05,-36.41,-9.54,-67.11,11.28,-9.68,-65.88,Forward Fall while Standing
39:05.3,408,505,757.5,1001,423,1.42,705,2.07,20723.88,423,172,164.16,164,26947,59513,345,0.64,-0.23,-0.86,-5.71,-16.4,0.38,-12.59,-34.06,-10.06,-68.96,11.4,-10.16,-67.57,Forward Fall while Standing
39:05.4,393,502,753,1001,423,1.42,705,2.07,20723.88,423,173,164.16,164,26947,89442,518,0.63,-0.23,-0.88,-7.08,-15.79,-3.09,-12.66,-32.99,-10.72,-70.78,11.17,-10.8,-69.27,Forward Fall while Standing
39:05.5,356,497,745.5,1001,423,1.42,705,2.07,20723.88,423,171,164.16,164,26947,118683,689,0.61,-0.22,-0.94,-9.88,-10.62,-3.66,-11.61,-30.82,-11.66,-72.05,10.88,-11.66,-70.4,Forward Fall while Standing
39:05.6,309,492,738,1001,422,1.42,702.16,2.06,20723.88,423,168,164.16,164,26947,146907,857,0.61,-0.21,-0.86,-0.24,5.12,-3.24,-12.06,-32.98,-11.63,-71.74,10.63,-11.65,-70.19,Forward Fall while Standing
39:05.7,320,487,730.5,1001,423,1.42,705,2.07,20723.88,423,166,164.16,164,26947,174463,1023,0.64,-0.24,-0.87,9.56,22.65,-4.05,-13.29,-33.95,-10.6,-69.63,10.3,-10.71,-68.21,Forward Fall while Standing
39:05.8,250,480,720,1001,423,1.42,705,2.07,20723.88,423,166,164.16,164,26947,202019,1189,0.67,-0.23,-0.91,9.42,38.41,-5.07,-12.28,-33.99,-9.58,-65.92,9.86,-9.69,-64.64,Forward Fall while Standing
39:05.9,294,475,712.5,1001,423,1.42,705,2.07,20723.88,423,166,164.16,164,26947,229575,1355,0.72,-0.23,-0.81,-9.4,30.89,-11.06,-12.86,-38.9,-10.46,-63.03,8.83,-10.56,-62.07,Forward Fall while Standing
39:06.0,145,467,700.5,1001,423,1.42,705,2.07,20723.88,423,167,164.16,164,26947,257464,1522,0.71,-0.22,-0.74,0.83,31.21,-12.05,-12.6,-40.91,-10.32,-60.05,7.68,-10.41,-59.28,Forward Fall while Standing
39:06.1,148,458,687,1001,423,1.42,705,2.07,20723.88,422,166,168.83,168,28501,0,0,0.78,-0.19,-0.72,3.4,36.77,-10.31,-10.76,-44.67,-9.93,-56.57,6.73,-9.96,-56.1,Forward Fall while Standing
39:06.2,173,451,676.5,1001,423,1.42,705,2.07,20723.88,422,166,168.83,168,28501,27556,166,0.81,-0.2,-0.66,-2.41,33.59,-7.53,-11.2,-48.13,-10.11,-53.35,6.04,-10.16,-53.14,Forward Fall while Standing
39:06.3,194,445,667.5,1001,423,1.42,705,2.07,20723.88,422,167,168.83,168,28501,55445,333,0.85,-0.17,-0.6,-1.05,28.6,-7.99,-10.16,-52.17,-10.16,-50.66,5.32,-10.16,-50.72,Forward Fall while Standing
39:06.4,213,439,658.5,1001,423,1.42,705,2.07,20723.88,422,168,168.83,168,28501,83669,501,0.87,-0.17,-0.59,-2.08,29.68,-4.33,-9.75,-53.3,-10.32,-47.9,4.96,-10.29,-48.11,Forward Fall while Standing
39:06.5,314,437,655.5,1001,423,1.42,705,2.07,20723.88,422,171,168.83,168,28501,112910,672,0.9,-0.16,-0.54,1.77,36.3,-1.54,-9.46,-56.59,-10.08,-44.4,4.89,-10.05,-44.89,Forward Fall while Standing
39:06.6,380,435,652.5,1001,423,1.42,705,2.07,20723.88,422,171,168.83,168,28501,142151,843,0.94,-0.18,-0.43,7.25,51.51,-3.95,-10.26,-62.22,-9.29,-39.4,4.57,-9.33,-40.31,Forward Fall while Standing
39:06.7,411,435,652.5,1001,423,1.42,705,2.07,20723.88,422,169,168.83,168,28501,170712,1012,0.96,-0.18,-0.44,-1.57,38.54,-0.4,-10.19,-62.28,-9.39,-35.74,4.6,-9.42,-36.8,Forward Fall while Standing
39:06.8,297,432,648,1001,423,1.42,705,2.07,20723.88,422,169,168.83,168,28501,199273,1181,0.92,-0.16,-0.3,4.52,42.29,-2.27,-9.92,-67.98,-8.87,-31.63,4.45,-8.91,-33.09,Forward Fall while Standing
39:06.9,399,431,646.5,1001,423,1.42,705,2.07,20723.88,422,175,168.83,168,28501,229898,1356,1,-0.18,-0.23,-0.8,35.8,-2.99,-10.6,-71.98,-8.9,-28.22,4.23,-8.96,-29.97,Forward Fall while Standing
39:07.0,990,443,664.5,1001,424,1.41,707.85,2.07,20723.88,422,203,168.83,168,28501,205571,1559,1,-0.15,-0.2,0.44,47.98,-6.69,-8.76,-74.31,-8.8,-23.62,3.64,-8.8,-25.65,Forward Fall while Standing
39:07.1,1001,454,681,1001,424,1.41,707.85,2.07,20723.88,423,214,136.32,177,18582,0,0,1.01,-0.14,-0.09,7.89,56.84,-16.45,-8.26,-79.21,-7.94,-18.08,2.06,-7.96,-20.53,Forward Fall while Standing
39:07.3,1001,465,697.5,1001,424,1.41,707.85,2.07,20723.88,423,218,136.32,177,18582,4294949284,218,0.99,-0.08,-0.16,-7.72,28.73,-8.4,-5.4,-77.93,-8.67,-15.38,1.29,-8.54,-17.88,Forward Fall while Standing
39:07.4,1000,475,712.5,1001,424,1.41,707.85,2.07,20723.88,423,217,136.32,177,18582,4294930837,435,1.03,-0.14,0.02,0.82,4.36,-1.96,-8.35,-80.6,-8.53,-15.14,1.17,-8.52,-17.76,Forward Fall while Standing
39:07.5,998,485,727.5,1001,424,1.41,707.85,2.07,20723.88,423,219,136.32,177,18582,4294913262,654,0.98,-0.12,0.02,1.42,26.94,0.41,-7.75,-81.14,-8.33,-12.62,1.29,-8.3,-15.36,Forward Fall while Standing
39:07.6,768,491,736.5,1001,423,1.42,705,2.07,20723.88,423,221,136.32,177,18582,4294896567,875,1.01,-0.13,0.02,-4.37,21.6,-1.24,-7.85,-81.03,-8.71,-10.66,1.25,-8.67,-13.48,Forward Fall while Standing
39:07.7,586,493,739.5,1001,423,1.42,705,2.07,20723.88,423,221,136.32,177,18582,4294879872,1096,0.99,-0.15,0.1,-12.11,4.13,-0.41,-8.88,-78.23,-9.88,-10.45,1.29,-9.84,-13.16,Forward Fall while Standing
39:07.8,445,492,738,1001,423,1.42,705,2.07,20723.88,423,221,136.32,177,18582,4294863177,1317,1.02,-0.11,0.14,-1.26,9.05,-6.18,-6.66,-78.43,-9.96,-9.73,0.74,-9.82,-12.48,Forward Fall while Standing
39:07.9,378,490,735,1001,423,1.42,705,2.07,20723.88,423,222,136.32,177,18582,4294846925,1539,0.96,-0.12,0.1,0.12,7.68,-2.15,-7.42,-79.19,-9.89,-9.16,0.6,-9.79,-11.96,Forward Fall while Standing
39:08.0,326,487,730.5,1001,423,1.42,705,2.07,20723.88,423,223,136.32,177,18582,4294831118,1762,0.96,-0.11,0.12,-10.09,-3.87,6.4,-7.31,-78.69,-10.86,-9.76,1.33,-10.72,-12.52,Forward Fall while Standing
39:08.1,292,483,724.5,1001,423,1.42,705,2.07,20723.88,423,224,136.32,177,18582,4294815758,1986,0.99,-0.14,0.13,-9.53,4.37,6.35,-8.78,-77.52,-11.77,-9.52,2.06,-11.65,-12.24,Forward Fall while Standing
39:08.2,320,481,721.5,1001,423,1.42,705,2.07,20723.88,423,226,20723.9,221,429480128,0,0,0.99,-0.16,0.15,-8.27,1.82,3.44,-9.45,-76.08,-12.54,-9.54,2.48,-12.42,-12.2,Forward Fall while Standing
39:08.3,201,476,714,1001,423,1.42,705,2.07,20723.88,423,225,20723.9,221,429480128,4294952385,225,1.01,-0.17,0.13,-4.82,-7.06,1.11,-9.8,-76.51,-12.98,-10.46,2.68,-12.85,-13.1,Forward Fall while Standing
39:08.4,209,472,708,1001,423,1.42,705,2.07,20723.88,423,227,20723.9,221,429480128,4294938378,452,1,-0.18,0.1,-0.38,-8.16,-0.18,-10.94,-76.6,-12.96,-11.5,2.74,-12.88,-14.1,Forward Fall while Standing
39:08.5,227,468,702,1001,423,1.42,705,2.07,20723.88,423,228,20723.9,221,429480128,4294924826,680,0.99,-0.19,0.08,-0.54,-4.79,-0.45,-11.3,-76.74,-12.96,-12.2,2.77,-12.89,-14.78,Forward Fall while Standing
39:08.6,277,465,697.5,1001,423,1.42,705,2.07,20723.88,423,229,20723.9,221,429480128,4294911731,909,1.01,-0.18,0.06,-2.06,0.23,-0.4,-10.49,-78.03,-13.11,-12.38,2.81,-13.01,-15.01,Forward Fall while Standing
39:08.7,251,461,691.5,1001,423,1.42,705,2.07,20723.88,423,229,20723.9,221,429480128,4294898636,1138,1,-0.19,0.03,-2.83,-0.56,-1.25,-11.19,-77.67,-13.35,-12.65,2.77,-13.26,-15.25,Forward Fall while Standing
39:08.8,237,458,687,1001,423,1.42,705,2.07,20723.88,423,229,20723.9,221,429480128,4294885541,1367,1.01,-0.17,0.05,-3.12,-0.19,0.32,-10.07,-78.55,-13.61,-12.87,2.88,-13.47,-15.5,Forward Fall while Standing
39:08.9,311,456,684,1001,423,1.42,705,2.07,20723.88,423,228,20723.9,221,429480128,4294871989,1595,0.03,-0.02,-0.02,-1.21,5.53,-3.32,-24.87,-52.84,-13.68,-12.51,2.62,-14.12,-14.13,Forward Fall while Standing
39:09.0,302,453,679.5,1001,423,1.42,705,2.07,20723.88,423,227,20723.9,221,429480128,4294857982,1822,1,-0.17,0.08,-1.04,1.21,-5.05,-10.29,-77.68,-13.73,-12.59,2.18,-13.59,-15.2,Forward Fall while Standing
39:09.1,349,452,678,1001,423,1.42,705,2.07,20723.88,423,226,20723.9,221,429480128,4294843522,2048,1,-0.15,0.09,-1.79,-0.05,-2.99,-9.29,-78.26,-13.85,-12.8,1.95,-13.67,-15.42,Forward Fall while Standing
39:09.2,428,451,676.5,1001,423,1.42,705,2.07,20723.88,423,227,20723.97,227,429482944,0,0,0.99,-0.16,0.09,0.49,4.28,-3.18,-9.67,-77.99,-13.74,-12.57,1.71,-13.58,-15.19,Forward Fall while Standing
39:09.3,453,451,676.5,1001,424,1.41,707.85,2.07,20723.88,423,228,20723.97,227,429482944,4294953744,228,0.99,-0.16,0.09,1.73,2.56,0.89,-9.63,-78.12,-13.51,-12.51,1.88,-13.36,-15.14,Forward Fall while Standing
39:09.4,752,456,684,1001,424,1.41,707.85,2.07,20723.88,423,226,20723.97,227,429482944,4294939284,454,1,-0.16,0.1,-0.6,-0.22,-0.01,-9.65,-77.77,-13.52,-12.74,1.96,-13.36,-15.34,Forward Fall while Standing
39:18.6,595,595,892.5,595,423,1.42,705,2.07,0,0,231,0,0,0,4294943409,463,1.01,-0.08,0.08,-1.44,8.41,-2.76,-5.25,-81.94,-0.53,0.68,-0.14,-0.72,-2.62,Sitting
39:18.7,624,609,913.5,624,424,1.41,707.85,2.07,0,0,230,0,0,0,4294930773,693,1.02,-0.07,0.08,-2.92,0.81,-5.37,-4.3,-82.48,-0.76,0.56,-0.59,-0.9,-2.76,Sitting
39:18.8,630,616,924,630,424,1.41,707.85,2.07,0,0,230,0,0,0,4294918137,923,1.01,-0.07,0.07,-5.24,-1.84,-3.66,-4.51,-82.64,-1.22,0.19,-0.87,-1.35,-3.12,Sitting
39:18.9,494,585,877.5,630,423,1.42,705,2.07,0,0,228,0,0,0,4294904585,1151,1,-0.07,0.08,-3.24,-1.31,-1.66,-4.8,-82.25,-1.49,-0.14,-0.96,-1.62,-3.42,Sitting
39:18.9,463,561,841.5,630,423,1.42,705,2.07,0,0,229,0,0,0,4294891490,1380,1.01,-0.06,0.09,-1.02,4.31,-2.9,-3.91,-82.17,-1.53,0.09,-1.16,-1.63,-3.2,Sitting
39:19.0,484,548,822,630,423,1.42,705,2.07,0,0,228,0,0,0,4294877938,1608,1,-0.07,0.09,-4.58,-4.05,-2.12,-4.32,-82.03,-1.93,-0.5,-1.3,-2.02,-3.76,Sitting
39:19.1,460,535,802.5,630,423,1.42,705,2.07,0,0,228,0,0,0,4294864386,1836,0.99,-0.07,0.1,1.03,2.02,-4.53,-4.55,-81.38,-1.77,-0.5,-1.66,-1.88,-3.74,Sitting
39:19.2,371,515,772.5,630,423,1.42,705,2.07,0,0,227,0,0,0,4294850379,2063,1,-0.05,0.07,0.28,4.02,-1.66,-3.39,-83.41,-1.69,-0.3,-1.75,-1.76,-3.62,Sitting
39:19.3,400,502,753,630,423,1.42,705,2.07,20723.88,423,226,20723.99,228,429483584,0,0,1.02,-0.05,0.09,3.01,7.42,0.4,-3.37,-82.58,-1.33,0.24,-1.63,-1.41,-3.07,Sitting
39:19.4,460,498,747,630,423,1.42,705,2.07,20723.88,423,227,20723.99,228,429483584,4294953289,227,1.01,-0.06,0.1,-1.24,2.3,-4.43,-4.02,-82.01,-1.4,0.27,-2,-1.5,-3.02,Sitting
39:19.5,651,512,768,651,423,1.42,705,2.07,20723.88,423,230,20723.99,228,429483584,4294940653,457,0.98,-0.04,0.09,-4.24,-1.06,-2.24,-3.14,-82.59,-1.78,-0.04,-2.15,-1.83,-3.34,Sitting
39:19.6,484,509,763.5,651,423,1.42,705,2.07,20723.88,423,230,20723.99,228,429483584,4294928017,687,1,-0.05,0.11,-2.93,0.03,0.19,-3.54,-81.44,-2.02,-0.24,-2.05,-2.08,-3.49,Sitting
39:19.7,571,514,771,651,423,1.42,705,2.07,20723.88,423,228,20723.99,228,429483584,4294914465,915,1.01,-0.05,0.1,-1.6,1.13,-3.01,-3.48,-82.06,-2.12,-0.33,-2.27,-2.18,-3.6,Sitting
39:19.8,494,512,768,651,423,1.42,705,2.07,20723.88,423,226,20723.99,228,429483584,4294900005,1141,1,-0.04,0.1,-3.61,-4.59,-3.95,-2.96,-82.02,-2.43,-1,-2.59,-2.45,-4.24,Sitting
39:20.0,487,511,766.5,651,423,1.42,705,2.07,20723.88,423,226,20723.99,228,429483584,4294885545,1367,0.97,-0.03,0.12,4.28,8.4,-7.55,-2.32,-80.93,-1.94,-0.34,-3.28,-1.95,-3.57,Sitting
39:20.1,524,512,768,651,423,1.42,705,2.07,20723.88,423,229,20723.99,228,429483584,4294872450,1596,0.98,-0.03,0.06,4.24,20.87,-8.62,-2.14,-84.35,-1.44,1.6,-4.09,-1.47,-1.84,Sitting
39:20.2,534,513,769.5,651,423,1.42,705,2.07,20723.88,423,229,20723.99,228,429483584,4294859355,1825,1.04,-0.02,0.08,-9.51,-3.79,-12.62,-1.52,-83.83,-2.35,1.02,-5.28,-2.31,-2.38,Sitting
39:20.3,637,520,780,651,424,1.41,707.85,2.07,20723.88,423,229,20723.99,228,429483584,4294846260,2054,0.97,-0.03,0.11,-10.41,-14.41,-14.99,-2.42,-81.53,-3.36,-0.67,-6.74,-3.32,-3.91,Sitting
39:20.4,568,522,783,651,423,1.42,705,2.07,20723.88,423,229,20723.98,228,429483328,0,0,1.05,0.05,0.07,-4.82,-11.06,1.68,1.95,-83.95,-3.79,-1.98,-6.5,-3.56,-5.26,Sitting
39:20.5,658,529,793.5,658,424,1.41,707.85,2.07,20723.88,423,227,20723.98,228,429483328,4294953289,227,1.04,0.04,0.12,-5.02,-7.7,-3.43,1.52,-81.67,-4.24,-2.96,-6.76,-4.01,-6.11,Sitting
39:20.6,511,528,792,658,423,1.42,705,2.07,20723.88,423,229,20723.98,228,429483328,4294940194,456,1.01,0.04,0.11,5.77,-2.73,-3.65,1.77,-81.9,-3.59,-3.45,-7.06,-3.37,-6.59,Sitting
39:20.7,537,528,792,658,423,1.42,705,2.07,20723.88,423,228,20723.98,228,429483328,4294926642,684,0.97,0.03,0.08,9.14,-0.39,-2.6,1.38,-83.34,-2.61,-3.69,-7.24,-2.45,-6.88,Sitting
39:20.8,512,528,792,658,423,1.42,705,2.07,20723.88,423,229,20723.98,228,429483328,4294913547,913,0.99,0.02,0.05,6.19,7.84,-0.24,0.84,-85.39,-1.92,-3.1,-7.18,-1.81,-6.39,Sitting
39:20.9,550,529,793.5,658,423,1.42,705,2.07,20723.88,423,228,20723.98,228,429483328,4294899995,1141,1.02,0.02,0.03,2.58,1.4,4.92,0.62,-86.14,-1.6,-3.16,-6.6,-1.52,-6.48,Sitting
39:21.0,486,527,790.5,658,423,1.42,705,2.07,20723.88,423,227,20723.98,228,429483328,4294885988,1368,1.03,0.01,0.03,-3.28,0.01,3.66,-0.03,-86.49,-1.88,-3.36,-6.15,-1.81,-6.69,Sitting
39:21.1,503,526,789,658,423,1.42,705,2.07,20723.88,423,229,20723.98,228,429483328,4294872893,1597,1.11,-0.01,0.08,-0.32,14.94,3.09,-1.07,-84.18,-1.85,-2.04,-5.76,-1.82,-5.33,Sitting
39:21.2,536,526,789,658,423,1.42,705,2.07,20723.88,423,227,20723.98,228,429483328,4294858886,1824,1.02,-0.02,0.09,-9.4,1.33,-12.4,-1.48,-83.47,-2.76,-2.11,-6.94,-2.71,-5.36,Sitting
39:21.3,447,523,784.5,658,423,1.42,705,2.07,20723.88,423,224,20723.98,228,429483328,4294843526,2048,1,0.05,0.09,-17.67,-26.52,-6.62,2.02,-82.45,-4.5,-5.02,-7.54,-4.24,-8.12,Sitting
39:21.4,416,520,780,658,423,1.42,705,2.07,20723.88,423,224,20723.97,227,429482816,0,0,0.98,0.05,0.1,-6.4,-17.55,-3.98,2.24,-81.69,-5.09,-6.97,-7.85,-4.79,-9.96,Sitting
39:21.5,427,517,775.5,658,423,1.42,705,2.07,20723.88,423,224,20723.97,227,429482816,4294951936,224,1,0.06,0.02,4.42,0.94,-1.39,2.64,-85.06,-4.58,-7.08,-7.92,-4.29,-10.2,Sitting
39:21.6,478,515,772.5,658,424,1.41,707.85,2.07,20723.88,423,224,20723.97,227,429482816,4294936576,448,1.01,0.03,-0.06,1.69,-0.6,3.11,0.91,-84.69,-4.35,-7.35,-7.52,-4.14,-10.44,Sitting
39:21.7,479,514,771,658,423,1.42,705,2.07,20723.88,423,223,20723.97,227,429482816,4294920769,671,1.03,0.01,-0.05,4.55,21.98,-1.59,0.14,-85.3,-3.83,-5.31,-7.6,-3.67,-8.51,Sitting
39:21.8,508,514,771,658,423,1.42,705,2.07,20723.88,423,221,20723.97,227,429482816,4294904074,892,1.03,0.03,0.01,-13.98,17.08,-5.81,0.89,-86.91,-5.2,-3.77,-8.12,-4.96,-7.09,Sitting
39:21.9,578,516,774,658,423,1.42,705,2.07,20723.88,423,223,20723.97,227,429482816,4294888267,1115,1,0.06,0.1,-14.3,12.19,-7.64,2.58,-82.08,-6.6,-2.73,-8.81,-6.23,-5.9,Sitting
39:22.0,592,518,777,658,423,1.42,705,2.07,20723.88,423,220,20723.97,227,429482816,4294871131,1335,0.97,0.05,0.1,-17.84,-9.21,-0.56,2.53,-81.7,-8.36,-3.87,-8.79,-7.93,-6.98,Sitting
39:22.1,413,515,772.5,658,423,1.42,705,2.07,20723.88,423,218,20723.97,227,429482816,4294853119,1553,1.04,0.05,0.14,-7.19,-8.08,1.82,2.03,-80.5,-9.03,-4.89,-8.53,-8.59,-7.91,Sitting
39:22.2,410,512,768,658,423,1.42,705,2.07,20723.88,423,219,20723.97,227,429482816,4294835544,1772,1.02,0.03,0.1,2.91,-2.56,2.47,1,-82.79,-8.67,-5.36,-8.19,-8.29,-8.46,Sitting
39:22.3,475,511,766.5,658,423,1.42,705,2.07,20723.88,423,217,20723.97,227,429482816,4294817097,1989,1.01,0.03,0.06,4.2,-8.76,3.11,0.87,-84.72,-8.19,-6.45,-7.8,-7.83,-9.58,Sitting
39:22.4,544,512,768,658,423,1.42,705,2.07,20723.88,423,220,20723.9,220,429480000,0,0,1,0.02,0.06,8.19,0.87,1.3,0.4,-85.03,-7.32,-6.56,-7.59,-7.01,-9.7,Sitting
39:22.5,511,512,768,658,423,1.42,705,2.07,20723.88,423,220,20723.9,220,429480000,4294950160,220,1.01,0.02,0,1.77,6.85,1.98,0.67,-87.16,-7.08,-6.07,-7.31,-6.77,-9.31,Sitting
39:22.6,542,513,769.5,658,423,1.42,705,2.07,20723.88,423,221,20723.9,220,429480000,4294933465,441,1.03,-0.02,0.07,-6.65,-1.4,-0.37,-1.92,-84.53,-7.7,-6.41,-7.27,-7.47,-9.54,Sitting
39:22.7,655,516,774,658,423,1.42,705,2.07,20723.88,423,223,20723.9,220,429480000,4294917658,664,1.02,0,0.06,-4.03,3.34,-5.39,-0.62,-84.9,-8.05,-6.28,-7.74,-7.76,-9.42,Sitting
39:22.8,582,518,777,658,424,1.41,707.85,2.07,20723.88,423,222,20723.9,220,429480000,4294901406,886,0.99,0.03,0.05,-2.69,6.72,-2.21,1.1,-84.94,-8.27,-5.79,-7.88,-7.89,-8.96,Sitting
39:22.9,537,518,777,658,424,1.41,707.85,2.07,20723.88,423,221,20723.9,220,429480000,4294884711,1107,1,0.02,0.07,-3.45,2.44,1.27,0.34,-84.23,-8.56,-5.75,-7.67,-8.21,-8.89,Sitting
39:23.0,499,518,777,658,423,1.42,705,2.07,20723.88,423,220,20723.9,220,429480000,4294867575,1327,1.03,0.01,0.08,-4.04,-3.38,-0.27,-0.05,-83.7,-8.92,-6.3,-7.62,-8.56,-9.4,Sitting
39:23.1,521,518,777,658,423,1.42,705,2.07,20723.88,423,221,20723.9,220,429480000,4294850880,1548,1.01,0.01,0.08,-3.4,-1.56,-2.51,0.17,-83.72,-9.21,-6.66,-7.8,-8.83,-9.74,Sitting
39:23.2,499,517,775.5,658,423,1.42,705,2.07,20723.88,423,222,20723.9,220,429480000,4294834628,1770,1.01,0.02,0.08,-4.48,0.44,-1.13,0.39,-83.74,-9.61,-6.82,-7.83,-9.21,-9.9,Sitting
39:23.3,513,517,775.5,658,423,1.42,705,2.07,20723.88,423,221,20723.9,220,429480000,4294817933,1991,1.01,0.01,0.08,-2.85,1.89,-1.36,-0.17,-83.69,-9.84,-6.83,-7.89,-9.45,-9.91,Sitting
39:23.4,557,518,777,658,423,1.42,705,2.07,20723.88,423,221,20723.9,221,429480128,0,0,1.01,0,0.07,-3.05,-1.64,-0.91,-0.37,-84.2,-10.09,-7.2,-7.9,-9.7,-10.28,Sitting
39:23.5,496,518,777,658,423,1.42,705,2.07,20723.88,423,220,20723.9,221,429480128,4294950160,220,1.03,0,0.09,-5.02,-0.65,-1.69,-0.81,-83.43,-10.55,-7.47,-7.99,-10.16,-10.51,Sitting
39:23.6,489,517,775.5,658,423,1.42,705,2.07,20723.88,423,221,20723.9,221,429480128,4294933465,441,1,0.02,0.08,-1.08,3.7,-1.25,0.42,-83.49,-10.6,-7.3,-8.04,-10.16,-10.34,Sitting
39:23.7,513,517,775.5,658,423,1.42,705,2.07,20723.88,423,221,20723.9,221,429480128,4294916770,662,1.01,0.03,0.08,-3.34,0.33,4.45,0.95,-83.88,-10.88,-7.47,-7.51,-10.41,-10.52,Sitting
39:23.8,534,517,775.5,658,423,1.42,705,2.07,20723.88,423,221,20723.9,221,429480128,4294900075,883,1.02,-0.01,0.09,1.56,6.39,1.59,-1.21,-83.59,-10.66,-7.01,-7.27,-10.28,-10.08,Sitting
39:23.9,476,516,774,658,423,1.42,705,2.07,20723.88,423,220,20723.9,221,429480128,4294882939,1103,1.01,-0.03,0.1,-3.37,-0.23,-0.08,-2.27,-82.43,-10.94,-7.24,-7.19,-10.6,-10.25,Sitting
39:24.0,496,516,774,658,423,1.42,705,2.07,20723.88,423,221,20723.9,221,429480128,4294866244,1324,0.99,0,0.07,-7.57,6.47,1.4,-0.64,-84.16,-11.67,-6.77,-6.97,-11.23,-9.87,Sitting
39:24.1,576,517,775.5,658,423,1.42,705,2.07,20723.88,423,220,20723.9,221,429480128,4294849108,1544,1.01,0.01,0.11,-1.98,17.5,1.66,-0.07,-82.27,-11.82,-5.19,-6.72,-11.35,-8.28,Sitting
39:24.2,454,516,774,658,423,1.42,705,2.07,20723.88,423,220,20723.9,221,429480128,4294831972,1764,0.97,-0.03,0.11,-0.06,1.56,0.4,-2.05,-82.06,-11.77,-5.24,-6.6,-11.38,-8.31,Sitting
39:24.3,452,515,772.5,658,423,1.42,705,2.07,20723.88,423,215,20723.9,221,429480128,4294812661,1979,1,-0.02,0.14,-2.05,-0.92,1.13,-1.47,-80.32,-11.92,-5.54,-6.4,-11.5,-8.53,Sitting
39:24.4,440,514,771,658,423,1.42,705,2.07,20723.88,423,216,20723.89,219,429479392,0,0,1.02,0.01,0.06,1.26,-6.85,-0.78,-0.17,-85.14,-11.74,-6.42,-6.4,-11.28,-9.57,Sitting
39:24.5,478,513,769.5,658,423,1.42,705,2.07,20723.88,423,215,20723.89,219,429479392,4294947985,215,1.02,-0.03,0.09,1.72,-7.79,-5.73,-2.13,-83.25,-11.51,-7.43,-6.91,-11.13,-10.46,Sitting
39:24.6,505,513,769.5,658,423,1.42,705,2.07,20723.88,423,218,20723.89,219,429479392,4294929973,433,1,-0.01,0.08,1.05,6.27,-8.6,-1.05,-83.64,-11.34,-7,-7.7,-10.93,-10.06,Sitting
39:24.7,491,513,769.5,658,423,1.42,705,2.07,20723.88,423,217,20723.89,219,429479392,4294911526,650,0.98,0.02,0.1,-3.2,8.22,-4.01,0.45,-82.78,-11.61,-6.37,-8.03,-11.12,-9.42,Sitting
39:24.8,550,513,769.5,658,423,1.42,705,2.07,20723.88,423,217,20723.89,219,429479392,4294893079,867,1.06,0.01,0.12,-0.37,1.37,7.53,-0.15,-81.95,-11.59,-6.43,-7.17,-11.13,-9.45,Sitting
39:24.9,585,514,771,658,423,1.42,705,2.07,20723.88,423,215,20723.89,219,429479392,4294873768,1082,1,-0.03,0.13,1.37,-3.64,-6.82,-2.18,-80.61,-11.39,-7,-7.78,-11.02,-9.95,Sitting
39:25.0,450,513,769.5,658,423,1.42,705,2.07,20723.88,423,214,20723.89,219,429479392,4294854028,1296,0.95,-0.02,0.08,-0.24,-12.56,-4.59,-1.88,-83.47,-11.36,-8.5,-8.17,-10.98,-11.5,Sitting
39:25.1,493,513,769.5,658,423,1.42,705,2.07,20723.88,423,215,20723.89,219,429479392,4294834717,1511,1,0.03,0.07,-2.14,-4.06,6.82,1,-84.31,-11.52,-9.13,-7.39,-11.02,-12.13,Sitting
39:25.2,524,513,769.5,658,423,1.42,705,2.07,20723.88,423,215,20723.89,219,429479392,4294815406,1726,1.01,0,0.03,1.22,12.06,3.52,-0.51,-86.58,-11.34,-8.1,-6.95,-10.91,-11.24,Sitting
39:25.3,545,514,771,658,423,1.42,705,2.07,20723.88,423,214,20723.89,219,429479392,4294795666,1940,1.03,-0.03,0.14,-8.2,-1.92,2.05,-2.33,-80.72,-12.12,-8.5,-6.66,-11.73,-11.39,Sitting
39:25.4,493,513,769.5,658,423,1.42,705,2.07,20723.88,423,213,20723.84,215,429477536,0,0,1.02,-0.03,0.14,-2.74,-2.52,-5.45,-2.5,-80.2,-12.34,-8.95,-7.12,-11.94,-11.8,Sitting
39:25.5,451,512,768,658,424,1.41,707.85,2.07,20723.88,423,210,20723.84,215,429477536,4294945860,210,1.01,-0.01,0.08,-3.5,-18.23,-2.55,-1.24,-84.03,-12.64,-11.06,-7.3,-12.19,-13.98,Sitting
39:25.7,469,512,768,658,423,1.42,705,2.07,20723.88,423,210,20723.84,215,429477536,4294924424,420,0.96,-0.01,0.02,3.17,-5.62,-0.02,-1.06,-87.22,-12.26,-11.83,-7.23,-11.82,-14.85,Sitting
39:25.8,537,512,768,658,423,1.42,705,2.07,20723.88,423,210,20723.84,215,429477536,4294902988,630,1.03,0,0.02,5.05,15.11,3.31,-0.54,-87.48,-11.69,-10.5,-6.81,-11.25,-13.58,Sitting
39:25.9,497,512,768,658,423,1.42,705,2.07,20723.88,423,208,20723.84,215,429477536,4294880716,838,1.02,-0.03,0.06,-4.4,12.4,1.78,-2.34,-84.45,-12.09,-9.43,-6.54,-11.7,-12.43,Sitting
39:26.0,526,512,768,658,423,1.42,705,2.07,20723.88,423,207,20723.84,215,429477536,4294858029,1045,1.04,-0.03,0.12,-2.89,5.46,-3.33,-2.04,-81.67,-12.33,-9.07,-6.8,-11.91,-11.98,Sitting
39:26.1,500,512,768,658,423,1.42,705,2.07,20723.88,423,207,20723.84,215,429477536,4294835342,1252,1.01,-0.01,0.08,-3.98,-5.03,-4.63,-1.13,-83.64,-12.68,-9.8,-7.2,-12.22,-12.75,Sitting
39:26.2,532,512,768,658,423,1.42,705,2.07,20723.88,423,208,20723.84,215,429477536,4294813070,1460,0.98,0,0.11,0.15,4.15,-0.82,-0.52,-82.1,-12.61,-9.58,-7.2,-12.12,-12.48,Sitting
39:26.3,555,513,769.5,658,423,1.42,705,2.07,20723.88,423,208,20723.84,215,429477536,4294790798,1668,1.01,-0.03,0.14,-4.74,-8.23,6.2,-2.09,-80.1,-13.03,-10.62,-6.49,-12.59,-13.4,Sitting
39:26.4,630,514,771,658,423,1.42,705,2.07,20723.88,423,207,20723.84,215,429477536,4294768111,1875,1.03,-0.03,0.07,1.35,-2.43,4.39,-2.51,-84.17,-12.84,-11.08,-5.95,-12.42,-14,Sitting
39:26.5,613,515,772.5,658,423,1.42,705,2.07,20723.88,423,211,20723.77,208,429474720,0,0,1.03,-0.05,0.06,-2.24,5.71,-3.68,-3.17,-84.05,-13,-10.71,-6.24,-12.61,-13.64,Sitting
39:26.6,658,517,775.5,658,424,1.41,707.85,2.07,20723.88,423,209,20723.77,208,429474720,4294945441,209,1,-0.04,0.08,-6.27,1.55,-5.68,-2.61,-83.36,-13.6,-10.75,-6.75,-13.16,-13.66,Sitting
39:26.7,472,517,775.5,658,424,1.41,707.85,2.07,20723.88,423,208,20723.77,208,429474720,4294923169,417,0.99,-0.02,0.09,-4.83,2.19,-2.81,-1.83,-82.84,-14.03,-10.73,-6.96,-13.54,-13.62,Sitting
39:26.8,470,516,774,658,424,1.41,707.85,2.07,20723.88,423,207,20723.77,208,429474720,4294900482,624,1,-0.02,0.11,-0.54,5.42,0.8,-1.72,-81.96,-14.03,-10.38,-6.79,-13.54,-13.25,Sitting
39:26.9,469,515,772.5,658,424,1.41,707.85,2.07,20723.88,423,205,20723.77,208,429474720,4294876971,829,1.03,-0.03,0.1,-0.53,2.11,0.85,-1.97,-82.45,-14.03,-10.37,-6.63,-13.55,-13.26,Sitting
39:27.0,524,516,774,658,424,1.41,707.85,2.07,20723.88,423,207,20723.77,208,429474720,4294854284,1036,1.01,-0.03,0.08,-1.67,-1.27,-1.13,-2.09,-83.44,-14.14,-10.71,-6.66,-13.66,-13.62,Sitting
39:27.1,439,515,772.5,658,423,1.42,705,2.07,20723.88,423,203,20723.77,208,429474720,4294829957,1239,0.99,-0.02,0.1,-0.43,0.66,-0.82,-1.88,-82.73,-14.13,-10.85,-6.66,-13.64,-13.72,Sitting
39:27.2,383,513,769.5,658,423,1.42,705,2.07,20723.88,423,205,20723.77,208,429474720,4294806446,1444,1.02,-0.03,0.09,-2.66,1.08,-0.73,-2.21,-83.09,-14.34,-10.94,-6.66,-13.86,-13.83,Sitting
39:27.3,412,512,768,658,423,1.42,705,2.07,20723.88,423,203,20723.77,208,429474720,4294782119,1647,1.01,-0.03,0.11,-1.26,1.25,-1.91,-2.45,-81.9,-14.42,-11.02,-6.77,-13.94,-13.85,Sitting
39:27.4,538,512,768,658,423,1.42,705,2.07,20723.88,423,204,20723.77,208,429474720,4294758199,1851,1.02,-0.03,0.1,-0.97,-1.14,-1.09,-2.03,-82.52,-14.46,-11.34,-6.8,-13.96,-14.19,Sitting
39:27.5,498,512,768,658,423,1.42,705,2.07,20723.89,423,202,20723.74,205,429473344,0,0,1.01,-0.03,0.07,-2.99,-3.24,0.6,-2.15,-83.9,-14.7,-11.87,-6.66,-14.2,-14.75,Sitting
39:27.6,444,511,766.5,658,423,1.42,705,2.07,20723.89,423,199,20723.74,205,429473344,4294941361,199,1.01,-0.04,0.08,-1.08,3.07,0.78,-2.65,-83.48,-14.76,-11.76,-6.5,-14.27,-14.63,Sitting
39:27.7,512,511,766.5,658,424,1.41,707.85,2.07,20723.89,423,201,20723.74,205,429473344,4294916226,400,1.02,-0.04,0.08,-1.97,2.4,-2.19,-2.65,-83.35,-14.9,-11.72,-6.64,-14.41,-14.58,Sitting
39:27.8,564,512,768,658,424,1.41,707.85,2.07,20723.89,423,206,20723.74,205,429473344,4294893126,606,1.01,-0.03,0.09,-2.33,2.4,-2,-2.43,-83.03,-15.08,-11.68,-6.77,-14.58,-14.53,Sitting
39:27.9,533,512,768,658,423,1.42,705,2.07,20723.89,423,204,20723.74,205,429473344,4294869206,810,1.01,-0.03,0.09,-3.9,2.49,-0.65,-2.29,-83.26,-15.43,-11.63,-6.75,-14.9,-14.49,Sitting
39:28.0,462,512,768,658,423,1.42,705,2.07,20723.89,423,204,20723.74,205,429473344,4294845286,1014,1.01,-0.03,0.09,-1.84,5.22,-1.83,-2.28,-82.87,-15.56,-11.3,-6.86,-15.03,-14.16,Sitting
39:28.1,560,512,768,658,423,1.42,705,2.07,20723.89,423,204,20723.74,205,429473344,4294821366,1218,1.01,-0.02,0.11,-2.58,-0.78,-1.66,-1.6,-82.24,-15.76,-11.59,-6.95,-15.2,-14.41,Sitting
39:28.2,617,513,769.5,658,423,1.42,705,2.07,20723.89,423,205,20723.74,205,429473344,4294797855,1423,0.99,-0.02,0.11,-0.94,2.34,-2.18,-1.97,-81.69,-15.8,-11.55,-7.09,-15.25,-14.36,Sitting
39:28.3,495,513,769.5,658,423,1.42,705,2.07,20723.89,423,204,20723.74,205,429473344,4294773935,1627,1,-0.03,0.1,-1.26,0.02,-0.09,-2.02,-82.32,-15.88,-11.75,-7.02,-15.32,-14.58,Sitting
39:28.4,526,513,769.5,658,423,1.42,705,2.07,20723.89,423,203,20723.74,205,429473344,4294749608,1830,1,-0.03,0.11,-1.84,-5.01,0.97,-2.53,-82.08,-16.01,-12.47,-6.84,-15.47,-15.26,Sitting
39:28.5,566,514,771,658,424,1.41,707.85,2.07,20723.88,423,205,20723.72,203,429472608,0,0,1,-0.03,0.04,5.59,11.05,0.14,-2.26,-85.39,-15.39,-11.56,-6.75,-14.86,-14.51,Sitting
39:28.6,573,514,771,658,423,1.42,705,2.07,20723.88,423,202,20723.72,203,429472608,4294942564,202,1.03,-0.03,0.12,-0.98,6.76,-1.97,-2.26,-81.81,-15.43,-11.07,-6.87,-14.9,-13.9,Sitting
39:28.7,563,514,771,658,423,1.42,705,2.07,20723.88,423,206,20723.72,203,429472608,4294919464,408,1,-0.03,0.13,-5.05,4.51,-5.11,-2.51,-80.86,-15.89,-10.81,-7.31,-15.35,-13.62,Sitting
39:33.5,539,539,808.5,539,423,1.42,705,2.07,0,0,193,0,0,0,4294911498,388,1.05,-0.05,0.15,1.86,4.92,-2.36,-3.04,-79.97,0.29,0.31,0.26,0.15,-2.9,Left Fall while Sitting
39:33.6,533,536,804,539,423,1.42,705,2.07,0,0,192,0,0,0,4294882826,580,1.01,-0.04,0.13,-1.33,2.76,-9.02,-2.87,-80.66,0.21,0.39,-0.54,0.09,-2.85,Left Fall while Sitting
39:33.7,554,542,813,554,423,1.42,705,2.07,0,0,193,0,0,0,4294854539,773,0.98,-0.03,0.17,-1.64,-2.53,-9.36,-2.2,-78.3,0.11,-0.06,-1.38,0.01,-3.19,Left Fall while Sitting
39:33.8,522,537,805.5,554,423,1.42,705,2.07,0,0,193,0,0,0,4294826252,966,0.99,-0.02,0.18,2.47,4.07,-9.3,-1.65,-78.29,0.4,0.15,-2.21,0.32,-2.99,Left Fall while Sitting
39:33.9,554,540,810,554,423,1.42,705,2.07,0,0,195,0,0,0,4294798741,1161,0.95,0.01,0.13,0.8,-3.43,-9.24,-0.22,-80.76,0.54,-0.38,-3.04,0.51,-3.6,Left Fall while Sitting
39:34.0,601,550,825,601,424,1.41,707.85,2.07,0,0,195,0,0,0,4294771230,1356,0.96,0.03,0.14,-1.27,-2.74,-10.06,0.91,-79.7,0.47,-0.85,-3.95,0.48,-4,Left Fall while Sitting
39:34.1,624,561,841.5,624,424,1.41,707.85,2.07,0,0,197,0,0,0,4294744503,1553,1.01,0.03,0.15,0.31,7.18,-7.89,1.14,-79.82,0.55,-0.34,-4.65,0.58,-3.52,Left Fall while Sitting
39:34.2,526,556,834,624,423,1.42,705,2.07,0,0,192,0,0,0,4294715831,1745,1.05,0.04,0.19,6.18,8.63,-13.83,1.63,-77.94,1.21,0.31,-5.92,1.23,-2.82,Left Fall while Sitting
39:34.3,396,538,807,624,423,1.42,705,2.07,20723.88,423,185,20723.62,193,429468448,0,0,1,0.08,0.18,8.31,6.35,-19.08,3.67,-77.51,2.09,0.74,-7.73,2.15,-2.39,Left Fall while Sitting
39:34.4,335,518,777,624,423,1.42,705,2.07,20723.88,423,187,20723.62,193,429468448,4294936729,187,0.98,0.12,0.17,14.29,4.92,-20.08,6.18,-76.3,3.59,1.03,-9.68,3.69,-2.06,Left Fall while Sitting
39:34.5,368,504,756,624,423,1.42,705,2.07,20723.88,423,182,20723.62,193,429468448,4294904317,369,1.02,0.15,0.17,11.21,8.58,-22.31,7.89,-75.92,4.79,1.7,-11.88,4.91,-1.4,Left Fall while Sitting
39:34.6,439,499,748.5,624,423,1.42,705,2.07,20723.88,423,184,20723.62,193,429468448,4294872637,553,0.94,0.2,0.2,4.92,2.6,-22.07,11.01,-71.88,5.34,1.76,-14.01,5.56,-1.18,Left Fall while Sitting
39:34.7,487,498,747,624,423,1.42,705,2.07,20723.88,423,186,20723.62,193,429468448,4294841697,739,0.98,0.26,0.21,4.15,-0.59,-15.34,13.87,-69.61,5.81,1.5,-15.48,6.14,-1.34,Left Fall while Sitting
39:34.8,666,510,765,666,424,1.41,707.85,2.07,20723.88,423,187,20723.62,193,429468448,4294811130,926,0.93,0.28,0.11,8.01,6.78,-19.53,16.16,-70.42,6.7,2,-17.41,7.07,-0.9,Left Fall while Sitting
39:34.9,581,515,772.5,666,424,1.41,707.85,2.07,20723.88,423,190,20723.62,193,429468448,4294781694,1116,0.96,0.33,0.15,8.34,1.27,-20.34,18.43,-67.47,7.59,1.92,-19.38,8.03,-0.85,Left Fall while Sitting
39:35.0,538,516,774,666,424,1.41,707.85,2.07,20723.88,423,189,20723.62,193,429468448,4294751879,1305,0.85,0.33,0.14,5.91,-4.87,-21.33,20.41,-65.56,8.25,1.22,-21.48,8.74,-1.45,Left Fall while Sitting
39:35.1,549,518,777,666,423,1.42,705,2.07,20723.88,423,190,20723.62,193,429468448,4294722443,1495,0.97,0.4,0.1,3.6,-0.05,-17.56,21.49,-65.61,8.67,1.01,-23.17,9.19,-1.65,Left Fall while Sitting
39:35.2,633,524,786,666,424,1.41,707.85,2.07,20723.88,423,194,20723.62,193,429468448,4294694543,1689,0.92,0.41,0.12,-0.15,1.9,-15.88,23.35,-63.43,8.72,1,-24.69,9.3,-1.57,Left Fall while Sitting
39:35.3,626,530,795,666,423,1.42,705,2.07,20723.89,423,194,20723.58,188,429466656,0,0,0.87,0.42,0.13,-2,-0.6,-15.15,25.06,-61.54,8.57,0.74,-26.14,9.23,-1.75,Left Fall while Sitting
39:35.4,608,533,799.5,666,423,1.42,705,2.07,20723.89,423,196,20723.58,188,429466656,4294940176,196,0.93,0.46,0.13,-7.82,-4.74,-14,25.71,-61.06,7.84,0.06,-27.48,8.55,-2.38,Left Fall while Sitting
39:35.5,717,542,813,717,423,1.42,705,2.07,20723.89,423,197,20723.58,188,429466656,4294913449,393,0.84,0.47,0.17,-2.29,1.51,-14.59,28.05,-57.78,7.66,0.01,-28.87,8.48,-2.3,Left Fall while Sitting
39:35.6,787,553,829.5,787,423,1.42,705,2.07,20723.89,423,208,20723.58,188,429466656,4294891177,601,0.87,0.47,0.11,-0.42,-0.72,-15.22,27.97,-59.02,7.68,-0.27,-30.34,8.49,-2.62,Left Fall while Sitting
39:35.7,781,563,844.5,787,423,1.42,705,2.07,20723.89,423,212,20723.58,188,429466656,4294870585,813,0.86,0.52,0.14,0.98,-4.75,-13.02,30.48,-56.15,7.83,-0.95,-31.59,8.74,-3.16,Left Fall while Sitting
39:35.8,740,571,856.5,787,423,1.42,705,2.07,20723.89,423,214,20723.58,188,429466656,4294850845,1027,0.84,0.51,0.17,1.53,-2.31,-11.8,30.33,-55.75,8.05,-1.39,-32.71,8.94,-3.57,Left Fall while Sitting
39:35.9,547,570,855,787,423,1.42,705,2.07,20723.89,423,219,20723.58,188,429466656,4294833270,1246,0.83,0.54,0.15,4.08,-5.47,-18.59,32.03,-54.31,8.52,-2.16,-34.53,9.46,-4.24,Left Fall while Sitting
39:36.0,545,569,853.5,787,423,1.42,705,2.07,20723.89,423,220,20723.58,188,429466656,4294816134,1466,0.76,0.57,0.08,13.01,-7.9,-13.95,36.41,-51,9.89,-3.16,-35.86,10.95,-5.07,Left Fall while Sitting
39:36.1,607,570,855,787,424,1.41,707.85,2.07,20723.89,423,223,20723.58,188,429466656,4294800327,1689,0.75,0.58,0.03,6.25,-5.89,-7.64,37.34,-50.43,10.59,-3.97,-36.57,11.66,-5.83,Left Fall while Sitting
39:36.2,660,573,859.5,787,424,1.41,707.85,2.07,20723.89,423,224,20723.58,188,429466656,4294784967,1913,0.8,0.59,0.03,-3.75,-6.04,-5.97,35.85,-51.92,10.27,-4.78,-37.09,11.29,-6.67,Left Fall while Sitting
39:36.3,641,576,864,787,424,1.41,707.85,2.07,20723.88,423,225,20723.83,213,429476992,0,0,0.79,0.58,0.03,-0.57,-2.34,-5.53,35.98,-51.81,10.27,-5.22,-37.57,11.3,-7.08,Left Fall while Sitting
39:36.4,502,573,859.5,787,424,1.41,707.85,2.07,20723.88,423,226,20723.83,213,429476992,4294952836,226,0.77,0.61,0.01,-3,-0.23,-0.33,37.47,-50.36,10.02,-5.45,-37.52,11.12,-7.24,Left Fall while Sitting
39:36.5,495,571,856.5,787,423,1.42,705,2.07,20723.88,423,226,20723.83,213,429476992,4294938376,452,0.81,0.6,0.04,-2.73,-0.48,-0.45,35.96,-51.8,9.8,-5.7,-37.49,10.85,-7.54,Left Fall while Sitting
39:36.6,461,567,850.5,787,423,1.42,705,2.07,20723.88,423,225,20723.83,213,429476992,4294923465,677,0.79,0.6,0.03,-3.11,0.4,-2.96,36.78,-51.02,9.54,-5.86,-37.71,10.63,-7.67,Left Fall while Sitting
39:36.7,445,563,844.5,787,423,1.42,705,2.07,20723.88,423,224,20723.83,213,429476992,4294908105,901,0.8,0.61,0.05,-0.98,3.5,0.15,36.57,-51.13,9.49,-5.71,-37.61,10.58,-7.53,Left Fall while Sitting
39:36.8,457,560,840,787,423,1.42,705,2.07,20723.88,423,221,20723.83,213,429476992,4294891410,1122,0.78,0.6,0.04,-3.18,0.67,1.29,36.79,-50.96,9.23,-5.84,-37.4,10.33,-7.65,Left Fall while Sitting
39:36.9,428,556,834,787,423,1.42,705,2.07,20723.88,423,216,20723.83,213,429476992,4294872530,1338,0.76,0.58,0.05,-3.44,-3.99,8.04,36.96,-50.75,8.93,-6.46,-36.49,10.05,-8.23,Left Fall while Sitting
39:37.0,508,555,832.5,787,423,1.42,705,2.07,20723.88,423,214,20723.83,213,429476992,4294852790,1552,0.78,0.59,0.03,-4.24,3.2,15.85,36.55,-51.22,8.56,-6.34,-34.81,9.68,-8.14,Left Fall while Sitting
39:37.1,575,556,834,787,423,1.42,705,2.07,20723.88,423,219,20723.83,213,429476992,4294835215,1771,0.82,0.54,0.06,-3.89,2.08,7.32,32.65,-54.93,8.22,-6.33,-33.99,9.2,-8.28,Left Fall while Sitting
39:37.2,482,554,831,787,423,1.42,705,2.07,20723.88,423,214,20723.83,213,429476992,4294815475,1985,0.88,0.55,0.01,2.11,-0.8,5.16,31.74,-56.09,8.49,-6.62,-33.39,9.42,-8.59,Left Fall while Sitting
39:37.3,531,553,829.5,787,423,1.42,705,2.07,20723.88,423,204,20723.88,218,429479168,0,0,0.84,0.53,0.01,-0.49,0.91,1.94,31.48,-56.35,8.5,-6.72,-33.11,9.42,-8.71,Left Fall while Sitting
39:37.4,532,553,829.5,787,423,1.42,705,2.07,20723.88,423,195,20723.88,218,429479168,4294939785,195,0.87,0.54,0.02,-3.53,0.66,2.77,31.07,-56.75,8.2,-6.86,-32.75,9.11,-8.86,Left Fall while Sitting
39:37.5,567,553,829.5,787,423,1.42,705,2.07,20723.88,423,188,20723.88,218,429479168,4294909593,383,0.85,0.53,0.02,-1.79,0.19,1.69,31.62,-56.19,8.07,-7.04,-32.5,9.01,-9.01,Left Fall while Sitting
39:37.6,418,550,825,787,424,1.41,707.85,2.07,20723.88,423,186,20723.88,218,429479168,4294878653,569,0.83,0.53,0.01,-2.31,0.48,7.89,31.75,-56.08,7.9,-7.2,-31.62,8.85,-9.15,Left Fall while Sitting
39:37.7,460,548,822,787,424,1.41,707.85,2.07,20723.88,423,191,20723.88,218,429479168,4294849598,760,0.84,0.5,0,-8.92,-0.73,15.37,30.26,-57.58,7.04,-7.47,-29.98,7.97,-9.48,Left Fall while Sitting
39:37.8,402,544,816,787,424,1.41,707.85,2.07,20723.88,423,193,20723.88,218,429479168,4294821311,953,0.85,0.49,0.07,-15.63,1.59,25.79,29.16,-58.35,5.51,-7.52,-27.26,6.45,-9.55,Left Fall while Sitting
39:37.9,250,538,807,787,423,1.42,705,2.07,20723.88,423,194,20723.88,218,429479168,4294793411,1147,0.91,0.42,0.04,-12.61,6.72,28.36,24.2,-63.5,4.28,-7.03,-24.29,5.07,-9.29,Left Fall while Sitting
39:38.0,35,527,790.5,787,423,1.42,705,2.07,20723.88,423,195,20723.88,218,429479168,4294765900,1342,0.92,0.37,0.09,-19.43,0.53,26.14,21.28,-65.93,2.37,-7.18,-21.57,3.13,-9.53,Left Fall while Sitting
39:38.1,71,517,775.5,787,423,1.42,705,2.07,20723.88,423,197,20723.88,218,429479168,4294739173,1539,0.89,0.35,0.08,-10.75,2.42,20.97,20.63,-66.61,1.33,-7.14,-19.35,2.1,-9.52,Left Fall while Sitting
39:38.2,135,509,763.5,787,423,1.42,705,2.07,20723.88,423,196,20723.88,218,429479168,4294712053,1735,0.94,0.29,0.05,-20.6,-10.44,32.73,16.26,-71.35,-0.71,-8.41,-15.93,-0.03,-10.93,Left Fall while Sitting
39:38.3,209,503,754.5,787,423,1.42,705,2.07,20723.88,423,200,20723.63,193,429468640,0,0,1.04,0.23,0.13,-15.25,-2.55,20.98,11.62,-74.27,-2.2,-8.87,-13.73,-1.64,-11.48,Left Fall while Sitting
39:38.4,356,500,750,787,423,1.42,705,2.07,20723.88,423,204,20723.63,193,429468640,4294943376,204,0.92,0.24,0.1,-8.84,-23.02,21.86,14,-72.52,-3.03,-11.4,-11.45,-2.35,-13.84,Left Fall while Sitting
39:38.5,480,500,750,787,424,1.41,707.85,2.07,20723.88,423,203,20723.63,193,429468640,4294919049,407,0.99,0.15,0.03,-1.21,-8.76,34.54,7.9,-79.72,-3.1,-12.52,-7.77,-2.66,-15.2,Left Fall while Sitting
39:38.6,620,502,753,787,424,1.41,707.85,2.07,20723.88,423,205,20723.63,193,429468640,4294895538,612,1.07,0.07,-0.03,-0.74,-3.89,24.76,3.17,-84.42,-3.12,-13.11,-5.19,-2.87,-15.96,Left Fall while Sitting
39:38.7,614,504,756,787,424,1.41,707.85,2.07,20723.88,423,206,20723.63,193,429468640,4294872438,818,1.05,0.02,-0.01,-0.9,5.58,16.66,0.56,-87.19,-3.15,-12.74,-3.39,-3,-15.72,Left Fall while Sitting
39:38.8,510,504,756,787,423,1.42,705,2.07,20723.88,423,208,20723.63,193,429468640,4294850166,1026,1.02,0.03,-0.02,-4.34,10.63,12.82,1.01,-86.57,-3.54,-11.86,-2.01,-3.36,-14.85,Left Fall while Sitting
39:38.9,602,506,759,787,423,1.42,705,2.07,20723.88,423,209,20723.63,193,429468640,4294828311,1235,0.98,0,0.04,-11.82,11.31,19.73,-0.51,-85.81,-4.69,-10.91,0.09,-4.52,-13.91,Left Fall while Sitting
39:39.0,576,507,760.5,787,423,1.42,705,2.07,20723.88,423,209,20723.63,193,429468640,4294806456,1444,1.06,-0.03,0.11,-7.75,6.37,15.89,-2.24,-82.31,-5.43,-10.46,1.81,-5.3,-13.33,Left Fall while Sitting
39:39.1,607,509,763.5,787,423,1.42,705,2.07,20723.88,423,210,20723.63,193,429468640,4294785020,1654,1.05,-0.08,0.1,-4.52,-3.21,4.9,-5.11,-81.43,-5.83,-10.99,2.38,-5.8,-13.8,Left Fall while Sitting
39:39.2,605,510,765,787,423,1.42,705,2.07,20723.88,423,210,20723.63,193,429468640,4294763584,1864,1.02,-0.11,0.05,1.43,7.34,-3.92,-6.68,-81.73,-5.62,-10.44,2.06,-5.66,-13.29,Left Fall while Sitting
39:39.3,584,512,768,787,423,1.42,705,2.07,20723.88,423,214,20723.76,207,429474368,0,0,1.04,-0.07,0.06,-3.5,0.44,-5.97,-4.69,-83.2,-5.92,-10.59,1.54,-5.87,-13.5,Left Fall while Sitting
39:39.4,608,513,769.5,787,424,1.41,707.85,2.07,20723.88,423,214,20723.76,207,429474368,4294947556,214,1.01,-0.06,0.05,-2.2,8.96,-8.95,-3.77,-84.15,-6.08,-9.89,0.72,-5.99,-12.86,Left Fall while Sitting
39:39.5,621,515,772.5,787,423,1.42,705,2.07,20723.88,423,215,20723.76,207,429474368,4294928245,429,1.02,-0.06,0.09,-3.7,8.01,-7.87,-3.9,-82.2,-6.41,-9.27,-0.01,-6.3,-12.19,Left Fall while Sitting
39:39.6,551,516,774,787,424,1.41,707.85,2.07,20723.88,423,216,20723.76,207,429474368,4294909365,645,1,-0.01,0.11,-2.53,12.18,-8.08,-1.21,-82.29,-6.6,-8.24,-0.75,-6.39,-11.2,Left Fall while Sitting
39:39.7,598,517,775.5,787,423,1.42,705,2.07,20723.88,423,217,20723.76,207,429474368,4294890918,862,0.99,0,0.12,-5.13,4.32,-4.17,-0.85,-81.36,-7.07,-8,-1.1,-6.83,-10.94,Left Fall while Sitting
39:39.8,632,519,778.5,787,424,1.41,707.85,2.07,20723.88,423,218,20723.76,207,429474368,4294872906,1080,1,0,0.13,-0.72,1.21,-2.05,-0.73,-81.17,-7.09,-8.08,-1.23,-6.84,-11.01,Left Fall while Sitting
39:39.9,579,520,780,787,424,1.41,707.85,2.07,20723.88,423,219,20723.76,207,429474368,4294855331,1299,1,-0.01,0.12,-0.11,-5.92,0.89,-1.08,-81.38,-7.05,-8.89,-1.06,-6.81,-11.79,Left Fall while Sitting
39:40.0,445,519,778.5,787,423,1.42,705,2.07,20723.88,423,219,20723.76,207,429474368,4294837756,1518,1,-0.03,0.11,1.76,-5.01,-0.24,-2.52,-81.83,-6.81,-9.61,-1,-6.64,-12.5,Left Fall while Sitting
39:40.2,501,518,777,787,423,1.42,705,2.07,20723.88,423,219,20723.76,207,429474368,4294820181,1737,1.02,-0.02,0.09,0.46,-4.34,-0.75,-1.52,-83.11,-6.71,-10.25,-1,-6.5,-13.17,Left Fall while Sitting
39:40.3,571,519,778.5,787,423,1.42,705,2.07,20723.88,423,220,20723.76,207,429474368,4294803045,1957,1.01,-0.01,0.06,1.6,-1.05,-3.96,-1.26,-85.05,-6.48,-10.57,-1.32,-6.27,-13.55,Left Fall while Sitting
39:43.3,519,519,778.5,519,424,1.41,707.85,2.07,0,0,237,0,0,0,4294948562,474,1,0.03,0.13,-1.87,1.4,0.9,0.85,-81,0.1,0.06,-0.15,0.13,-3.19,Right Fall while Sitting
39:43.4,470,494,741,519,423,1.42,705,2.07,0,0,237,0,0,0,4294939195,711,1.02,0.02,0.1,-3.87,-4.81,3.72,0.51,-82.94,-0.22,-0.6,0.29,-0.19,-3.9,Right Fall while Sitting
39:43.5,393,460,690,519,423,1.42,705,2.07,0,0,237,0,0,0,4294929828,948,1,0,0.13,0.19,2.13,-0.06,-0.64,-81.12,-0.15,-0.59,0.36,-0.17,-3.81,Right Fall while Sitting
39:43.6,519,475,712.5,519,423,1.42,705,2.07,0,0,238,0,0,0,4294920936,1186,0.94,0.02,0.11,-7.55,3.73,8.21,0.72,-81.47,-0.83,-0.42,1.24,-0.77,-3.66,Right Fall while Sitting
39:43.7,339,448,672,519,423,1.42,705,2.07,0,0,226,0,0,0,4294906476,1412,0.94,-0.03,0.22,-11.79,24,23.18,-2.47,-74.99,-1.94,1.76,3.62,-1.96,-1.31,Right Fall while Sitting
39:43.8,353,432,648,519,423,1.42,705,2.07,0,0,262,0,0,0,4294909584,1674,0.99,-0.07,0.28,-12.64,-8.56,25.17,-4.71,-72.28,-3.13,0.72,6.16,-3.19,-2.2,Right Fall while Sitting
39:43.9,357,421,631.5,519,423,1.42,705,2.07,0,0,270,0,0,0,4294916948,1944,1.03,-0.11,0.07,-1.75,-2.83,30.98,-6.95,-81.05,-3.24,0.25,9.27,-3.39,-3,Right Fall while Sitting
39:43.9,550,437,655.5,550,424,1.41,707.85,2.07,0,0,271,0,0,0,4294924853,2215,0.98,-0.19,0.08,-6.63,9.58,35.85,-11.44,-76.61,-3.84,1,12.9,-4.15,-2.11,Right Fall while Sitting
39:44.0,631,459,688.5,631,424,1.41,707.85,2.07,20723.89,423,274,20724.22,248,429493440,0,0,0.97,-0.29,0.18,-5.75,9.81,29,-17.23,-68.91,-4.36,1.78,15.88,-4.88,-1.05,Right Fall while Sitting
39:44.1,669,480,720,669,424,1.41,707.85,2.07,20723.89,423,270,20724.22,248,429493440,7364,270,0.96,-0.3,0.15,2.8,-4.14,17,-17.73,-69.05,-4.03,1.16,17.66,-4.57,-1.64,Right Fall while Sitting
39:44.2,590,490,735,669,424,1.41,707.85,2.07,20723.89,423,268,20724.22,248,429493440,13652,538,0.93,-0.33,0.1,-2.45,3.07,25.79,-20.08,-68.04,-4.22,1.27,20.37,-4.85,-1.5,Right Fall while Sitting
39:44.4,566,496,744,669,423,1.42,705,2.07,20723.89,423,265,20724.22,248,429493440,18341,803,0.92,-0.39,0.14,-6.37,7.34,31.01,-23.31,-64.24,-4.81,1.81,23.58,-5.55,-0.83,Right Fall while Sitting
39:44.5,568,501,751.5,669,424,1.41,707.85,2.07,20723.89,423,265,20724.22,248,429493440,23030,1068,0.92,-0.44,0.09,1.95,0.99,29.55,-26.07,-62.33,-4.56,1.71,26.62,-5.42,-0.85,Right Fall while Sitting
39:44.6,570,506,759,669,424,1.41,707.85,2.07,20723.89,423,267,20724.22,248,429493440,28783,1335,0.87,-0.5,0.17,-2.85,-3.11,31.73,-30.16,-57.05,-4.79,1.19,29.93,-5.8,-1.14,Right Fall while Sitting
39:44.7,502,506,759,669,423,1.42,705,2.07,20723.89,423,264,20724.22,248,429493440,32943,1599,0.87,-0.53,0.12,-4.6,4.44,33.68,-31.78,-56.38,-5.2,1.44,33.41,-6.26,-0.87,Right Fall while Sitting
39:44.8,543,508,762,669,423,1.42,705,2.07,20723.89,423,264,20724.22,248,429493440,37103,1863,0.84,-0.61,0.17,-0.85,-3.32,23.11,-36.05,-51.33,-5.23,0.9,35.85,-6.46,-1.19,Right Fall while Sitting
39:44.9,507,508,762,669,423,1.42,705,2.07,20723.89,423,258,20724.22,248,429493440,38131,2121,0.83,-0.61,0.09,1.85,-8.26,15.43,-36.82,-51.75,-4.98,-0.14,37.49,-6.26,-2.21,Right Fall while Sitting
39:45.0,388,501,751.5,669,423,1.42,705,2.07,20723.89,423,242,20724.22,248,429493440,31159,2363,0.79,-0.62,0.08,-7.2,-12.5,14.37,-38.69,-49.94,-5.65,-1.61,39.02,-6.98,-3.54,Right Fall while Sitting
39:45.1,267,489,733.5,669,422,1.42,702.16,2.06,20723.88,423,241,48.68,260,2369,0,0,0.74,-0.66,0.16,-7.05,-14.99,16.63,-41.55,-45.97,-6.3,-3.29,40.75,-7.71,-5,Right Fall while Sitting
39:45.2,329,481,721.5,669,421,1.43,699.34,2.06,20723.88,423,246,48.68,260,2369,4294962276,246,0.76,-0.65,0.02,-1.77,-13.24,16.97,-40.9,-48.08,-6.42,-4.83,42.54,-7.8,-6.56,Right Fall while Sitting
39:45.3,608,487,730.5,669,422,1.42,702.16,2.06,20723.88,423,252,48.68,260,2369,4294960244,498,0.74,-0.69,0.07,-4.08,-9.71,14.34,-43.51,-45.25,-6.77,-6.01,44.07,-8.24,-7.58,Right Fall while Sitting
39:45.4,565,491,736.5,669,422,1.42,702.16,2.06,20723.88,423,255,48.68,260,2369,4294959733,753,0.73,-0.73,0.04,-0.77,-5.4,14.59,-45.51,-43.39,-6.8,-6.76,45.62,-8.34,-8.22,Right Fall while Sitting
39:45.5,614,496,744,669,422,1.42,702.16,2.06,20723.88,423,256,48.68,260,2369,4294959733,1009,0.72,-0.74,0.03,-2.05,-3.3,11.37,-46.25,-42.71,-6.95,-7.29,46.85,-8.52,-8.71,Right Fall while Sitting
39:45.6,564,499,748.5,669,422,1.42,702.16,2.06,20723.88,423,256,48.68,260,2369,4294959733,1265,0.72,-0.74,0.05,-1.35,-4.08,3.37,-46.11,-42.73,-7.02,-7.9,47.27,-8.59,-9.29,Right Fall while Sitting
39:45.7,557,501,751.5,669,422,1.42,702.16,2.06,20723.88,423,255,48.68,260,2369,4294959222,1520,0.7,-0.75,0.02,3.55,-0.69,0.34,-47.37,-41.6,-6.61,-8.17,47.38,-8.24,-9.51,Right Fall while Sitting
39:45.8,549,503,754.5,669,422,1.42,702.16,2.06,20723.88,423,254,48.68,260,2369,4294958202,1774,0.69,-0.77,0.03,2.89,-2.26,2.82,-48.56,-40.38,-6.26,-8.6,47.74,-7.95,-9.87,Right Fall while Sitting
39:45.9,491,502,753,669,422,1.42,702.16,2.06,20723.88,423,255,48.68,260,2369,4294957691,2029,0.7,-0.76,0.03,-1.24,-0.66,-1.09,-48.01,-40.95,-6.33,-8.87,47.71,-8,-10.15,Right Fall while Sitting
39:46.0,543,504,756,669,423,1.42,705,2.07,20723.88,423,257,48.68,260,2369,4294958204,2286,0.7,-0.77,0.02,-1.62,0.55,-2.02,-48.14,-40.84,-6.44,-9.02,47.59,-8.1,-10.29,Right Fall while Sitting
39:46.1,486,503,754.5,669,423,1.42,705,2.07,20723.86,422,253,20724.28,253,429495680,0,0,0.7,-0.76,0.03,-2.97,1.49,-0.65,-47.67,-41.28,-6.68,-9.07,47.6,-8.32,-10.35,Right Fall while Sitting
39:46.2,618,507,760.5,669,423,1.42,705,2.07,20723.86,422,256,20724.28,253,429495680,0,256,0.7,-0.77,0.05,-1.81,-0.25,-0.95,-48.19,-40.7,-6.8,-9.29,47.59,-8.46,-10.55,Right Fall while Sitting
39:46.3,552,508,762,669,423,1.42,705,2.07,20723.86,422,255,20724.28,253,429495680,4294966785,511,0.7,-0.75,0.03,-2.85,-0.56,-5.34,-47.28,-41.68,-7.04,-9.55,47.12,-8.65,-10.84,Right Fall while Sitting
39:46.4,526,509,763.5,669,423,1.42,705,2.07,20723.86,422,256,20724.28,253,429495680,4294966785,767,0.69,-0.74,0.02,-1.13,-0.5,-2.82,-47.37,-41.6,-7.09,-9.81,46.91,-8.71,-11.08,Right Fall while Sitting
39:46.5,476,508,762,669,423,1.42,705,2.07,20723.86,422,256,20724.28,253,429495680,4294966785,1023,0.7,-0.76,0.02,-1.53,0.04,-2.46,-47.69,-41.28,-7.19,-10.01,46.74,-8.81,-11.26,Right Fall while Sitting
39:46.6,365,504,756,669,422,1.42,702.16,2.06,20723.86,422,261,20724.28,253,429495680,2074,1284,0.71,-0.76,0.02,-1.47,0.75,-4.89,-47.44,-41.54,-7.29,-10.14,46.33,-8.89,-11.39,Right Fall while Sitting
39:46.7,162,494,741,669,422,1.42,702.16,2.06,20723.86,422,255,20724.28,253,429495680,1563,1539,0.74,-0.73,0.01,-3.16,2.43,-8.31,-45.31,-43.68,-7.55,-10.09,45.55,-9.06,-11.44,Right Fall while Sitting
39:46.8,0,480,720,669,422,1.42,702.16,2.06,20723.86,422,237,20724.28,253,429495680,4294959492,1776,0.76,-0.73,0.04,2.01,6.4,-21.29,-44.29,-44.62,-7.29,-9.65,43.48,-8.77,-11.05,Right Fall while Sitting
39:46.9,0,467,700.5,669,422,1.42,702.16,2.06,20723.86,422,254,20724.28,253,429495680,4294958472,2030,0.81,-0.67,0.03,1.63,7.74,-34.05,-40.11,-48.85,-7.07,-9.06,40.09,-8.39,-10.65,Right Fall while Sitting
39:47.0,0,455,682.5,669,422,1.42,702.16,2.06,20723.86,422,256,20724.28,253,429495680,4294958472,2286,0.82,-0.65,0.01,-1.59,8.11,-36.08,-38.69,-50.3,-7.18,-8.43,36.46,-8.44,-10.11,Right Fall while Sitting
39:47.1,0,443,664.5,669,423,1.42,705,2.07,20723.87,422,256,20724.28,254,429495840,0,0,0.83,-0.59,0.13,5.91,7.79,-33.5,-35.45,-52.59,-6.54,-7.86,33.22,-7.69,-9.65,Right Fall while Sitting
39:47.2,0,432,648,669,423,1.42,705,2.07,20723.87,422,257,20724.28,254,429495840,513,257,0.87,-0.52,0.04,2.59,3.14,-36.6,-31.68,-57.22,-6.22,-7.75,29.64,-7.24,-9.73,Right Fall while Sitting
39:47.3,0,422,633,669,423,1.42,705,2.07,20723.87,422,257,20724.28,254,429495840,1026,514,0.92,-0.48,0.09,0.15,4.47,-38.28,-28.11,-60.35,-6.15,-7.5,25.81,-7.03,-9.61,Right Fall while Sitting
39:47.4,0,412,618,669,423,1.42,705,2.07,20723.87,422,258,20724.28,254,429495840,2054,772,0.92,-0.42,0.11,-1.01,2.5,-40.77,-24.83,-63.32,-6.19,-7.45,21.81,-6.94,-9.68,Right Fall while Sitting
39:47.5,0,402,603,669,423,1.42,705,2.07,20723.87,422,258,20724.28,254,429495840,3082,1030,0.96,-0.35,0.08,-0.67,-2.02,-44.59,-20.69,-67.71,-6.21,-7.86,17.35,-6.79,-10.25,Right Fall while Sitting
39:47.6,117,395,592.5,669,423,1.42,705,2.07,20723.87,422,257,20724.28,254,429495840,3595,1287,0.97,-0.3,0.14,1.57,4.95,-42.96,-17.66,-69.42,-5.99,-7.56,13.09,-6.46,-10.03,Right Fall while Sitting
39:47.7,722,403,604.5,722,424,1.41,707.85,2.07,20723.87,422,258,20724.28,254,429495840,4623,1545,0.99,-0.2,0.09,3.55,9.53,-35.29,-12.22,-75.66,-5.58,-6.8,9.6,-5.84,-9.55,Right Fall while Sitting
39:47.8,953,415,622.5,953,424,1.41,707.85,2.07,20723.87,422,259,20724.28,254,429495840,6168,1804,1.01,-0.17,0.11,2.91,4.44,-33.12,-10.28,-76.88,-5.23,-6.55,6.34,-5.43,-9.37,Right Fall while Sitting
39:47.9,1001,427,640.5,1001,424,1.41,707.85,2.07,20723.87,422,262,20724.28,254,429495840,9276,2066,0.95,-0.1,0.11,1.12,-8.79,-16.95,-6.29,-79.66,-5.06,-7.64,4.71,-5.1,-10.52,Right Fall while Sitting
39:48.0,1001,439,658.5,1001,424,1.41,707.85,2.07,20723.87,422,261,20724.28,254,429495840,11861,2327,1.02,-0.1,0.1,-5.37,-15.92,-12.15,-5.97,-80.49,-5.55,-9.47,3.55,-5.56,-12.31,Right Fall while Sitting
39:48.1,1001,451,676.5,1001,423,1.42,705,2.07,20723.89,423,260,37.31,258,1391,0,0,1.13,-0.06,0.05,-1.37,7.6,-23.02,-3.45,-84.53,-5.63,-8.91,1.32,-5.54,-11.93,Right Fall while Sitting
39:48.2,1001,462,693,1001,424,1.41,707.85,2.07,20723.89,423,260,37.31,258,1391,2064,260,0.94,-0.01,-0.01,-13.57,-4.76,-26.64,-1.27,-87.58,-6.92,-9.58,-1.23,-6.69,-12.7,Right Fall while Sitting
39:48.3,1001,472,708,1001,424,1.41,707.85,2.07,20723.89,423,261,37.31,258,1391,4649,521,0.93,0.05,0.05,-13.87,-12.02,-7.82,2.67,-83.76,-8.27,-11.01,-1.95,-7.84,-13.92,Right Fall while Sitting
39:48.4,999,482,723,1001,424,1.41,707.85,2.07,20723.89,423,259,37.31,258,1391,6194,780,1.05,0.06,0.18,-6.82,7.01,1.8,2.49,-78.4,-8.89,-10.51,-1.7,-8.44,-13.23,Right Fall while Sitting
39:48.5,996,492,738,1001,424,1.41,707.85,2.07,20723.89,423,253,37.31,258,1391,4667,1033,1,-0.02,0.07,-4.47,11.77,1.16,-1.51,-84.46,-9.28,-9.54,-1.5,-8.97,-12.53,Right Fall while Sitting
39:48.6,957,501,751.5,1001,424,1.41,707.85,2.07,20723.89,423,257,37.31,258,1391,5180,1290,1.03,0.02,0.07,-6.5,-8.94,6.12,0.36,-84.53,-9.88,-10.63,-0.81,-9.47,-13.59,Right Fall while Sitting
39:48.7,980,509,763.5,1001,424,1.41,707.85,2.07,20723.89,423,258,37.31,258,1391,6208,1548,1.02,0,0.08,2.59,-1.6,-0.47,-0.55,-84.22,-9.56,-10.99,-0.78,-9.2,-13.92,Right Fall while Sitting
39:48.8,876,516,774,1001,424,1.41,707.85,2.07,20723.89,423,255,37.31,258,1391,5697,1803,1.01,-0.02,0.05,-2.53,-8.97,-0.11,-1.48,-85.4,-9.76,-12.08,-0.71,-9.43,-15.01,Right Fall while Sitting
39:48.9,909,523,784.5,1001,424,1.41,707.85,2.07,20723.89,423,263,37.31,258,1391,9330,2066,1.03,0.01,0.02,-5.29,-7.19,-1.76,-0.19,-87.1,-10.24,-13.01,-0.81,-9.83,-15.97,Right Fall while Sitting
39:49.0,793,527,790.5,1001,423,1.42,705,2.07,20723.89,423,263,37.31,258,1391,12963,2329,1.01,0,0,0.56,3.85,-4.44,-0.33,-88.09,-10.12,-12.82,-1.17,-9.73,-15.83,Right Fall while Sitting
39:49.1,687,530,795,1001,424,1.41,707.85,2.07,20723.9,423,262,40.09,259,1606,0,0,1,0,0.03,-2.81,5.19,-1.11,-0.38,-86.73,-10.35,-12.5,-1.2,-9.95,-15.47,Right Fall while Sitting
39:49.2,433,528,792,1001,424,1.41,707.85,2.07,20723.9,423,263,40.09,259,1606,3633,263,1.01,0.02,0.06,-1.56,5.33,0.66,0.58,-84.64,-10.45,-12.17,-1.06,-10.01,-15.07,Right Fall while Sitting
39:49.3,798,533,799.5,1001,424,1.41,707.85,2.07,20723.9,423,264,40.09,259,1606,7793,527,1,0,0.06,-0.37,-3.09,2.37,-0.66,-85.21,-10.43,-12.67,-0.74,-10.04,-15.57,Right Fall while Sitting
39:49.4,993,540,810,1001,424,1.41,707.85,2.07,20723.9,423,263,40.09,259,1606,11426,790,1.04,0,0.04,0.87,-9.16,0.32,-0.47,-86,-10.29,-13.79,-0.63,-9.89,-16.68,Right Fall while Sitting
39:49.5,1001,548,822,1001,424,1.41,707.85,2.07,20723.9,423,263,40.09,259,1606,15059,1053,1,-0.01,-0.01,6.92,-0.25,-1.63,-1,-87.9,-9.53,-14.02,-0.72,-9.19,-16.97,Right Fall while Sitting
39:49.6,1001,555,832.5,1001,424,1.41,707.85,2.07,20723.9,423,257,40.09,259,1606,15572,1310,1.02,-0.01,-0.02,-1.08,-3.82,2.95,-1.05,-87.06,-9.58,-14.6,-0.34,-9.24,-17.5,Right Fall while Sitting
39:49.7,1001,561,841.5,1001,424,1.41,707.85,2.07,20723.9,423,256,40.09,259,1606,15572,1566,1.02,-0.01,0,-6.9,-7.47,-0.12,-1.25,-87.75,-10.22,-15.55,-0.27,-9.86,-18.44,Right Fall while Sitting
39:54.0,789,789,1183.5,789,423,1.42,705,2.07,0,0,220,0,0,0,4294935249,445,0.98,-0.12,-0.29,3.71,-3.59,0.36,-7.08,-70.88,0.72,-2.59,0.48,0.41,-5.32,Forward Fall while Sitting
39:54.1,589,689,1033.5,789,423,1.42,705,2.07,0,0,227,0,0,0,4294921242,672,0.99,-0.13,-0.32,2.99,-2.18,0.33,-7.82,-69.27,1.07,-3,0.59,0.71,-5.65,Forward Fall while Sitting
39:54.2,555,644,966,789,423,1.42,705,2.07,0,0,223,0,0,0,4294905435,895,1,-0.12,-0.34,-2.53,-22.07,1.53,-7.32,-68.5,0.87,-5.36,0.82,0.55,-7.88,Forward Fall while Sitting
39:54.3,465,599,898.5,789,422,1.42,702.16,2.06,0,0,221,0,0,0,4294888740,1116,0.95,-0.13,-0.39,1.23,-30.49,3.61,-7.9,-65.28,1.05,-8.57,1.25,0.69,-10.84,Forward Fall while Sitting
39:54.4,440,567,850.5,789,421,1.43,699.34,2.06,0,0,233,0,0,0,4294877493,1349,0.85,-0.18,-0.32,7,-5.46,3.11,-11.84,-65.01,1.79,-9.3,1.64,1.25,-11.53,Forward Fall while Sitting
39:54.5,388,537,805.5,789,421,1.43,699.34,2.06,0,0,228,0,0,0,4294863941,1577,0.98,-0.14,-0.47,0.31,-24.79,8.11,-8.07,-61.81,1.88,-11.93,2.51,1.48,-13.92,Forward Fall while Sitting
39:54.6,841,581,871.5,841,422,1.42,702.16,2.06,0,0,235,0,0,0,4294853630,1812,0.91,-0.15,-0.5,-0.8,-32.39,9.57,-9.06,-58.74,1.85,-15.3,3.52,1.42,-17.04,Forward Fall while Sitting
39:54.7,805,609,913.5,841,423,1.42,705,2.07,0,0,236,0,0,0,4294843790,2048,0.85,-0.19,-0.54,1,-25.74,6.6,-11.37,-54.53,2.01,-18.07,4.26,1.47,-19.53,Forward Fall while Sitting
39:54.8,674,616,924,841,423,1.42,705,2.07,20723.86,422,236,20723.98,228,429483392,0,0,0.83,-0.21,-0.55,1.35,-28.52,7.44,-12.63,-52.82,2.2,-21.1,5.08,1.61,-22.36,Forward Fall while Sitting
39:54.9,641,618,927,841,423,1.42,705,2.07,20723.86,422,240,20723.98,228,429483392,4294959360,240,0.83,-0.21,-0.6,3.34,-29.58,6.08,-12.31,-50.84,2.6,-24.32,5.78,2,-25.38,Forward Fall while Sitting
39:55.0,638,620,930,841,423,1.42,705,2.07,20723.86,422,238,20723.98,228,429483392,4294950468,478,0.8,-0.24,-0.67,-1.98,-27.74,5.11,-13.61,-46.77,2.45,-27.38,6.39,1.81,-28.16,Forward Fall while Sitting
39:55.1,619,620,930,841,423,1.42,705,2.07,20723.86,422,237,20723.98,228,429483392,4294941101,715,0.65,-0.24,-0.6,-1.38,-20.35,3.43,-15.65,-43.5,2.37,-29.64,6.81,1.65,-30.19,Forward Fall while Sitting
39:55.2,921,643,964.5,921,423,1.42,705,2.07,20723.86,422,236,20723.98,228,429483392,4294931261,951,0.78,-0.23,-0.73,-6.33,-11.87,2.34,-12.75,-44.02,1.77,-31.07,7.13,1.19,-31.58,Forward Fall while Sitting
39:55.3,602,640,960,921,423,1.42,705,2.07,20723.86,422,239,20723.98,228,429483392,4294922846,1190,0.75,-0.25,-0.74,-4.6,-21.34,2.95,-13.8,-42.52,1.36,-33.45,7.51,0.76,-33.81,Forward Fall while Sitting
39:55.4,621,639,958.5,921,422,1.42,702.16,2.06,20723.86,422,239,20723.98,228,429483392,4294914431,1429,0.66,-0.24,-0.76,-0.71,-19.36,5.56,-13.97,-38.13,1.35,-35.62,8.16,0.73,-35.72,Forward Fall while Sitting
39:55.5,399,624,936,921,422,1.42,702.16,2.06,20723.86,422,244,20723.98,228,429483392,4294908431,1673,0.71,-0.25,-0.84,0.41,-18.74,4.25,-13.38,-37.57,1.45,-37.76,8.68,0.85,-37.75,Forward Fall while Sitting
39:55.6,517,617,925.5,921,422,1.42,702.16,2.06,20723.86,422,245,20723.98,228,429483392,4294902920,1918,0.62,-0.27,-0.84,0.88,-20.49,2.56,-14.93,-33.54,1.59,-40.05,9.02,0.93,-39.79,Forward Fall while Sitting
39:55.7,529,612,918,921,423,1.42,705,2.07,20723.86,422,215,20723.98,228,429483392,4294883609,2133,0.59,-0.28,-0.87,-3.09,-21.24,4.55,-15.38,-31.34,1.33,-42.45,9.57,0.66,-42,Forward Fall while Sitting
39:55.8,345,598,897,921,422,1.42,702.16,2.06,20723.87,422,213,20724.05,234,429486336,0,0,0.61,-0.26,-0.87,-3.58,-18.6,0.05,-14.39,-31.98,1.03,-44.49,9.66,0.42,-43.99,Forward Fall while Sitting
39:55.9,352,586,879,921,423,1.42,705,2.07,20723.87,422,242,20724.05,234,429486336,4294960324,242,0.56,-0.28,-0.87,-5.24,-12.75,3.33,-15.89,-29.83,0.56,-45.99,10.08,-0.1,-45.34,Forward Fall while Sitting
39:56.0,520,583,874.5,921,423,1.42,705,2.07,20723.87,422,236,20724.05,234,429486336,4294950484,478,0.54,-0.28,-0.89,-5.76,-11.17,1.82,-15.82,-28.63,0.02,-47.35,10.34,-0.61,-46.6,Forward Fall while Sitting
39:56.1,489,579,868.5,921,423,1.42,705,2.07,20723.87,422,223,20724.05,234,429486336,4294934677,701,0.53,-0.3,-0.88,-8.69,-16.16,1.34,-17,-27.85,-0.81,-49.2,10.56,-1.46,-48.35,Forward Fall while Sitting
39:56.2,357,569,853.5,921,422,1.42,702.16,2.06,20723.87,422,216,20724.05,234,429486336,4294915797,917,0.5,-0.26,-0.92,-7.56,-13.94,2.16,-14.49,-25.84,-1.54,-50.86,10.87,-2.05,-49.86,Forward Fall while Sitting
39:56.3,312,558,837,921,421,1.43,699.34,2.06,20723.87,422,211,20724.05,234,429486336,4294894782,1128,0.47,-0.26,-0.96,-4.94,-9.45,4.08,-14.19,-23.8,-1.98,-52.03,11.37,-2.47,-50.9,Forward Fall while Sitting
39:56.4,386,551,826.5,921,421,1.43,699.34,2.06,20723.87,422,211,20724.05,234,429486336,4294873767,1339,0.48,-0.27,-0.94,-0.85,-10.13,1.36,-15.15,-24.45,-2.01,-53.26,11.58,-2.54,-52.11,Forward Fall while Sitting
39:56.5,344,543,814.5,921,422,1.42,702.16,2.06,20723.87,422,212,20724.05,234,429486336,4294853175,1551,0.42,-0.27,-0.93,-2.48,-11.45,0.1,-15.61,-22.01,-2.21,-54.66,11.68,-2.75,-53.36,Forward Fall while Sitting
39:56.6,422,539,808.5,921,422,1.42,702.16,2.06,20723.87,422,213,20724.05,234,429486336,4294833008,1764,0.4,-0.29,-0.98,-3.59,-8.56,0.09,-16.06,-19.65,-2.52,-55.74,11.77,-3.06,-54.3,Forward Fall while Sitting
39:56.7,513,538,807,921,422,1.42,702.16,2.06,20723.87,422,216,20724.05,234,429486336,4294814128,1980,0.25,-0.25,-0.83,-5.56,-6.34,2.34,-16.9,-14.57,-3.04,-56.61,12.09,-3.6,-54.93,Forward Fall while Sitting
39:56.8,487,536,804,921,422,1.42,702.16,2.06,20723.86,422,216,20723.89,219,429479520,0,0,0.41,-0.26,-0.98,-3.38,-5.47,1.47,-14.46,-20.41,-3.32,-57.35,12.32,-3.77,-55.88,Forward Fall while Sitting
39:56.9,482,534,801,921,422,1.42,702.16,2.06,20723.86,422,214,20723.89,219,429479520,4294947556,214,0.4,-0.27,-0.99,-2.84,-7.9,-1.4,-14.66,-19.89,-3.56,-58.36,12.26,-4,-56.82,Forward Fall while Sitting
39:57.0,452,532,798,921,421,1.43,699.34,2.06,20723.86,422,214,20723.89,219,429479520,4294927816,428,0.29,-0.25,-0.94,-1.71,-3.45,-1.69,-15.07,-15.06,-3.68,-58.92,12.16,-4.13,-57.17,Forward Fall while Sitting
39:57.1,428,528,792,921,421,1.43,699.34,2.06,20723.86,422,213,20723.89,219,429479520,4294907649,641,0.39,-0.26,-1.01,-2.56,-4.15,-0.4,-14.07,-19.07,-3.88,-59.56,12.2,-4.29,-57.94,Forward Fall while Sitting
39:57.2,348,523,784.5,921,421,1.43,699.34,2.06,20723.86,422,212,20723.89,219,429479520,4294887057,853,0.36,-0.26,-0.97,-1.96,-4.47,-0.16,-14.83,-17.97,-4.03,-60.22,12.27,-4.46,-58.53,Forward Fall while Sitting
39:57.4,394,519,778.5,921,421,1.43,699.34,2.06,20723.86,422,215,20723.89,219,429479520,4294867746,1068,0.37,-0.27,-1.02,-1.56,-3.44,1.6,-14.78,-17.63,-4.13,-60.78,12.51,-4.55,-59.05,Forward Fall while Sitting
39:57.5,450,517,775.5,921,422,1.42,702.16,2.06,20723.86,422,216,20723.89,219,429479520,4294848866,1284,0.35,-0.26,-1.01,-2.8,-3.62,-0.15,-14.48,-16.85,-4.36,-61.36,12.58,-4.76,-59.58,Forward Fall while Sitting
39:57.6,547,518,777,921,422,1.42,702.16,2.06,20723.86,422,217,20723.89,219,429479520,4294830419,1501,0.33,-0.27,-1,-0.78,-3.53,-0.99,-14.95,-16.13,-4.38,-61.93,12.56,-4.8,-60.1,Forward Fall while Sitting
39:57.7,580,520,780,921,422,1.42,702.16,2.06,20723.86,422,219,20723.89,219,429479520,4294812844,1720,0.32,-0.27,-1,-2.98,-4.08,0.15,-15.11,-15.78,-4.63,-62.55,12.65,-5.05,-60.68,Forward Fall while Sitting
39:57.8,494,519,778.5,921,421,1.43,699.34,2.06,20723.86,422,219,20723.89,219,429479520,4294795269,1939,0.33,-0.27,-1,-0.64,4.63,-0.91,-14.94,-16.32,-4.64,-62.27,12.64,-5.05,-60.44,Forward Fall while Sitting
39:57.9,487,518,777,921,421,1.43,699.34,2.06,20723.84,421,217,20723.84,215,429477696,0,0,0.39,-0.29,-1.05,1.42,32.41,-9.08,-15.26,-18.24,-4.44,-59.23,11.81,-4.87,-57.59,Forward Fall while Sitting
39:58.0,476,517,775.5,921,421,1.43,699.34,2.06,20723.84,421,229,20723.84,215,429477696,4294954201,229,0.47,-0.27,-1.05,-9.57,42.39,-13.69,-13.59,-21.81,-5.36,-55.11,10.5,-5.69,-53.78,Forward Fall while Sitting
39:58.1,379,514,771,921,420,1.44,696.52,2.05,20723.84,421,225,20723.84,215,429477696,4294939290,454,0.43,-0.23,-0.89,-2.56,37.28,-10.16,-13.63,-23.48,-5.57,-51.44,9.52,-5.89,-50.33,Forward Fall while Sitting
39:58.2,314,509,763.5,921,420,1.44,696.52,2.05,20723.84,421,224,20723.84,215,429477696,4294923930,678,0.56,-0.25,-0.94,5.44,46.73,-4.98,-13.34,-28.21,-4.95,-46.88,9.09,-5.29,-46.14,Forward Fall while Sitting
39:58.3,285,504,756,921,420,1.44,696.52,2.05,20723.84,421,223,20723.84,215,429477696,4294908123,901,0.64,-0.25,-0.9,-1.21,52.59,-11.37,-13.07,-32.93,-5.02,-41.67,8.01,-5.34,-41.32,Forward Fall while Sitting
39:58.4,671,507,760.5,921,421,1.43,699.34,2.06,20723.84,421,238,20723.84,215,429477696,4294899231,1139,0.67,-0.23,-0.78,-1.79,61.77,-13.9,-13.05,-37.89,-5.15,-35.57,6.67,-5.46,-35.67,Forward Fall while Sitting
39:58.5,600,509,763.5,921,421,1.43,699.34,2.06,20723.84,421,226,20723.84,215,429477696,4294884771,1365,0.74,-0.22,-0.71,-3.74,62.09,-8.46,-12.96,-43.17,-5.47,-29.39,5.88,-5.77,-29.94,Forward Fall while Sitting
39:58.6,416,507,760.5,921,420,1.44,696.52,2.05,20723.84,421,226,20723.84,215,429477696,4294870311,1591,0.82,-0.21,-0.64,-2.85,45.69,-6.97,-12.29,-48.95,-5.71,-24.89,5.24,-5.97,-25.85,Forward Fall while Sitting
39:58.7,607,510,765,921,420,1.44,696.52,2.05,20723.84,421,238,20723.84,215,429477696,4294861419,1829,0.85,-0.2,-0.6,-1.95,37.55,-7.48,-11.44,-51.9,-5.85,-21.26,4.56,-6.08,-22.49,Forward Fall while Sitting
39:58.8,631,512,768,921,421,1.43,699.34,2.06,20723.84,421,233,20723.84,215,429477696,4294850172,2062,0.91,-0.18,-0.51,-2.4,51.97,-8.73,-10.6,-57.71,-6.04,-16.11,3.74,-6.23,-17.78,Forward Fall while Sitting
39:58.9,414,510,765,921,420,1.44,696.52,2.05,20723.83,420,222,20723.98,228,429483392,0,0,0.93,-0.18,-0.44,-5.6,43.05,-5.83,-10.38,-61.29,-6.55,-11.97,3.23,-6.71,-13.94,Forward Fall while Sitting
39:59.0,225,504,756,921,420,1.44,696.52,2.05,20723.83,420,230,20723.98,228,429483392,4294954660,230,0.94,-0.16,-0.35,-3.98,31.61,-6.7,-9.43,-66.3,-6.9,-8.95,2.63,-7,-11.24,Forward Fall while Sitting
39:59.1,652,507,760.5,921,421,1.43,699.34,2.06,20723.83,420,240,20723.98,228,429483392,4294946724,470,0.95,-0.16,-0.37,-5.14,28.44,-5.2,-9.2,-65.34,-7.37,-6.22,2.18,-7.45,-8.59,Forward Fall while Sitting
39:59.2,585,509,763.5,921,421,1.43,699.34,2.06,20723.83,420,217,20723.98,228,429483392,4294928277,687,1,-0.14,-0.27,-3.89,26.8,-6.54,-8.16,-71.47,-7.71,-3.72,1.59,-7.73,-6.43,Forward Fall while Sitting
39:59.3,287,504,756,921,419,1.44,693.71,2.05,20723.83,420,205,20723.98,228,429483392,4294904766,892,1.02,-0.14,-0.22,-4.79,24.52,-6.3,-8.09,-74.07,-8.14,-1.4,1.03,-8.14,-4.3,Forward Fall while Sitting
39:59.4,304,501,751.5,921,419,1.44,693.71,2.05,20723.83,420,202,20723.98,228,429483392,4294880034,1094,1.01,-0.12,-0.12,-0.25,16.33,-7.67,-7.25,-78.77,-8.11,0.06,0.33,-8.08,-3.09,Forward Fall while Sitting
39:59.5,403,499,748.5,921,419,1.44,693.71,2.05,20723.83,420,196,20723.98,228,429483392,4294852914,1290,0.83,-0.1,0.07,2.52,-5.56,-3.59,-7.2,-80.38,-7.8,-0.7,0.04,-7.78,-3.89,Forward Fall while Sitting
39:59.6,450,498,747,921,418,1.45,690.91,2.04,20723.83,420,196,20723.98,228,429483392,4294825794,1486,0.98,-0.1,-0.22,9.44,16.44,-1.77,-6.47,-74.63,-6.77,0.79,-0.06,-6.76,-2.23,Forward Fall while Sitting
39:59.7,363,496,744,921,418,1.45,690.91,2.04,20723.83,420,193,20723.98,228,429483392,4294797507,1679,1.02,-0.12,-0.18,1.92,22.55,0.17,-7.11,-76.67,-6.52,2.86,0.04,-6.54,-0.32,Forward Fall while Sitting
39:59.8,386,494,741,921,419,1.44,693.71,2.05,20723.83,420,197,20723.98,228,429483392,4294770780,1876,0.98,-0.09,-0.11,-7.84,7.39,1.82,-6.06,-80.03,-7.27,3.42,0.31,-7.22,0.08,Forward Fall while Sitting
39:59.9,438,493,739.5,921,420,1.44,696.52,2.05,20723.8,419,202,20723.77,207,429474592,0,0,1.01,-0.11,-0.06,0.04,-1.15,4.12,-6.74,-81.29,-7.21,3.11,0.79,-7.19,-0.27,Forward Fall while Sitting
40:00.0,418,492,738,921,419,1.44,693.71,2.05,20723.8,419,205,20723.77,207,429474592,4294943785,205,1.06,-0.13,-0.06,3.42,11.31,-0.52,-7.42,-80.86,-6.81,4.05,0.82,-6.83,0.65,Forward Fall while Sitting
40:00.1,385,490,735,921,420,1.44,696.52,2.05,20723.8,419,207,20723.77,207,429474592,4294921098,412,1,-0.14,-0.1,-9.41,-5.29,-0.11,-8.23,-78.86,-7.71,3.3,0.89,-7.73,0.02,Forward Fall while Sitting
40:00.2,392,488,732,921,420,1.44,696.52,2.05,20723.8,419,209,20723.77,207,429474592,4294899243,621,1.02,-0.12,-0.09,-5.88,-3.63,3.31,-7.39,-79.85,-8.25,2.73,1.3,-8.21,-0.57,Forward Fall while Sitting
40:00.3,470,488,732,921,420,1.44,696.52,2.05,20723.8,419,209,20723.77,207,429474592,4294877388,830,1.03,-0.14,-0.11,-4.15,-2.68,-0.66,-8.29,-78.57,-8.61,2.26,1.32,-8.6,-0.97,Forward Fall while Sitting
40:00.4,355,486,729,921,420,1.44,696.52,2.05,20723.8,419,211,20723.77,207,429474592,4294856373,1041,1,-0.13,-0.11,-2.96,-8.31,-1.07,-8.02,-78.77,-8.86,1.2,1.29,-8.83,-2,Forward Fall while Sitting
40:00.5,418,485,727.5,921,420,1.44,696.52,2.05,20723.8,419,212,20723.77,207,429474592,4294835781,1253,1.02,-0.14,-0.1,-0.85,-2.56,-1.85,-8.1,-78.89,-8.89,0.73,1.18,-8.86,-2.45,Forward Fall while Sitting
40:00.6,479,485,727.5,921,420,1.44,696.52,2.05,20723.8,419,213,20723.77,207,429474592,4294815614,1466,1,-0.13,-0.13,-1.73,-3.09,-2.79,-8.05,-77.9,-9.01,0.21,0.98,-8.97,-2.91,Forward Fall while Sitting
40:00.7,483,485,727.5,921,420,1.44,696.52,2.05,20723.8,419,215,20723.77,207,429474592,4294796303,1681,1.01,-0.12,-0.14,-1.1,-6.98,0.14,-7.19,-78.17,-9.06,-0.7,1.07,-8.99,-3.8,Forward Fall while Sitting
40:00.8,853,490,735,921,420,1.44,696.52,2.05,20723.8,419,215,20723.77,207,429474592,4294776992,1896,1.01,-0.13,-0.18,0.74,1.16,3.79,-7.61,-76.3,-8.93,-0.79,1.53,-8.88,-3.81,Forward Fall while Sitting
40:00.9,543,491,736.5,921,420,1.44,696.52,2.05,20723.82,419,213,20723.8,210,429475680,0,0,1.02,-0.15,-0.18,-2.42,2.6,0.11,-8.96,-75.33,-9.12,-0.73,1.62,-9.11,-3.71,Forward Fall while Sitting
40:01.0,671,493,739.5,921,420,1.44,696.52,2.05,20723.82,419,214,20723.8,210,429475680,4294947556,214,1.04,-0.13,-0.12,-1.2,5.05,-5.01,-7.92,-78.42,-9.18,-0.42,1.2,-9.13,-3.54,Forward Fall while Sitting
40:11.2,667,667,1000.5,667,423,1.42,705,2.07,0,0,215,0,0,0,4294928245,429,1.01,0.02,-0.07,8.53,-7.96,-3.75,0.28,-84.51,2.05,-1.47,-0.72,1.98,-4.79,Walking
40:11.3,644,655,982.5,667,424,1.41,707.85,2.07,0,0,215,0,0,0,4294908934,644,1,0.02,-0.07,7.75,-3.28,1.08,0.72,-84.4,2.86,-1.98,-0.54,2.78,-5.28,Walking
40:11.4,641,650,975,667,423,1.42,705,2.07,0,0,213,0,0,0,4294888767,857,1.01,0.03,-0.13,6.89,-2.95,1.07,1.19,-80.84,3.58,-2.46,-0.36,3.49,-5.6,Walking
40:11.5,515,616,924,667,423,1.42,705,2.07,0,0,213,0,0,0,4294868600,1070,1.04,0.01,-0.16,2.75,-1.52,0.57,-0.18,-79.88,3.91,-2.81,-0.22,3.75,-5.89,Walking
40:11.6,461,585,877.5,667,422,1.42,702.16,2.06,0,0,207,0,0,0,4294845913,1277,1.03,0,-0.16,-2.71,-10.46,-0.89,-0.41,-79.81,3.7,-4.03,-0.23,3.53,-7.06,Walking
40:11.7,245,528,792,667,422,1.42,702.16,2.06,0,0,208,0,0,0,4294823641,1485,1.05,-0.02,-0.2,-7.21,-1.16,-3.85,-1.6,-77.76,3.04,-4.34,-0.53,2.85,-7.28,Walking
40:11.8,209,483,724.5,667,422,1.42,702.16,2.06,0,0,206,0,0,0,4294800541,1691,1.02,0.01,-0.19,-15.12,-7.2,-5.05,0.03,-78.04,1.61,-5.24,-0.95,1.55,-8.16,Walking
40:11.9,178,445,667.5,667,422,1.42,702.16,2.06,0,0,204,0,0,0,4294776621,1895,1,0.04,-0.08,-16.7,-3.79,-1.79,1.69,-83.28,0.02,-5.82,-1.05,0.08,-8.92,Walking
40:12.0,309,429,643.5,667,422,1.42,702.16,2.06,20723.87,422,204,20723.79,209,429475264,0,0,0.98,0.02,-0.06,-7.57,6.55,1.56,0.52,-84.5,-0.69,-5.36,-0.82,-0.64,-8.53,Walking
40:12.1,428,429,643.5,667,423,1.42,705,2.07,20723.87,422,205,20723.79,209,429475264,4294943785,205,1.02,0.02,-0.06,-6.66,1.37,1.19,0.67,-84.84,-1.3,-5.43,-0.62,-1.22,-8.6,Walking
40:12.2,469,433,649.5,667,423,1.42,705,2.07,20723.87,422,206,20723.79,209,429475264,4294920685,411,1.01,0.02,-0.1,-6.01,5.63,-0.43,0.55,-82.44,-1.86,-5.06,-0.58,-1.76,-8.15,Walking
40:12.3,574,445,667.5,667,422,1.42,702.16,2.06,20723.87,422,207,20723.79,209,429475264,4294897998,618,1.03,0.02,-0.1,-6.99,-0.85,-1.31,0.74,-82.96,-2.51,-5.34,-0.63,-2.38,-8.45,Walking
40:12.4,513,450,675,667,422,1.42,702.16,2.06,20723.87,422,208,20723.79,209,429475264,4294875726,826,0.98,0,-0.08,-9.87,-6.76,-5.02,-0.48,-83.88,-3.47,-6.25,-1.07,-3.35,-9.35,Walking
40:12.5,553,457,685.5,667,422,1.42,702.16,2.06,20723.87,422,215,20723.79,209,429475264,4294856415,1041,0.96,0.03,-0.11,-12.78,-1.58,2.38,1.35,-81.82,-4.7,-6.61,-0.75,-4.46,-9.62,Walking
