Datetime, ECGR , AvgECG , ampECG , MAX , GSRR , Resistance , GSR(kohm) , SCL , GSRRMS , GSRMAV , EMGR , EMGRMS , EMGMAV , EMGVAR , EMGSSI , IEMG , AccX , AccY, AccZ , GyroX , GyroY , GyroZ , Aroll , Apitch , Groll , Gpitch, Gy , Combroll , Combpitch,Features
24:46.2,728,527,790.5,862,238,3.3,303.18,1.16,0,0,275,0,0,0,17994,546,1.02,-0.05,-0.1,-5.92,-1.2,-1.93,-3.13,-82.33,-1.42,-1.98,-0.26,-1.49,-5.19,Standing
24:46.4,534,527,790.5,862,234,3.37,296.58,1.14,0,0,277,0,0,0,29187,823,1,-0.04,-0.11,-2.54,-5.31,-0.82,-3.13,-81.6,-1.66,-2.87,-0.27,-1.72,-6.02,Standing
24:46.5,235,521,781.5,862,231,3.43,291.67,1.13,0,0,276,0,0,0,39827,1099,1.02,-0.06,-0.12,-0.85,-0.46,1.07,-4.09,-80.68,-1.7,-3.17,-0.04,-1.8,-6.27,Standing
24:46.6,279,517,775.5,862,226,3.53,283.56,1.1,0,0,227,0,0,0,25820,1326,1.01,-0.05,-0.15,-2.88,1.69,-2.88,-3.43,-79.76,-1.98,-3.21,-0.29,-2.04,-6.27,Standing
24:46.7,647,519,778.5,862,222,3.61,277.15,1.09,0,0,260,0,0,0,27884,1586,1.02,-0.05,-0.13,-3.65,-3.05,-3.34,-3.13,-80.64,-2.36,-3.82,-0.6,-2.39,-6.89,Standing
24:46.8,755,524,786,862,218,3.69,270.81,1.07,0,0,258,0,0,0,28912,1844,1.03,-0.05,-0.14,-3.16,-1.53,-0.98,-3.3,-80.3,-2.67,-4.25,-0.63,-2.7,-7.29,Standing
24:47.0,382,521,781.5,862,218,3.69,270.81,1.07,0,0,256,0,0,0,28912,2100,1.03,-0.04,-0.13,-4.42,4.7,-0.29,-2.86,-80.75,-3.14,-3.92,-0.57,-3.13,-6.99,Standing
24:47.1,342,518,777,862,221,3.63,275.56,1.08,0,0,254,0,0,0,27892,2354,1.01,-0.05,-0.16,-4.59,2.83,0.53,-3.44,-79.11,-3.63,-3.82,-0.4,-3.63,-6.83,Standing
24:47.2,636,520,780,862,224,3.57,280.35,1.09,20723.96,226,215,29.29,256,857,0,0,1.02,-0.05,-0.15,-1.99,2.29,-1.52,-3.18,-79.78,-3.81,-3.78,-0.49,-3.78,-6.82,Standing
24:47.3,641,522,783,862,229,3.47,288.41,1.12,20723.96,226,224,29.29,256,857,4294951936,224,1.03,-0.06,-0.13,-3.39,-0.9,-2.52,-3.8,-80.39,-4.16,-4.14,-0.71,-4.15,-7.19,Standing
24:47.5,239,517,775.5,862,237,3.32,301.53,1.16,20723.96,226,286,29.29,256,857,900,510,1.01,-0.04,-0.14,-3.88,1.76,-0.57,-3.08,-80.21,-4.57,-4.17,-0.68,-4.51,-7.21,Standing
24:47.6,387,515,772.5,862,233,3.39,294.94,1.14,20723.96,226,288,29.29,256,857,18308,798,1.01,-0.06,-0.14,-7,-2.53,-2.12,-3.89,-79.83,-5.37,-4.73,-0.85,-5.31,-7.74,Standing
24:47.7,669,517,775.5,862,224,3.57,280.35,1.09,20723.96,226,271,29.29,256,857,26213,1069,1.02,-0.04,-0.13,-3.59,-1.73,-2.74,-2.75,-80.69,-5.74,-5.19,-1.09,-5.62,-8.21,Standing
24:47.8,569,518,777,862,217,3.71,269.23,1.06,20723.96,226,268,29.29,256,857,32501,1337,1,-0.04,-0.15,-0.19,-4.19,-4.78,-2.7,-79.79,-5.69,-5.95,-1.58,-5.57,-8.91,Standing
24:47.9,250,514,771,862,223,3.59,278.75,1.09,20723.96,226,219,29.29,256,857,14926,1556,1.03,-0.03,-0.16,1.47,0.31,-1.89,-2.37,-79.6,-5.44,-6.16,-1.71,-5.32,-9.1,Standing
24:48.1,384,512,768,862,230,3.45,290.04,1.12,20723.96,226,276,29.29,256,857,25566,1832,1.01,-0.05,-0.14,3.41,2.52,-2.6,-3.18,-79.93,-4.95,-6.1,-1.94,-4.88,-9.05,Standing
24:48.2,784,516,774,862,236,3.33,299.87,1.15,20723.96,226,288,29.29,256,857,42974,2120,1,-0.04,-0.15,1.97,0.95,0.04,-2.93,-79.53,-4.64,-6.23,-1.83,-4.57,-9.16,Standing
24:48.3,618,518,777,862,233,3.39,294.94,1.14,20723.96,226,289,29.29,256,857,60959,2409,1.02,-0.03,-0.16,0.4,0.63,0.4,-2.29,-79.36,-4.52,-6.4,-1.69,-4.43,-9.32,Standing
24:48.4,669,517,775.5,862,226,3.53,283.56,1.1,20723.99,228,199,59.18,260,3501,0,0,1.02,-0.04,-0.16,0.29,1.18,-1.02,-2.81,-79.18,-4.42,-6.5,-1.71,-4.36,-9.4,Standing
24:48.6,569,518,777,862,221,3.63,275.56,1.08,20723.99,228,279,59.18,260,3501,12305,279,1.01,-0.05,-0.16,-1.18,-0.14,-1.13,-3.24,-79.26,-4.5,-6.76,-1.76,-4.45,-9.66,Standing
24:48.7,250,514,771,862,219,3.67,272.39,1.07,20723.99,228,277,59.18,260,3501,23498,556,1.02,-0.05,-0.15,1.45,3.34,0.21,-3.24,-79.42,-4.25,-6.59,-1.63,-4.21,-9.51,Standing
24:48.8,465,21,31.5,465,242,3.23,309.86,1.18,20723.99,228,260,59.18,260,3501,25562,816,1.02,-0.04,-0.17,-3.3,7.34,0.66,-2.56,-78.81,-4.59,-5.93,-1.45,-4.51,-8.85,Standing
24:48.9,1000,63,94.5,1000,352,1.91,524.59,1.72,20723.99,228,300,59.18,260,3501,50026,1116,1,-0.04,-0.17,-4.64,2.34,2.89,-3.09,-78.56,-5.09,-5.89,-1,-5.01,-8.8,Standing
24:49.1,1000,102,153,1000,384,1.66,600.94,1.88,20723.99,228,281,59.18,260,3501,63451,1397,1.01,-0.04,-0.12,-4.62,3.37,1.69,-2.8,-81.27,-5.6,-5.72,-0.68,-5.49,-8.74,Standing
24:49.2,1000,138,207,1000,391,1.62,618.67,1.91,20723.99,228,291,59.18,260,3501,82596,1688,1.05,-0.07,-0.15,-1.21,3.63,-4.76,-4.11,-79.79,-5.68,-5.51,-1.18,-5.62,-8.49,Standing
24:49.3,1001,171,256.5,1001,394,1.6,626.39,1.93,20723.99,228,288,59.18,260,3501,100004,1976,1.01,-0.09,-0.15,1.24,5.56,-4.17,-5.53,-78.47,-5.45,-5.07,-1.61,-5.46,-8,Standing
24:49.4,1001,202,303,1001,393,1.6,623.81,1.92,20723.99,228,293,59.18,260,3501,120317,2269,1.05,-0.04,-0.22,-1.96,-3.47,-0.45,-2.57,-76.51,-5.63,-5.75,-1.56,-5.51,-8.58,Standing
24:49.6,516,213,319.5,1001,368,1.78,561.83,1.8,20723.99,228,290,59.18,260,3501,138881,2559,1.04,-0.06,-0.13,3.48,1.86,-4.48,-3.63,-80.91,-5.12,-5.77,-2.03,-5.06,-8.77,Standing
24:49.7,857,235,352.5,1001,368,1.78,561.83,1.8,67.84,333,292,125.94,285,15859,0,0,1,-0.04,-0.14,0.15,1.02,-3.48,-2.87,-80.03,-5.03,-5.89,-2.36,-4.95,-8.85,Standing
24:49.8,0,228,342,1001,359,1.85,540.66,1.75,67.84,333,276,125.94,285,15859,10640,276,1.03,-0.05,-0.14,-0.71,0.26,-0.73,-3.22,-79.98,-5.05,-6.1,-2.35,-4.98,-9.06,Standing
24:49.9,0,220,330,1001,371,1.76,569.02,1.81,67.84,333,292,125.94,285,15859,30368,568,1.01,-0.05,-0.15,-4.49,1.06,1.26,-3.6,-79.46,-5.54,-6.22,-2.1,-5.46,-9.15,Standing
24:50.1,540,230,345,1001,377,1.71,583.59,1.84,67.84,333,291,125.94,285,15859,49513,859,1.02,-0.05,-0.13,-2.72,2.63,-1.52,-3.11,-80.72,-5.81,-6.14,-2.19,-5.7,-9.13,Standing
24:50.2,597,241,361.5,1001,365,1.8,554.71,1.78,67.84,333,291,125.94,285,15859,68658,1150,1.02,-0.06,-0.15,-5.92,1.39,-3.56,-3.82,-79.29,-6.48,-6.22,-2.54,-6.37,-9.14,Standing
24:50.3,0,234,351,1001,319,2.21,453.13,1.56,67.84,333,243,125.94,285,15859,62171,1393,1.01,-0.03,-0.16,-12.8,-4.31,-1.08,-2.5,-79.12,-8.01,-7.01,-2.57,-7.79,-9.89,Standing
24:50.4,509,242,363,1001,330,2.1,476.19,1.61,67.84,333,284,125.94,285,15859,77291,1677,1.02,-0.03,-0.17,-13.33,-0.81,-1.34,-2.2,-78.93,-9.61,-7.36,-2.64,-9.31,-10.22,Standing
24:50.6,179,240,360,1001,333,2.07,482.61,1.63,67.84,333,284,125.94,285,15859,92411,1961,1,-0.03,-0.17,-9.11,-3.63,-4.48,-2.02,-78.82,-10.68,-8.07,-3.11,-10.34,-10.9,Standing
24:50.7,0,234,351,1001,314,2.26,442.88,1.53,67.84,333,282,125.94,285,15859,106399,2243,1.02,-0.04,-0.19,-5.37,-1.04,-3.67,-2.69,-77.61,-11.28,-8.44,-3.46,-10.94,-11.21,Standing
24:50.8,465,240,360,1001,289,2.54,393.73,1.41,67.84,333,232,125.94,285,15859,94687,2475,1,-0.03,-0.17,-4.31,1.87,-0.79,-2.32,-78.5,-11.75,-8.46,-3.46,-11.38,-11.26,Standing
24:50.9,539,247,370.5,1001,285,2.59,386.18,1.39,20724.18,334,287,105.6,276,11151,0,0,1,-0.04,-0.18,-4.63,1.73,-0.77,-2.63,-78.14,-12.26,-8.49,-3.46,-11.88,-11.28,Standing
24:51.1,557,255,382.5,1001,279,2.67,375,1.36,20724.18,334,295,105.6,276,11151,21489,295,1.01,-0.02,-0.19,-2.7,0.95,-3.5,-1.68,-77.85,-12.53,-8.63,-3.8,-12.1,-11.4,Standing
24:51.2,492,261,391.5,1001,264,2.88,347.83,1.29,20724.18,334,264,105.6,276,11151,25649,559,1.03,-0.01,-0.18,-3.49,0.92,-5.54,-1.14,-78.39,-12.9,-8.76,-4.4,-12.43,-11.55,Standing
24:51.3,491,266,399,1001,275,2.72,367.65,1.34,20724.18,334,294,105.6,276,11151,46549,853,1.01,-0.01,-0.18,-3.3,1.69,-3.4,-0.96,-78.6,-13.24,-8.8,-4.73,-12.75,-11.59,Standing
24:51.4,1000,283,424.5,1001,362,1.83,547.66,1.77,20724.18,334,300,105.6,276,11151,71013,1153,1,0,-0.18,-1.31,3.61,-1.19,-0.81,-78.22,-13.34,-8.6,-4.78,-12.84,-11.38,Standing
24:51.6,1000,300,450,1001,387,1.64,608.49,1.89,20724.18,334,300,105.6,276,11151,95477,1453,1.01,0,-0.17,2.69,2.08,-1.13,-0.36,-78.95,-12.93,-8.59,-4.82,-12.43,-11.4,Standing
24:51.7,0,293,439.5,1001,390,1.62,616.11,1.91,20724.18,334,300,105.6,276,11151,119941,1753,1,0,-0.17,1.19,0.05,-4.24,-0.55,-78.49,-12.71,-8.83,-5.25,-12.22,-11.62,Standing
24:51.8,1001,308,462,1001,394,1.6,626.39,1.93,20724.18,334,298,105.6,276,11151,143209,2051,1.01,0.01,-0.17,-0.79,0.5,-2.87,-0.29,-79.06,-12.74,-9.02,-5.51,-12.24,-11.82,Standing
24:51.9,1001,323,484.5,1001,386,1.65,605.97,1.89,20724.18,334,291,105.6,276,11151,162354,2342,1.02,0.01,-0.18,1.04,0.68,-0.68,-0.28,-78.63,-12.54,-9.19,-5.5,-12.05,-11.96,Standing
24:52.1,0,316,474,1001,386,1.65,605.97,1.89,20724.18,334,279,105.6,276,11151,174659,2621,1.01,0,-0.19,2.51,0.44,-1.66,-0.66,-77.88,-12.15,-9.38,-5.61,-11.69,-12.12,Standing
24:52.2,1000,330,495,1001,397,1.58,634.19,1.94,123.61,352,288,138.59,290,19205,0,0,1.01,0.01,-0.18,0.39,-0.64,-0.82,-0.27,-78.42,-12.03,-9.71,-5.61,-11.56,-12.46,Standing
24:52.3,0,324,486,1001,354,1.89,529.15,1.73,123.61,352,290,138.59,290,19205,18564,290,1,0,-0.2,1.23,-1.8,0.76,-0.54,-77.19,-11.81,-10.19,-5.42,-11.36,-12.87,Standing
24:52.4,0,317,475.5,1001,332,2.08,480.46,1.62,123.61,352,285,138.59,290,19205,34253,575,1.03,0.01,-0.19,-0.22,-0.95,-1.56,-0.29,-78.21,-11.76,-10.56,-5.51,-11.3,-13.27,Standing
24:52.6,461,320,480,1001,285,2.59,386.18,1.39,123.61,352,233,138.59,290,19205,23006,808,1.03,0,-0.18,-0.94,1.05,-1.03,-0.34,-78.4,-11.81,-10.68,-5.54,-11.35,-13.39,Standing
24:52.7,483,323,484.5,1001,266,2.85,351.39,1.3,123.61,352,271,138.59,290,19205,30911,1079,1.02,0,-0.19,-4.6,2.26,0.05,-0.36,-77.86,-12.32,-10.65,-5.44,-11.84,-13.33,Standing
24:52.8,541,327,490.5,1001,286,2.58,388.06,1.4,123.61,352,289,138.59,290,19205,48896,1368,1.01,0.01,-0.17,-4.24,2.75,-0.13,0.22,-78.81,-12.78,-10.55,-5.36,-12.26,-13.28,Standing
24:52.9,517,331,496.5,1001,307,2.33,428.77,1.5,123.61,352,288,138.59,290,19205,66304,1656,1.01,-0.01,-0.17,-2.14,1.7,0.23,-0.99,-78.72,-12.97,-10.59,-5.23,-12.49,-13.32,Standing
24:53.1,452,333,499.5,1001,275,2.72,367.65,1.34,123.61,352,201,138.59,290,19205,41169,1857,1.02,0,-0.18,-1.54,1.95,-0.89,-0.32,-78.28,-13.1,-10.6,-5.24,-12.59,-13.3,Standing
24:53.2,518,336,504,1001,272,2.76,362.18,1.33,123.61,352,258,138.59,290,19205,42197,2115,1.01,-0.01,-0.18,-1.53,4.73,-1.29,-0.89,-78.5,-13.22,-10.26,-5.3,-12.73,-12.99,Standing
24:53.3,569,340,510,1001,275,2.72,367.65,1.34,123.61,352,296,138.59,290,19205,64277,2411,1,0,-0.17,-0.47,3.47,-2.42,-0.75,-78.9,-13.21,-10.07,-5.51,-12.71,-12.82,Standing
24:53.4,1000,351,526.5,1001,279,2.67,375,1.36,89.55,293,262,82.09,267,6737,0,0,1.03,0,-0.17,-3.44,-1.47,0.4,-0.54,-79.09,-13.57,-10.5,-5.36,-13.05,-13.25,Standing
24:53.6,504,354,531,1001,346,1.96,511.08,1.69,89.55,293,271,82.09,267,6737,7905,271,1.03,-0.01,-0.16,-0.24,3.79,-0.24,-0.94,-79.83,-13.53,-10.28,-5.29,-13.02,-13.07,Standing
24:53.7,1000,364,546,1001,379,1.7,588.51,1.85,89.55,293,301,82.09,267,6737,32970,572,1.03,0,-0.17,-2.85,-6.69,-7.18,-0.75,-78.99,-13.82,-11.38,-6.09,-13.29,-14.08,Standing
24:53.8,997,375,562.5,1001,386,1.65,605.97,1.89,89.55,293,298,82.09,267,6737,56238,870,1.02,0,-0.16,-4.82,4.57,0.66,-0.78,-79.44,-14.35,-11.06,-5.91,-13.8,-13.79,Standing
24:53.9,0,369,553.5,1001,389,1.63,613.56,1.9,89.55,293,279,82.09,267,6737,68543,1149,1,-0.01,-0.18,-0.07,5.27,4.76,-1,-78.07,-14.29,-10.65,-5.22,-13.75,-13.35,Standing
24:54.1,0,363,544.5,1001,390,1.62,616.11,1.91,89.55,293,289,82.09,267,6737,86528,1438,1.02,0,-0.15,-3.32,-1.47,0.05,-0.76,-79.9,-14.63,-11.08,-5.11,-14.08,-13.83,Standing
24:54.2,0,357,535.5,1001,393,1.6,623.81,1.92,89.55,293,291,82.09,267,6737,105673,1729,1.03,-0.01,-0.14,-4.06,1.35,-2.03,-1.32,-80.5,-15.07,-11.16,-5.27,-14.52,-13.94,Standing
24:54.3,54,353,529.5,1001,393,1.6,623.81,1.92,89.55,293,296,82.09,267,6737,127753,2025,1.03,-0.01,-0.17,-4.95,9.56,2.18,-1.16,-78.95,-15.62,-10.22,-4.9,-15.04,-12.97,Standing
24:54.4,0,347,520.5,1001,392,1.61,621.24,1.92,89.55,293,276,82.09,267,6737,138393,2301,1.01,-0.02,-0.14,-4.47,0.75,3.5,-1.72,-80.4,-16.11,-10.38,-4.36,-15.53,-13.18,Standing
24:54.6,1000,357,535.5,1001,383,1.67,598.44,1.87,89.55,293,263,82.09,267,6737,142026,2564,1.01,-0.02,-0.15,-1.26,0.64,-0.77,-1.75,-79.88,-16.2,-10.54,-4.35,-15.62,-13.32,Standing
24:54.7,0,352,528,1001,319,2.21,453.13,1.56,107.73,377,261,120.25,282,14460,0,0,1.02,-0.02,-0.13,-0.08,-1.33,-1.33,-1.83,-80.9,-16.14,-10.95,-4.42,-15.57,-13.75,Standing
24:54.8,130,349,523.5,1001,281,2.64,378.71,1.37,107.73,377,286,120.25,282,14460,16260,286,1.02,-0.03,-0.13,-1.29,2.45,0.13,-2.27,-80.79,-16.23,-10.9,-4.3,-15.67,-13.69,Standing
24:54.9,0,344,516,1001,251,3.08,325.13,1.23,107.73,377,264,120.25,282,14460,20420,550,0.99,-0.03,-0.14,-6.16,-3.21,-4.02,-2.25,-80.36,-16.93,-11.55,-4.71,-16.34,-14.3,Standing
24:55.1,0,339,508.5,1001,234,3.37,296.58,1.14,107.73,377,280,120.25,282,14460,33284,830,1.05,-0.02,-0.18,-8.74,-0.69,0.33,-1.67,-78.79,-17.96,-11.89,-4.57,-17.31,-14.57,Standing
24:55.2,0,334,501,1001,241,3.24,308.18,1.18,107.73,377,254,120.25,282,14460,32264,1084,0.98,-0.01,-0.14,0.47,3.32,-2.19,-0.99,-80.05,-17.83,-11.72,-4.74,-17.16,-14.46,Standing
24:55.3,0,330,495,1001,250,3.09,323.42,1.22,107.73,377,285,120.25,282,14460,47953,1369,1.01,0,-0.17,1.34,2.44,-7.21,-0.47,-79.14,-17.59,-11.67,-5.55,-16.91,-14.37,Standing
24:55.4,505,332,498,1001,309,2.31,432.77,1.51,107.73,377,283,120.25,282,14460,62506,1652,1.01,-0.01,-0.17,-3.95,-8.73,-7.12,-1.21,-78.73,-18.02,-13.01,-6.34,-17.34,-15.64,Standing
24:55.6,1000,341,511.5,1001,368,1.78,561.83,1.8,107.73,377,288,120.25,282,14460,79914,1940,1.02,0,-0.16,0.38,3.95,3.99,-0.71,-79.37,-17.9,-12.76,-5.73,-17.21,-15.43,Standing
24:55.7,520,343,514.5,1001,384,1.66,600.94,1.88,107.73,377,298,120.25,282,14460,103182,2238,1.01,0,-0.17,-1.05,2.7,-2.3,-0.54,-78.73,-17.96,-12.67,-5.92,-17.26,-15.32,Standing
24:55.8,588,346,519,1001,368,1.78,561.83,1.8,107.73,377,281,120.25,282,14460,116607,2519,1.02,-0.01,-0.19,1.21,-4.03,-2,-0.94,-77.89,-17.74,-13.43,-6.07,-17.06,-16.01,Standing
24:55.9,504,348,522,1001,381,1.69,593.46,1.86,76.64,306,294,117.26,281,13749,0,0,1.02,0.01,-0.17,-1.18,-2.85,-3.76,0.08,-79.05,-17.81,-14.04,-6.44,-17.1,-16.64,Standing
24:56.1,999,356,534,1001,389,1.63,613.56,1.9,76.64,306,295,117.26,281,13749,21489,295,1.02,0,-0.18,-0.31,2.76,-2.1,-0.74,-78.32,-17.78,-13.94,-6.61,-17.1,-16.52,Standing
24:56.2,432,357,535.5,1001,392,1.61,621.24,1.92,76.64,306,294,117.26,281,13749,42389,589,1.01,0,-0.19,-1.62,2.18,-0.2,-0.39,-77.97,-17.92,-13.92,-6.53,-17.21,-16.48,Standing
24:56.3,44,354,531,1001,391,1.62,618.67,1.91,76.64,306,281,117.26,281,13749,55814,870,1.01,0,-0.19,-3,0.26,0.71,-0.32,-77.88,-18.22,-14.14,-6.35,-17.5,-16.69,Standing
24:56.5,0,349,523.5,1001,390,1.62,616.11,1.91,76.64,306,293,117.26,281,13749,76127,1163,1.01,0,-0.18,-1.27,1.56,-1.08,-0.59,-78.5,-18.31,-14.19,-6.38,-17.6,-16.77,Standing
24:56.6,0,345,517.5,1001,392,1.61,621.24,1.92,76.64,306,282,117.26,281,13749,90115,1445,1.02,0,-0.18,-2.26,1.05,-0.38,-0.34,-78.57,-18.52,-14.31,-6.33,-17.79,-16.88,Standing
24:56.7,523,347,520.5,1001,370,1.76,566.62,1.81,76.64,306,294,117.26,281,13749,111015,1739,1.01,0,-0.19,-1.97,2.02,-1.73,-0.59,-78.03,-18.7,-14.31,-6.45,-17.97,-16.86,Standing
24:56.8,506,349,523.5,1001,370,1.76,566.62,1.81,76.64,306,290,117.26,281,13749,129579,2029,1.01,0,-0.18,-1.66,2.42,0.52,-0.54,-78.54,-18.84,-14.26,-6.28,-18.11,-16.83,Standing
24:57.0,0,345,517.5,1001,382,1.68,595.94,1.87,76.64,306,294,117.26,281,13749,150479,2323,1.01,-0.01,-0.17,-0.98,3.78,1.3,-0.89,-78.66,-18.89,-14.04,-6.02,-18.17,-16.62,Standing
24:57.1,1000,352,528,1001,393,1.6,623.81,1.92,76.64,306,290,117.26,281,13749,169043,2613,1,-0.01,-0.17,-1.18,2.79,-0.95,-1.18,-79.02,-18.97,-13.94,-6.04,-18.26,-16.54,Standing
24:57.2,0,348,522,1001,390,1.62,616.11,1.91,133.86,385,292,137.39,290,18876,0,0,1.01,-0.02,-0.16,-1.63,2.19,-1.24,-1.63,-79.55,-19.1,-13.91,-6.1,-18.4,-16.54,Standing
24:57.3,0,345,517.5,1001,391,1.62,618.67,1.91,133.86,385,294,137.39,290,18876,20900,294,1.02,-0.01,-0.16,-1.65,1.87,-1.43,-1.33,-79.45,-19.24,-13.93,-6.18,-18.52,-16.55,Standing
24:57.5,0,341,511.5,1001,392,1.61,621.24,1.92,133.86,385,291,137.39,290,18876,40045,585,1.01,-0.01,-0.17,-1.89,-0.24,-2.52,-1.13,-78.82,-19.4,-14.21,-6.39,-18.67,-16.79,Standing
24:57.6,451,342,513,1001,396,1.58,631.58,1.94,133.86,385,292,137.39,290,18876,59773,877,1.02,-0.01,-0.17,-0.56,0.92,-1,-1.05,-79.17,-19.4,-14.34,-6.42,-18.67,-16.94,Standing
24:57.7,508,344,516,1001,380,1.69,590.98,1.86,133.86,385,291,137.39,290,18876,78918,1168,1.01,-0.01,-0.16,-0.91,1.18,-1.85,-0.99,-79.19,-19.45,-14.45,-6.56,-18.71,-17.04,Standing
24:57.8,1001,351,526.5,1001,376,1.72,581.14,1.84,133.86,385,289,137.39,290,18876,96903,1457,1.02,0,-0.16,-0.7,0.11,-0.76,-0.59,-79.5,-19.47,-14.69,-6.55,-18.71,-17.28,Standing
24:58.0,0,347,520.5,1001,316,2.24,446.96,1.54,133.86,385,261,137.39,290,18876,99488,1718,1.02,-0.01,-0.16,-2.13,1.14,-1.33,-0.96,-79.59,-19.66,-14.79,-6.62,-18.91,-17.39,Standing
24:58.1,548,349,523.5,1001,292,2.5,399.45,1.43,133.86,385,288,137.39,290,18876,116896,2006,1.02,-0.01,-0.16,-1.89,1.42,-1.27,-1.26,-79.47,-19.83,-14.87,-6.68,-19.09,-17.45,Standing
24:58.2,517,351,526.5,1001,315,2.25,444.92,1.54,133.86,385,289,137.39,290,18876,134881,2295,1.01,-0.01,-0.15,-1.44,2.33,-0.16,-0.98,-79.86,-19.94,-14.83,-6.6,-19.18,-17.43,Standing
24:58.3,0,347,520.5,1001,360,1.84,542.99,1.76,133.86,385,291,137.39,290,18876,154026,2586,1.02,0,-0.17,-1.85,2.34,-0.15,-0.8,-78.87,-20.1,-14.78,-6.52,-19.33,-17.35,Standing
24:58.5,0,344,516,1001,342,1.99,502.2,1.67,59.04,356,288,130.93,287,17142,0,0,1.02,-0.01,-0.16,-1.8,-0.96,-2.35,-1.23,-79.67,-20.26,-15.15,-6.71,-19.5,-17.73,Standing
24:58.6,556,346,519,1001,306,2.34,426.78,1.5,59.04,356,294,130.93,287,17142,20900,294,1.02,-0.02,-0.16,-2.2,0.5,-1.01,-1.55,-79.71,-20.46,-15.34,-6.74,-19.71,-17.91,Standing
24:58.7,542,351,526.5,1001,271,2.77,360.37,1.32,59.04,356,295,130.93,287,17142,42389,589,1.01,-0.01,-0.17,-2.42,-0.01,-0.7,-0.93,-79.15,-20.7,-15.59,-6.73,-19.91,-18.13,Standing
25:06.0,280,280,420,280,396,1.58,631.58,1.94,0,0,284,0,0,0,31380,570,0.88,0.5,-0.22,-0.95,-0.59,-11.13,28.48,-56.33,-0.14,-0.34,-1.83,1,-2.58,Left Fall while Standing
25:06.1,0,140,210,280,397,1.58,634.19,1.94,0,0,285,0,0,0,47069,855,0.84,0.52,-0.22,-2.69,1.69,-14.66,30.44,-54.54,-0.4,-0.37,-3.52,0.83,-2.54,Left Fall while Standing
25:06.2,489,256,384,489,397,1.58,634.19,1.94,0,0,286,0,0,0,63329,1141,0.8,0.54,-0.21,-2.14,-0.21,-12.97,32.75,-52.41,-0.59,-0.64,-5.02,0.74,-2.72,Left Fall while Standing
25:06.4,997,441,661.5,997,397,1.58,634.19,1.94,0,0,286,0,0,0,79589,1427,0.83,0.57,-0.24,-2.53,3.67,-15.4,32.59,-51.89,-0.84,-0.44,-6.82,0.5,-2.5,Left Fall while Standing
25:06.5,0,353,529.5,997,396,1.58,631.58,1.94,0,0,284,0,0,0,94709,1711,0.86,0.65,-0.23,-3.66,-4.31,-24.07,35.68,-49.46,-1.22,-1.22,-9.68,0.26,-3.15,Left Fall while Standing
25:06.6,0,294,441,997,394,1.6,626.39,1.93,0,0,285,0,0,0,110398,1996,0.77,0.64,-0.21,1.38,4.18,-17.43,38.03,-47.24,-0.98,-0.95,-11.73,0.58,-2.8,Left Fall while Standing
25:06.7,98,266,399,997,393,1.6,623.81,1.92,0,0,284,0,0,0,125518,2280,0.74,0.63,-0.21,-2.11,6.39,-12.33,38.72,-46.57,-1.17,-0.41,-13.13,0.43,-2.26,Left Fall while Standing
25:06.9,0,233,349.5,997,394,1.6,626.39,1.93,0,0,283,0,0,0,140071,2563,0.74,0.65,-0.2,2.4,5.56,-16.77,39.86,-45.75,-0.81,0.02,-15.08,0.82,-1.81,Left Fall while Standing
25:07.0,0,207,310.5,997,394,1.6,626.39,1.93,158.97,395,285,124.8,284,15575,0,0,0.7,0.68,-0.21,2.71,1.99,-18.4,42.67,-42.7,-0.4,0.02,-17.27,1.32,-1.69,Left Fall while Standing
25:07.1,27,189,283.5,997,394,1.6,626.39,1.93,158.97,395,284,124.8,284,15575,15120,284,0.67,0.74,-0.2,-1.27,1.73,-17.41,46.19,-39.35,-0.49,-0.01,-19.33,1.38,-1.59,Left Fall while Standing
25:07.2,515,218,327,997,394,1.6,626.39,1.93,158.97,395,285,124.8,284,15575,30809,569,0.66,0.77,-0.21,-4.02,2.49,-19.64,47.33,-38.16,-0.92,0.05,-21.68,1.01,-1.48,Left Fall while Standing
25:07.4,99,208,312,997,392,1.61,621.24,1.92,158.97,395,284,124.8,284,15575,45929,853,0.63,0.76,-0.21,-1.67,9.08,-18.58,48.41,-36.81,-1.06,0.93,-23.89,0.92,-0.58,Left Fall while Standing
25:07.5,0,192,288,997,392,1.61,621.24,1.92,158.97,395,284,124.8,284,15575,61049,1137,0.59,0.76,-0.2,-0.18,6.64,-15.22,50.16,-35.15,-1.01,1.51,-25.69,1.03,0.04,Left Fall while Standing
25:07.6,0,178,267,997,393,1.6,623.81,1.92,158.97,395,282,124.8,284,15575,75037,1419,0.56,0.79,-0.2,2.27,3.66,-14.11,52.32,-32.92,-0.66,1.71,-27.35,1.46,0.33,Left Fall while Standing
25:07.7,130,175,262.5,997,393,1.6,623.81,1.92,158.97,395,283,124.8,284,15575,89590,1702,0.54,0.84,-0.19,-0.95,2.28,-13.44,55.25,-30.4,-0.71,1.75,-28.93,1.53,0.46,Left Fall while Standing
25:07.9,802,214,321,997,391,1.62,618.67,1.91,158.97,395,283,124.8,284,15575,104143,1985,0.55,0.85,-0.19,-0.33,0.86,-12.2,55.26,-30.52,-0.68,1.61,-30.35,1.55,0.32,Left Fall while Standing
25:08.0,12,202,303,997,389,1.63,613.56,1.9,158.97,395,282,124.8,284,15575,118131,2267,0.51,0.83,-0.19,-1.84,2.73,-8.15,56.28,-29.13,-0.84,1.7,-31.26,1.44,0.46,Left Fall while Standing
25:08.1,49,194,291,997,389,1.63,613.56,1.9,158.97,395,281,124.8,284,15575,131556,2548,0.47,0.85,-0.18,-2.76,1.43,-8.93,58.72,-26.79,-1.11,1.62,-32.28,1.28,0.49,Left Fall while Standing
25:08.2,517,211,316.5,997,391,1.62,618.67,1.91,149.79,391,284,121.11,283,14666,0,0,0.49,0.86,-0.19,-3.55,1.61,-5.75,58.25,-27.18,-1.48,1.58,-32.88,0.91,0.43,Left Fall while Standing
25:08.4,303,215,322.5,997,391,1.62,618.67,1.91,149.79,391,284,121.11,283,14666,15120,284,0.49,0.86,-0.21,-3.73,0.5,-4.87,57.8,-27.18,-1.88,1.39,-33.39,0.51,0.25,Left Fall while Standing
25:08.5,178,214,321,997,391,1.62,618.67,1.91,149.79,391,284,121.11,283,14666,30240,568,0.48,0.88,-0.16,-3.38,2.71,-9.64,59.5,-26.76,-2.23,1.48,-34.49,0.24,0.35,Left Fall while Standing
25:08.6,79,207,310.5,997,389,1.63,613.56,1.9,149.79,391,283,121.11,283,14666,44793,851,0.44,0.85,-0.2,-2.08,5.2,-6.99,59.78,-25.28,-2.42,1.87,-35.26,0.07,0.79,Left Fall while Standing
25:08.7,0,198,297,997,389,1.63,613.56,1.9,149.79,391,259,121.11,283,14666,46338,1110,0.43,0.88,-0.17,-3.44,1.82,-5.79,61.78,-23.96,-2.77,1.85,-35.88,-0.19,0.82,Left Fall while Standing
25:08.8,11,191,286.5,997,391,1.62,618.67,1.91,149.79,391,280,121.11,283,14666,59202,1390,0.41,0.85,-0.17,-1.31,0.02,-10.67,61.91,-23.6,-2.87,1.6,-37.12,-0.28,0.59,Left Fall while Standing
25:09.0,999,223,334.5,999,391,1.62,618.67,1.91,149.79,391,283,121.11,283,14666,73755,1673,0.4,0.89,-0.17,0.18,0,-6.47,63.16,-22.37,-2.77,1.35,-37.83,-0.14,0.4,Left Fall while Standing
25:09.1,0,214,321,999,389,1.63,613.56,1.9,149.79,391,239,121.11,283,14666,65340,1912,0.39,0.9,-0.17,1.96,1.73,-8.31,64.27,-21.24,-2.46,1.32,-38.76,0.21,0.42,Left Fall while Standing
25:09.2,0,206,309,999,386,1.65,605.97,1.89,149.79,391,233,121.11,283,14666,54093,2145,0.39,0.9,-0.2,-5.24,1.87,-9.47,63.39,-21.27,-3.04,1.3,-39.83,-0.39,0.4,Left Fall while Standing
25:09.3,0,199,298.5,999,387,1.64,608.49,1.89,149.79,391,238,121.11,283,14666,45201,2383,0.37,0.94,-0.15,-3.6,4.08,0.11,66.36,-19.63,-3.42,1.56,-39.72,-0.63,0.71,Left Fall while Standing
25:09.5,79,195,292.5,999,387,1.64,608.49,1.89,142.58,389,237,59.86,262,3582,0,0,0.38,0.9,-0.18,0.53,-0.05,-1.57,64.47,-20.71,-3.29,1.31,-39.82,-0.58,0.43,Left Fall while Standing
25:09.6,242,196,294,999,387,1.64,608.49,1.89,142.58,389,240,59.86,262,3582,4294959360,240,0.39,0.88,-0.19,-1.74,2.47,-4.36,63.47,-21.61,-3.43,1.37,-40.26,-0.76,0.45,Left Fall while Standing
25:09.7,939,220,330,999,385,1.66,603.45,1.88,142.58,389,234,59.86,262,3582,4294948580,474,0.38,0.9,-0.21,-1.29,2.48,-5.69,63.79,-20.68,-3.53,1.43,-40.88,-0.83,0.55,Left Fall while Standing
25:09.8,0,213,319.5,999,384,1.66,600.94,1.88,142.58,389,261,59.86,262,3582,4294951165,735,0.36,0.91,-0.19,-1.33,3.23,-1.98,65.59,-19.3,-3.62,1.58,-41.03,-0.85,0.75,Left Fall while Standing
25:10.0,455,221,331.5,999,386,1.65,605.97,1.89,142.58,389,264,59.86,262,3582,4294955325,999,0.36,0.92,-0.18,-0.05,1.53,-0.89,65.88,-19.36,-3.56,1.52,-41.04,-0.78,0.69,Left Fall while Standing
25:10.1,91,217,325.5,999,386,1.65,605.97,1.89,142.58,389,265,59.86,262,3582,4294960014,1264,0.37,0.9,-0.22,-2.15,-2.47,-0.98,63.89,-20.32,-3.76,0.97,-41.06,-1.05,0.11,Left Fall while Standing
25:10.2,326,220,330,999,385,1.66,603.45,1.88,142.58,389,267,59.86,262,3582,4294965767,1531,0.37,0.92,-0.19,0.18,-0.76,3.05,65.02,-20.07,-3.66,0.62,-40.58,-0.92,-0.21,Left Fall while Standing
25:10.3,744,235,352.5,999,384,1.66,600.94,1.88,142.58,389,268,59.86,262,3582,4759,1799,0.36,0.91,-0.21,-1.21,-0.53,4.07,64.69,-19.54,-3.75,0.3,-39.98,-1.01,-0.49,Left Fall while Standing
25:10.5,0,228,342,999,385,1.66,603.45,1.88,142.58,389,270,59.86,262,3582,12123,2069,0.41,0.91,-0.2,-2.54,-3.17,12.89,62.91,-21.95,-3.99,-0.34,-38.28,-1.32,-1.2,Left Fall while Standing
25:10.6,449,234,351,999,387,1.64,608.49,1.89,142.58,389,272,59.86,262,3582,20571,2341,0.41,0.9,-0.2,-1.27,-0.52,9.57,62.73,-22.21,-4.08,-0.65,-36.98,-1.41,-1.51,Left Fall while Standing
25:10.7,295,236,354,999,386,1.65,605.97,1.89,132.43,385,241,36.21,258,1310,0,0,0.39,0.88,-0.17,-3.66,1.47,20.96,63.53,-21.97,-4.46,-0.72,-34.31,-1.74,-1.57,Left Fall while Standing
25:10.8,176,234,351,999,385,1.66,603.45,1.88,132.43,385,228,36.21,258,1310,4294953744,228,0.47,0.85,-0.19,1.33,-0.66,23.95,58.46,-26.83,-4.22,-1.05,-31.19,-1.72,-2.08,Left Fall while Standing
25:11.0,0,228,342,999,383,1.67,598.44,1.87,132.43,385,226,36.21,258,1310,4294939284,454,0.53,0.87,-0.17,-3.89,0.91,27.27,56.53,-29.49,-4.64,-1.19,-27.71,-2.19,-2.32,Left Fall while Standing
25:11.1,0,223,334.5,999,385,1.66,603.45,1.88,132.43,385,263,36.21,258,1310,4294942917,717,0.59,0.81,-0.2,-4.24,2.89,30.15,52.01,-33.62,-5.1,-1.08,-23.84,-2.81,-2.38,Left Fall while Standing
25:11.2,95,220,330,999,385,1.66,603.45,1.88,132.43,385,231,36.21,258,1310,4294930742,948,0.63,0.76,-0.21,-7.53,0.01,37.11,48.25,-37.19,-5.97,-1.32,-19.11,-3.8,-2.76,Left Fall while Standing
25:11.3,231,220,330,999,383,1.67,598.44,1.87,132.43,385,236,36.21,258,1310,4294920902,1184,0.7,0.71,-0.2,-11.59,-0.96,36.34,43.52,-42.06,-7.35,-1.69,-14.47,-5.31,-3.31,Left Fall while Standing
25:11.5,0,215,322.5,999,383,1.67,598.44,1.87,132.43,385,231,36.21,258,1310,4294908727,1415,0.78,0.63,-0.19,-16.02,-3.28,43.95,37.3,-48.43,-9.29,-2.36,-8.83,-7.43,-4.2,Left Fall while Standing
25:11.6,0,211,316.5,999,385,1.66,603.45,1.88,132.43,385,275,36.21,258,1310,4294918816,1690,0.84,0.53,-0.16,-19.4,5.23,52.98,31.28,-55.04,-11.65,-1.96,-2.11,-9.93,-4.08,Left Fall while Standing
25:11.7,576,218,327,999,384,1.66,600.94,1.88,132.43,385,263,36.21,258,1310,4294922449,1953,0.89,0.45,-0.12,-17.92,1.47,44.33,26.03,-60.79,-13.84,-2.02,3.58,-12.24,-4.37,Left Fall while Standing
25:11.8,0,214,321,999,383,1.67,598.44,1.87,132.43,385,261,36.21,258,1310,4294925034,2214,0.92,0.35,-0.12,-16.85,5.37,47.88,20.04,-66.6,-15.87,-1.6,9.66,-14.44,-4.2,Left Fall while Standing
25:12.0,0,209,313.5,999,383,1.67,598.44,1.87,127.7,383,239,20724.18,245,429491648,0,0,0.94,0.25,-0.09,-19.17,8.09,41.53,14.34,-72.59,-18.2,-0.84,14.95,-16.9,-3.71,Left Fall while Standing
25:12.1,763,220,330,999,385,1.66,603.45,1.88,127.7,383,277,20724.18,245,429491648,11193,277,0.97,0.18,-0.04,-18.63,6.12,34.46,9.73,-77.79,-20.48,-0.32,19.39,-19.27,-3.42,Left Fall while Standing
25:12.2,998,236,354,999,388,1.64,611.02,1.9,127.7,383,265,20724.18,245,429491648,15882,542,1.01,0.07,-0.06,-20.56,4.65,35.79,3.31,-83.3,-23,0.01,24,-21.94,-3.32,Left Fall while Standing
25:12.3,368,238,357,999,387,1.64,608.49,1.89,127.7,383,271,20724.18,245,429491648,23787,813,1.02,0.05,-0.04,-14.41,8.15,23.86,2.22,-84.74,-24.74,0.79,27.11,-23.66,-2.64,Left Fall while Standing
25:12.5,836,249,373.5,999,390,1.62,616.11,1.91,127.7,383,274,20724.18,245,429491648,33327,1087,0.99,-0.03,-0.03,-8.53,4.87,21.72,-2.08,-86.33,-25.75,1.15,29.94,-24.8,-2.35,Left Fall while Standing
25:12.6,0,245,367.5,999,389,1.63,613.56,1.9,127.7,383,273,20724.18,245,429491648,42320,1360,1.02,-0.07,0,-8.2,3.26,18.11,-4.25,-84.74,-26.71,1.31,32.32,-25.81,-2.14,Left Fall while Standing
25:12.7,0,240,360,999,388,1.64,611.02,1.9,127.7,383,253,20724.18,245,429491648,40793,1613,1.02,-0.09,-0.01,-3.21,10.17,16.62,-5.83,-83.11,-27.04,2.34,34.52,-26.19,-1.08,Left Fall while Standing
25:12.9,0,236,354,999,385,1.66,603.45,1.88,127.7,383,238,20724.18,245,429491648,31901,1851,1.01,-0.14,0,-1.29,8.05,11.44,-8.67,-80.33,-27.13,3.1,36.06,-26.4,-0.24,Left Fall while Standing
25:13.0,127,234,351,999,387,1.64,608.49,1.89,127.7,383,276,20724.18,245,429491648,42541,2127,1.01,-0.14,0,1.2,-5.08,1.59,-8.2,-80.79,-26.91,2.21,36.36,-26.16,-1.11,Left Fall while Standing
25:13.1,987,247,370.5,999,388,1.64,611.02,1.9,127.7,383,271,20724.18,245,429491648,50446,2398,1.01,-0.14,0,3.15,-13.25,-6.77,-8.19,-80.81,-26.45,0.28,35.6,-25.72,-2.96,Left Fall while Standing
25:13.2,0,243,364.5,999,385,1.66,603.45,1.88,137.31,387,270,76.03,266,5780,0,0,1.03,-0.14,-0.01,-0.31,-5.17,-9.99,-8.26,-80.73,-26.41,-0.6,34.47,-25.69,-3.8,Left Fall while Standing
25:13.4,775,252,378,999,389,1.63,613.56,1.9,137.31,387,279,76.03,266,5780,12305,279,1.03,-0.12,-0.03,-1.27,1.79,-11.76,-7.18,-81.67,-26.5,-0.62,33.1,-25.73,-3.87,Left Fall while Standing
25:13.5,112,249,373.5,999,390,1.62,616.11,1.91,137.31,387,277,76.03,266,5780,23498,556,1.01,-0.1,-0.05,-5.9,1.56,-7.14,-6.24,-82.17,-27.17,-0.68,32.31,-26.33,-3.94,Left Fall while Standing
25:13.6,117,247,370.5,999,389,1.63,613.56,1.9,137.31,387,265,76.03,266,5780,28187,821,1,-0.07,-0.04,-6.37,-2.21,-6.28,-4.75,-83.62,-27.89,-1.2,31.63,-26.97,-4.5,Left Fall while Standing
25:13.7,133,246,369,999,388,1.64,611.02,1.9,137.31,387,261,76.03,266,5780,30772,1082,1.03,-0.06,-0.02,-5.66,0.76,-4.73,-4.17,-84.71,-28.53,-1.36,31.13,-27.56,-4.69,Left Fall while Standing
25:13.9,0,242,363,999,388,1.64,611.02,1.9,137.31,387,249,76.03,266,5780,27237,1331,1.01,-0.07,-0.02,-1.69,-0.43,-3.51,-4.36,-84.47,-28.67,-1.66,30.79,-27.7,-4.97,Left Fall while Standing
25:21.3,609,609,913.5,609,384,1.66,600.94,1.88,0,0,278,0,0,0,12776,536,0.81,-0.68,-0.14,-1.69,9.47,7.63,-40.35,-47.71,-0.11,1.02,2.49,-1.72,-0.93,Right Fall while Standing
25:21.4,0,304,456,609,383,1.67,598.44,1.87,0,0,274,0,0,0,22316,810,0.76,-0.64,-0.09,-3.5,0.58,9.02,-40.36,-48.2,-0.47,0.85,3.69,-2.06,-1.11,Right Fall while Standing
25:21.5,0,203,304.5,609,383,1.67,598.44,1.87,0,0,283,0,0,0,36869,1093,0.73,-0.7,-0.12,1.79,1.13,7.23,-43.85,-44.38,-0.18,0.74,4.67,-1.93,-1.06,Right Fall while Standing
25:21.6,112,180,270,609,382,1.68,595.94,1.87,0,0,278,0,0,0,48617,1371,0.75,-0.65,-0.1,-2.69,-2.85,10.42,-41.14,-47.27,-0.44,0.15,6.04,-2.07,-1.75,Right Fall while Standing
25:21.8,418,227,340.5,609,381,1.69,593.46,1.86,0,0,267,0,0,0,54370,1638,0.77,-0.71,-0.1,-0.72,2.2,9.63,-42.98,-45.5,-0.46,0.17,7.33,-2.16,-1.66,Right Fall while Standing
25:21.9,321,243,364.5,609,381,1.69,593.46,1.86,0,0,250,0,0,0,51334,1888,0.75,-0.73,-0.1,-0.56,-2.47,3.36,-44.61,-43.84,-0.46,-0.37,7.83,-2.23,-2.11,Right Fall while Standing
25:22.0,35,213,319.5,609,380,1.69,590.98,1.86,0,0,258,0,0,0,52362,2146,0.7,-0.75,-0.12,-3.33,-2.18,8.76,-47.21,-40.99,-0.8,-0.88,9,-2.66,-2.49,Right Fall while Standing
25:22.1,0,186,279,609,380,1.69,590.98,1.86,0,0,242,0,0,0,45390,2388,0.69,-0.74,-0.11,-7.18,0.76,15.02,-47.39,-40.99,-1.61,-1.04,10.94,-3.45,-2.64,Right Fall while Standing
25:22.2,0,166,249,609,381,1.69,593.46,1.86,121.88,382,275,74.48,266,5546,0,0,0.67,-0.77,-0.1,-4.18,2.48,11.59,-49.32,-39.12,-2.06,-0.98,12.48,-3.95,-2.5,Right Fall while Standing
25:22.4,90,158,237,609,382,1.68,595.94,1.87,121.88,382,279,74.48,266,5546,12305,279,0.63,-0.81,-0.14,-3.15,3.56,9.74,-51.73,-36.14,-2.38,-0.78,13.78,-4.36,-2.2,Right Fall while Standing
25:22.5,367,177,265.5,609,380,1.69,590.98,1.86,121.88,382,244,74.48,266,5546,6305,523,0.65,-0.81,-0.15,-3.01,3.1,8.24,-51.23,-36.53,-2.69,-0.65,14.9,-4.63,-2.08,Right Fall while Standing
25:22.6,0,162,243,609,376,1.72,581.14,1.84,121.88,382,244,74.48,266,5546,305,767,0.6,-0.83,-0.14,-3.81,4.66,8.12,-54.09,-33.83,-3.09,-0.32,16.01,-5.13,-1.66,Right Fall while Standing
25:22.7,0,150,225,609,376,1.72,581.14,1.84,121.88,382,257,74.48,266,5546,818,1024,0.61,-0.83,-0.13,-1.56,2.24,5.89,-53.65,-34.38,-3.22,-0.29,16.84,-5.23,-1.65,Right Fall while Standing
25:22.9,612,183,274.5,612,379,1.7,588.51,1.85,121.88,382,247,74.48,266,5546,4294963587,1271,0.59,-0.82,-0.12,-3.34,5.66,7.48,-54.39,-33.77,-3.57,0.17,17.88,-5.6,-1.19,Right Fall while Standing
25:23.0,339,193,289.5,612,379,1.7,588.51,1.85,121.88,382,281,74.48,266,5546,9716,1552,0.57,-0.85,-0.12,-2.07,5.84,6.1,-56.24,-31.93,-3.75,0.65,18.73,-5.85,-0.65,Right Fall while Standing
25:23.1,0,181,271.5,612,376,1.72,581.14,1.84,121.88,382,272,74.48,266,5546,18164,1824,0.56,-0.86,-0.11,-1.07,3.24,5.24,-56.72,-31.54,-3.82,0.8,19.48,-5.93,-0.49,Right Fall while Standing
25:23.2,0,170,255,612,374,1.74,576.27,1.83,121.88,382,241,74.48,266,5546,10709,2065,0.56,-0.86,-0.1,-3.55,2.42,5.88,-57.18,-31.24,-4.19,0.85,20.31,-6.31,-0.43,Right Fall while Standing
25:23.4,0,161,241.5,612,373,1.74,573.85,1.82,121.88,382,241,74.48,266,5546,3254,2306,0.55,-0.87,-0.09,-5.21,2.02,5.82,-57.92,-30.55,-4.76,0.86,21.13,-6.89,-0.4,Right Fall while Standing
25:23.5,0,152,228,612,375,1.73,578.7,1.83,105.19,377,241,20724.29,254,429496320,0,0,0.54,-0.89,-0.1,-2.63,5.26,7.63,-59.14,-29.23,-5.02,1.26,22.17,-7.18,0.04,Right Fall while Standing
25:23.6,50,147,220.5,612,376,1.72,581.14,1.84,105.19,377,240,20724.29,254,429496320,4294959360,240,0.5,-0.9,-0.11,-1.31,1.71,7.32,-60.78,-27.45,-5.11,1.22,23.19,-7.34,0.08,Right Fall while Standing
25:23.7,836,180,270,836,374,1.74,576.27,1.83,105.19,377,266,20724.29,254,429496320,4294964580,506,0.5,-0.91,-0.1,-3.69,4.88,7.76,-61.17,-27.16,-5.51,1.59,24.28,-7.74,0.44,Right Fall while Standing
25:23.9,0,172,258,836,371,1.76,569.02,1.81,105.19,377,238,20724.29,254,429496320,4294955688,744,0.48,-0.88,-0.1,-3.48,5.39,5.12,-61.79,-26.6,-5.88,2.02,25.03,-8.12,0.87,Right Fall while Standing
25:24.0,36,166,249,836,375,1.73,578.7,1.83,105.19,377,285,20724.29,254,429496320,4081,1029,0.47,-0.91,-0.12,-3.54,3.62,-0.93,-62.83,-25.19,-6.25,2.22,25.01,-8.52,1.12,Right Fall while Standing
25:24.1,1000,201,301.5,1000,376,1.72,581.14,1.84,105.19,377,243,20724.29,254,429496320,4294964890,1272,0.48,-0.92,-0.1,-4.75,0.82,-0.31,-62.55,-25.85,-6.79,2.07,25.07,-9.02,0.95,Right Fall while Standing
25:24.2,786,224,336,1000,372,1.75,571.43,1.82,105.19,377,241,20724.29,254,429496320,4294957435,1513,0.47,-0.91,-0.11,-4.32,1.55,2.5,-62.52,-25.76,-7.26,2.01,25.49,-9.47,0.9,Right Fall while Standing
25:24.4,0,215,322.5,1000,374,1.74,576.27,1.83,105.19,377,240,20724.29,254,429496320,4294949499,1753,0.47,-0.91,-0.11,-3.85,3.24,0.74,-62.77,-25.48,-7.68,2.17,25.68,-9.88,1.06,Right Fall while Standing
25:24.5,73,210,315,1000,374,1.74,576.27,1.83,105.19,377,240,20724.29,254,429496320,4294941563,1993,0.47,-0.92,-0.13,-2.72,0.87,-0.14,-62.85,-25,-7.95,2.03,25.76,-10.15,0.94,Right Fall while Standing
25:24.6,265,212,318,1000,370,1.76,566.62,1.81,105.19,377,238,20724.29,254,429496320,4294932671,2231,0.46,-0.92,-0.14,-5.08,-0.69,-1.4,-62.87,-24.91,-8.53,1.68,25.68,-10.7,0.62,Right Fall while Standing
25:24.7,0,205,307.5,1000,373,1.74,573.85,1.82,91.83,373,277,20724.25,250,429494400,0,0,0.47,-0.92,-0.15,-3.69,1.24,-1.8,-62.42,-25.16,-8.91,1.59,25.56,-11.05,0.52,Right Fall while Standing
25:24.9,54,200,300,1000,373,1.74,573.85,1.82,91.83,373,287,20724.25,250,429494400,16833,287,0.46,-0.94,-0.14,-4.48,0.36,-2.2,-63.38,-24.34,-9.41,1.38,25.38,-11.57,0.35,Right Fall while Standing
25:25.0,376,205,307.5,1000,370,1.76,566.62,1.81,91.83,373,252,20724.25,250,429494400,14801,539,0.47,-0.92,-0.14,-3.91,-1.35,-3.08,-62.23,-25.46,-9.83,0.96,25.09,-11.93,-0.1,Right Fall while Standing
25:25.1,0,199,298.5,1000,369,1.77,564.22,1.8,91.83,373,236,20724.25,250,429494400,4961,775,0.47,-0.91,-0.13,-2.12,1.83,-4.43,-62.15,-25.69,-10.03,0.94,24.63,-12.11,-0.13,Right Fall while Standing
25:25.2,165,198,297,1000,374,1.74,576.27,1.83,91.83,373,286,20724.25,250,429494400,21221,1061,0.47,-0.92,-0.14,5.08,-0.98,-7.74,-62.42,-25.4,-9.32,0.56,23.76,-11.44,-0.48,Right Fall while Standing
25:25.4,1000,221,331.5,1000,374,1.74,576.27,1.83,91.83,373,284,20724.25,250,429494400,36341,1345,0.49,-0.93,-0.15,-6.18,-0.02,-13.07,-61.73,-25.86,-10.02,0.31,22.21,-12.09,-0.74,Right Fall while Standing
25:25.5,0,215,322.5,1000,372,1.75,571.43,1.82,91.83,373,239,20724.25,250,429494400,27926,1584,0.57,-0.93,-0.16,-9.01,-3.3,-20.37,-57.98,-29.64,-11.1,-0.36,19.72,-12.97,-1.53,Right Fall while Standing
25:25.6,0,209,313.5,1000,376,1.72,581.14,1.84,91.83,373,280,20724.25,250,429494400,40790,1864,0.63,-0.88,-0.16,-5.51,-1.26,-34.56,-54.07,-33.61,-11.72,-0.77,15.47,-13.41,-2.09,Right Fall while Standing
25:25.8,42,205,307.5,1000,376,1.72,581.14,1.84,91.83,373,282,20724.25,250,429494400,54778,2146,0.61,-0.85,-0.17,-0.02,3.95,-37.6,-53.65,-33.78,-11.65,-0.53,10.83,-13.33,-1.86,Right Fall while Standing
25:25.9,17,200,300,1000,375,1.73,578.7,1.83,91.83,373,239,20724.25,250,429494400,46363,2385,0.69,-0.71,-0.14,10.11,-4.37,-35.22,-45.83,-42.06,-10.31,-1.33,6.49,-11.73,-2.96,Right Fall while Standing
25:26.0,0,194,291,1000,376,1.72,581.14,1.84,91.84,373,269,72.92,265,5317,0,0,0.76,-0.66,-0.12,2.2,0.36,-46.24,-40.94,-47.2,-9.97,-1.53,0.86,-11.21,-3.36,Right Fall while Standing
25:26.1,101,192,288,1000,379,1.7,588.51,1.85,91.84,373,283,72.92,265,5317,14553,283,0.81,-0.59,-0.08,4.4,-5.37,-60.12,-36.34,-52.23,-9.35,-2.46,-6.56,-10.43,-4.45,Right Fall while Standing
25:26.3,997,212,318,1000,380,1.69,590.98,1.86,91.84,373,243,72.92,265,5317,8066,526,0.87,-0.53,-0.14,8.67,1.57,-57.95,-31.29,-56.58,-8.19,-2.51,-13.71,-9.12,-4.67,Right Fall while Standing
25:26.4,500,219,328.5,1000,378,1.71,586.05,1.85,91.84,373,243,72.92,265,5317,1579,769,0.92,-0.38,-0.12,14.44,5.39,-49.06,-22.77,-65.08,-6.32,-2.08,-19.74,-6.98,-4.6,Right Fall while Standing
25:26.5,485,225,337.5,1000,379,1.7,588.51,1.85,91.84,373,254,72.92,265,5317,559,1023,0.97,-0.28,-0.13,18.53,-1.48,-47.56,-16.44,-70.82,-3.95,-2.52,-25.54,-4.45,-5.25,Right Fall while Standing
25:26.6,0,220,330,1000,380,1.69,590.98,1.86,91.84,373,246,72.92,265,5317,4294962835,1269,1.04,-0.17,-0.16,13.51,-0.36,-45.02,-9.64,-76.02,-2.18,-2.81,-31.11,-2.48,-5.74,Right Fall while Standing
25:26.8,992,237,355.5,1000,383,1.67,598.44,1.87,91.84,373,281,72.92,265,5317,8964,1550,1.02,-0.12,-0.14,3.15,0.27,-41.36,-7.02,-78.31,-1.71,-3.03,-36.18,-1.93,-6.04,Right Fall while Standing
25:26.9,0,232,348,1000,378,1.71,586.05,1.85,91.84,373,241,72.92,265,5317,1509,1791,1.04,-0.04,-0.06,-3.46,4.18,-34.15,-2.87,-84.48,-2.08,-2.76,-40.35,-2.11,-6.03,Right Fall while Standing
25:27.0,0,227,340.5,1000,376,1.72,581.14,1.84,91.84,373,261,72.92,265,5317,4094,2052,0.97,0.02,-0.04,-4.58,8.76,-24.4,0.64,-85.68,-2.57,-1.92,-43.28,-2.45,-5.27,Right Fall while Standing
25:27.1,999,243,364.5,1000,384,1.66,600.94,1.88,91.84,373,286,72.92,265,5317,20354,2338,0.99,0.08,-0.04,-5.35,4.83,-11.82,3.94,-83.28,-3.17,-1.56,-44.66,-2.89,-4.83,Right Fall while Standing
25:27.3,0,238,357,1000,381,1.69,593.46,1.86,114.81,379,239,34.54,257,1192,0,0,1.02,0.1,-0.07,-15.83,1.24,-4.16,5.04,-81.67,-5.05,-1.66,-45.08,-4.65,-4.86,Right Fall while Standing
25:27.4,0,233,349.5,1000,377,1.71,583.59,1.84,114.81,379,240,34.54,257,1192,4294959360,240,1.06,0.09,-0.01,-13.16,0.46,-8.53,4.43,-83.38,-6.63,-1.85,-46.04,-6.18,-5.11,Right Fall while Standing
25:27.5,619,241,361.5,1000,379,1.7,588.51,1.85,114.81,379,270,34.54,257,1192,4294966724,510,1,0.07,-0.04,-10.46,6.92,-4.84,3.59,-83.73,-7.86,-1.24,-46.55,-7.41,-4.54,Right Fall while Standing
25:27.6,999,255,382.5,1000,385,1.66,603.45,1.88,114.81,379,278,34.54,257,1192,11176,788,0.98,0.1,-0.02,-6.55,3.26,5.59,5.19,-82.51,-8.61,-1.08,-45.75,-8.06,-4.34,Right Fall while Standing
25:30.8,0,0,0,0,377,1.71,583.59,1.84,0,0,236,0,0,0,4294948564,474,1,0.03,-0.12,-0.47,1.18,-1.61,1.05,-81.35,0.29,0.21,-0.2,0.32,-3.05,Forward Fall while Standing
25:30.9,0,0,0,0,376,1.72,581.14,1.84,0,0,236,0,0,0,4294938724,710,1.01,0.02,-0.11,0.55,-0.79,-0.83,0.48,-82.26,0.43,-0.13,-0.2,0.43,-3.41,Forward Fall while Standing
25:31.0,1000,333,499.5,1000,380,1.69,590.98,1.86,0,0,285,0,0,0,4294954413,995,1.03,0.05,-0.15,-1.09,-0.53,2.36,2.26,-79.61,0.36,-0.44,0.18,0.44,-3.61,Forward Fall while Standing
25:31.1,369,342,513,1000,377,1.71,583.59,1.84,0,0,284,0,0,0,2237,1279,1.02,0.04,-0.14,-7.05,-6.22,-0.11,1.71,-80.17,-0.44,-1.45,0.27,-0.35,-4.6,Forward Fall while Standing
25:31.2,118,297,445.5,1000,375,1.73,578.7,1.83,0,0,260,0,0,0,4301,1539,1,0.02,-0.15,-9.98,-15.08,-0.56,0.76,-79.82,-1.59,-3.53,0.29,-1.49,-6.59,Forward Fall while Standing
25:31.4,0,247,370.5,1000,373,1.74,573.85,1.82,0,0,236,0,0,0,4294961757,1775,0.99,0.01,-0.18,-11.69,-13.31,1.78,-0.08,-78.39,-2.95,-5.42,0.61,-2.84,-8.34,Forward Fall while Standing
25:31.5,0,212,318,1000,372,1.75,571.43,1.82,0,0,234,0,0,0,4294950977,2009,0.97,-0.02,-0.22,-10.34,-30.18,5.64,-1.98,-75.3,-4.17,-9.41,1.41,-4.08,-12.04,Forward Fall while Standing
25:31.6,0,185,277.5,1000,372,1.75,571.43,1.82,0,0,236,0,0,0,4294941137,2245,0.96,0.01,-0.3,-11.46,-41.49,-4.63,-0.12,-71.27,-5.52,-14.8,0.93,-5.3,-17.06,Forward Fall while Standing
25:31.7,1000,276,414,1000,379,1.7,588.51,1.85,101.17,375,287,20724.28,253,429495808,0,0,0.9,0.02,-0.47,-8.47,-52.73,-6.19,0.29,-60.93,-6.51,-21.64,0.26,-6.23,-23.21,Forward Fall while Standing
25:31.9,156,264,396,1000,375,1.73,578.7,1.83,101.17,375,233,20724.28,253,429495808,4294956049,233,1.18,0.08,-0.64,-5.24,-50.13,2.24,2.74,-59.77,-7.1,-28.26,0.64,-6.71,-29.52,Forward Fall while Standing
25:32.0,0,240,360,1000,372,1.75,571.43,1.82,101.17,375,236,20724.28,253,429495808,4294946209,469,0.84,0.03,-0.52,-7.02,-35.27,-3.44,1.01,-56.64,-7.92,-32.99,0.3,-7.56,-33.94,Forward Fall while Standing
25:32.1,997,303,454.5,1000,377,1.71,583.59,1.84,101.17,375,285,20724.28,253,429495808,4294961898,754,0.88,0.05,-0.68,-8.31,-23.11,-5.8,1.9,-50.66,-8.9,-36.18,-0.33,-8.47,-36.76,Forward Fall while Standing
25:32.2,43,283,424.5,1000,373,1.74,573.85,1.82,101.17,375,271,20724.28,253,429495808,2507,1025,0.77,0.07,-0.72,-6.85,-29,-3.51,3.02,-45,-9.7,-40.09,-0.68,-9.19,-40.29,Forward Fall while Standing
25:32.4,0,263,394.5,1000,373,1.74,573.85,1.82,101.17,375,240,20724.28,253,429495808,4294961867,1265,0.73,0.06,-0.77,-2.92,-31.72,-7.92,2.67,-41.83,-10,-44.37,-1.58,-9.49,-44.27,Forward Fall while Standing
25:32.5,997,312,468,1000,376,1.72,581.14,1.84,101.17,375,236,20724.28,253,429495808,4294952027,1501,0.68,0.08,-0.8,-0.89,-30.75,-6.61,3.51,-38.88,-10.04,-48.56,-2.33,-9.5,-48.18,Forward Fall while Standing
25:32.6,989,354,531,1000,374,1.74,576.27,1.83,101.17,375,257,20724.28,253,429495808,4294952540,1758,0.66,0.1,-0.88,-4.26,-29.08,-1.35,4.41,-35.21,-10.51,-52.51,-2.4,-9.91,-51.82,Forward Fall while Standing
25:32.8,504,363,544.5,1000,372,1.75,571.43,1.82,101.17,375,237,20724.28,253,429495808,4294943173,1995,0.59,0.1,-0.91,-3.37,-22.74,-6.19,4.46,-31.52,-10.87,-55.68,-3.09,-10.25,-54.71,Forward Fall while Standing
25:32.9,512,371,556.5,1000,378,1.71,586.05,1.85,101.17,375,277,20724.28,253,429495808,4294954366,2272,0.56,0.09,-0.95,-4.6,-19.34,-4.49,3.94,-28.82,-11.38,-58.39,-3.56,-10.77,-57.21,Forward Fall while Standing
25:33.0,501,378,567,1000,378,1.71,586.05,1.85,96.99,374,245,20724.26,251,429494880,0,0,0.53,0.1,-0.98,-1.34,-16.35,-1.04,4.32,-26.48,-11.48,-60.7,-3.59,-10.85,-59.33,Forward Fall while Standing
25:33.1,997,409,613.5,1000,377,1.71,583.59,1.84,96.99,374,239,20724.26,251,429494880,4294958881,239,0.46,0.11,-0.94,-1.06,-15.05,-9.39,5.56,-24.29,-11.54,-62.87,-4.68,-10.86,-61.32,Forward Fall while Standing
25:33.3,122,395,592.5,1000,377,1.71,583.59,1.84,96.99,374,279,20724.26,251,429494880,3890,518,0.45,0.11,-1.02,2.38,-15.71,-4.04,5.26,-22.03,-11.17,-65.12,-5.09,-10.51,-63.39,Forward Fall while Standing
25:33.4,62,380,570,1000,374,1.74,576.27,1.83,96.99,374,263,20724.26,251,429494880,7523,781,0.44,0.1,-1.01,-1.02,-19.15,-3.2,4.79,-21.56,-11.23,-67.78,-5.4,-10.59,-65.93,Forward Fall while Standing
25:33.5,149,370,555,1000,374,1.74,576.27,1.83,96.99,374,239,20724.26,251,429494880,4294966404,1020,0.39,0.11,-0.98,-1.83,-17.68,-4.15,5.48,-19.88,-11.39,-70.28,-5.82,-10.71,-68.26,Forward Fall while Standing
25:33.6,48,356,534,1000,376,1.72,581.14,1.84,96.99,374,241,20724.26,251,429494880,4294958949,1261,0.35,0.11,-1.06,0.01,-12.34,3.75,4.88,-16.6,-11.32,-72.1,-5.25,-10.67,-69.88,Forward Fall while Standing
25:33.8,0,342,513,1000,371,1.76,569.02,1.81,96.99,374,262,20724.26,251,429494880,4294962057,1523,0.38,0.11,-1.08,0.36,-6.94,-1.8,4.99,-17.67,-11.2,-73.24,-5.38,-10.55,-71.01,Forward Fall while Standing
25:33.9,19,330,495,1000,370,1.76,566.62,1.81,96.99,374,236,20724.26,251,429494880,4294952217,1759,0.32,0.12,-1.02,-1.96,-17.27,-3.62,5.69,-15.86,-11.38,-75.68,-5.73,-10.69,-73.29,Forward Fall while Standing
25:34.0,176,324,486,1000,372,1.75,571.43,1.82,96.99,374,285,20724.26,251,429494880,610,2044,0.27,0.09,-1.08,1.99,-31.22,-1.91,4.09,-12.12,-11.05,-79.9,-5.88,-10.45,-77.19,Forward Fall while Standing
25:34.2,278,322,483,1000,370,1.76,566.62,1.81,96.99,374,260,20724.26,251,429494880,2674,2304,0.24,0.1,-1.08,-0.63,-13.42,-0.38,4.85,-11.15,-11.06,-81.84,-5.82,-10.43,-79.02,Forward Fall while Standing
25:34.3,186,318,477,1000,370,1.76,566.62,1.81,90.22,373,238,20724.29,254,429496096,0,0,0.19,0.08,-1.1,-2.71,-29.29,-4.01,3.65,-8.11,-11.33,-85.79,-6.23,-10.73,-82.68,Forward Fall while Standing
25:34.4,814,334,501,1000,374,1.74,576.27,1.83,90.22,373,283,20724.29,254,429496096,14553,283,0.16,0.11,-1.07,-3.4,-2.64,-1.5,5.04,-7.02,-11.69,-86.37,-6.32,-11.02,-83.2,Forward Fall while Standing
25:34.5,157,328,492,1000,371,1.76,569.02,1.81,90.22,373,279,20724.29,254,429496096,26858,562,0.14,0.09,-1.05,0.76,-6.93,2.96,4.5,-6.05,-11.52,-87.5,-5.85,-10.88,-84.24,Forward Fall while Standing
25:34.7,0,318,477,1000,369,1.77,564.22,1.8,90.22,373,251,20724.29,254,429496096,24323,813,0.12,0.1,-1.08,2.77,-16.57,-1.09,4.73,-4.56,-11.1,-89.84,-5.88,-10.47,-86.43,Forward Fall while Standing
25:34.8,0,308,462,1000,371,1.76,569.02,1.81,90.22,373,239,20724.29,254,429496096,15908,1052,0.13,0.1,-1.09,-0.53,0.4,0.55,4.72,-5.26,-11.1,-90.04,-5.72,-10.47,-86.65,Forward Fall while Standing
25:34.9,256,307,460.5,1000,373,1.74,573.85,1.82,90.22,373,237,20724.29,254,429496096,6541,1289,0.17,0.1,-1.08,-2.6,10.87,0.26,4.89,-7.32,-11.36,-88.92,-5.58,-10.71,-85.66,Forward Fall while Standing
25:35.0,310,307,460.5,1000,370,1.76,566.62,1.81,90.22,373,251,20724.29,254,429496096,4006,1540,0.17,0.1,-1.09,-2.79,16.2,0.83,4.71,-7.39,-11.64,-87.13,-5.38,-10.99,-83.94,Forward Fall while Standing
25:35.2,0,298,447,1000,368,1.78,561.83,1.8,90.22,373,241,20724.29,254,429496096,4294963847,1781,0.23,0.11,-1.11,-1.18,23.24,1.69,4.92,-9.96,-11.72,-84.45,-5.07,-11.05,-81.47,Forward Fall while Standing
25:35.3,87,293,439.5,1000,372,1.75,571.43,1.82,90.22,373,236,20724.29,254,429496096,4294954007,2017,0.29,0.1,-1.13,-1.92,31.4,5.91,4.14,-12.87,-11.89,-80.72,-4.22,-11.25,-78.01,Forward Fall while Standing
25:35.4,464,297,445.5,1000,370,1.76,566.62,1.81,90.22,373,236,20724.29,254,429496096,4294944167,2253,0.34,0.11,-1.09,0.16,43.65,5.14,4.82,-15.73,-11.8,-75.43,-3.46,-11.13,-73.04,Forward Fall while Standing
25:35.5,116,293,439.5,1000,368,1.78,561.83,1.8,79.22,370,236,20724.22,248,429493440,0,0,0.41,0.09,-1.03,1.89,43.05,6.89,3.86,-20.24,-11.49,-70.3,-2.5,-10.88,-68.3,Forward Fall while Standing
25:35.7,457,297,445.5,1000,371,1.76,569.02,1.81,79.22,370,284,20724.22,248,429493440,15120,284,0.56,0.06,-1.01,1.59,52.49,5.21,2.63,-27.3,-11.22,-63.94,-1.75,-10.67,-62.47,Forward Fall while Standing
25:35.8,171,294,441,1000,369,1.77,564.22,1.8,79.22,370,284,20724.22,248,429493440,30240,568,0.66,0.06,-0.9,0.26,61.22,10.2,2.36,-34.43,-11.12,-56.48,-0.36,-10.58,-55.59,Forward Fall while Standing
25:35.9,0,287,430.5,1000,366,1.8,557.08,1.79,79.22,370,235,20724.22,248,429493440,19929,803,0.72,0.02,-0.78,2.02,64.32,4.7,0.66,-41.19,-10.79,-48.62,0.33,-10.33,-48.33,Forward Fall while Standing
25:36.0,0,280,420,1000,367,1.79,559.45,1.79,79.22,370,234,20724.22,248,429493440,9149,1037,0.81,0.02,-0.66,5.5,63.75,12.51,0.37,-49.24,-10.03,-40.84,2,-9.61,-41.18,Forward Fall while Standing
25:36.2,0,273,409.5,1000,368,1.78,561.83,1.8,79.22,370,285,20724.22,248,429493440,24838,1322,0.86,0,-0.54,6.69,66.85,7.08,-0.73,-56.41,-9.12,-32.74,2.99,-8.79,-33.68,Forward Fall while Standing
25:36.3,821,286,429,1000,366,1.8,557.08,1.79,79.22,370,233,20724.22,248,429493440,13591,1555,0.92,-0.02,-0.39,-3.57,46.21,-0.15,-1.48,-65.09,-9.51,-27.12,3.07,-9.18,-28.64,Forward Fall while Standing
25:36.4,0,279,418.5,1000,361,1.83,545.32,1.76,79.22,370,230,20724.22,248,429493440,955,1785,0.96,-0.01,-0.36,-12.96,38.85,-3.19,-0.91,-67.84,-11.06,-22.52,2.77,-10.65,-24.33,Forward Fall while Standing
25:36.5,0,273,409.5,1000,362,1.83,547.66,1.77,79.22,370,231,20724.22,248,429493440,4294956076,2016,1.01,-0.01,-0.29,-12.89,33.79,-4.13,-1.05,-72.6,-12.63,-18.45,2.34,-12.17,-20.61,Forward Fall while Standing
25:36.7,519,279,418.5,1000,360,1.84,542.99,1.76,79.22,370,232,20724.22,248,429493440,4294944364,2248,0.99,-0.04,-0.23,-7.14,29.5,3.11,-2.68,-74.96,-13.47,-14.96,2.84,-13.04,-17.36,Forward Fall while Standing
25:36.8,0,273,409.5,1000,358,1.86,538.35,1.75,44.98,364,232,20724.22,248,429493248,0,0,1,-0.02,-0.16,-1.79,18.33,1.95,-1.74,-79.41,-13.62,-12.91,3.18,-13.15,-15.57,Forward Fall while Standing
25:36.9,1000,287,430.5,1000,367,1.79,559.45,1.79,44.98,364,229,20724.22,248,429493248,4294954201,229,1.01,0,-0.14,-0.23,9.96,-5.31,-0.84,-80.66,-13.58,-11.9,2.6,-13.07,-14.65,Forward Fall while Standing
25:37.1,243,287,430.5,1000,361,1.83,545.32,1.76,44.98,364,228,20724.22,248,429493248,4294940649,457,1.02,0.03,-0.12,-0.94,4.05,-8.92,1.04,-81.7,-13.63,-11.64,1.57,-13.04,-14.44,Forward Fall while Standing
25:37.2,0,281,421.5,1000,357,1.87,536.04,1.74,44.98,364,228,20724.22,248,429493248,4294927097,685,1.03,0,-0.1,-0.3,2.67,-3.67,-0.46,-82.92,-13.6,-11.55,1.21,-13.07,-14.41,Forward Fall while Standing
25:37.3,0,276,414,1000,360,1.84,542.99,1.76,44.98,364,229,20724.22,248,429493248,4294914002,914,1.03,0.01,-0.07,-5.4,2.63,-2.53,-0.25,-84.27,-14.21,-11.47,0.99,-13.65,-14.38,Forward Fall while Standing
25:37.4,707,284,426,1000,362,1.83,547.66,1.77,44.98,364,228,20724.22,248,429493248,4294900450,1142,1.02,0.02,-0.09,-3.42,3.23,-1.41,0.65,-83.13,-14.57,-11.31,0.91,-13.97,-14.19,Forward Fall while Standing
25:37.6,122,281,421.5,1000,357,1.87,536.04,1.74,44.98,364,270,20724.22,248,429493248,4294907814,1412,1.01,0.03,-0.09,-3.23,-1.35,-5.22,0.92,-82.85,-14.91,-11.74,0.34,-14.28,-14.58,Forward Fall while Standing
25:46.3,573,573,859.5,573,339,2.02,495.61,1.66,0,0,229,0,0,0,4294941106,458,0.98,-0.05,-0.05,-2.06,-1.11,0.17,-3.71,-84.19,-0.57,-0.62,0.58,-0.69,-3.96,Sitting
25:46.5,98,335,502.5,573,339,2.02,495.61,1.66,0,0,228,0,0,0,4294927554,686,1.05,-0.09,-0.07,-1.59,-6.55,3.08,-5.45,-82.21,-0.69,-1.67,1.06,-0.88,-4.89,Sitting
25:46.6,145,272,408,573,338,2.03,493.43,1.65,0,0,228,0,0,0,4294914002,914,1.05,-0.06,-0.07,0.57,1.69,-2.03,-3.72,-83.41,-0.55,-1.71,0.9,-0.68,-4.98,Sitting
25:46.7,185,250,375,573,337,2.04,491.25,1.65,0,0,228,0,0,0,4294900450,1142,1.03,-0.06,-0.09,-3.61,3.37,-1.47,-4.15,-82.39,-0.93,-1.54,0.82,-1.06,-4.77,Sitting
25:46.8,154,231,346.5,573,336,2.04,489.08,1.64,0,0,229,0,0,0,4294887355,1371,1.01,-0.09,-0.05,-1.49,5.5,-1.26,-5.56,-82.71,-1.05,-1.1,0.76,-1.23,-4.37,Sitting
25:47.0,41,199,298.5,573,336,2.04,489.08,1.64,0,0,227,0,0,0,4294873348,1598,1.01,-0.08,-0.06,-2.42,-1.55,-2.24,-4.86,-82.86,-1.27,-1.54,0.58,-1.42,-4.79,Sitting
25:47.1,9,172,258,573,337,2.04,491.25,1.65,0,0,228,0,0,0,4294859796,1826,1.01,-0.07,-0.08,-1.57,-4.39,-1.27,-4.7,-82.27,-1.4,-2.33,0.52,-1.53,-5.53,Sitting
25:47.2,176,172,258,573,337,2.04,491.25,1.65,0,0,229,0,0,0,4294846701,2055,1.01,-0.07,-0.09,-2.38,-1.16,-1.33,-4.7,-81.93,-1.62,-2.72,0.46,-1.75,-5.89,Sitting
25:47.3,308,187,280.5,573,337,2.04,491.25,1.65,20723.89,337,228,20723.98,228,429483328,0,0,1.03,-0.08,-0.08,-1.77,0.02,0.1,-4.83,-82.34,-1.78,-2.97,0.57,-1.9,-6.14,Sitting
25:47.5,187,187,280.5,573,335,2.05,486.92,1.64,20723.89,337,228,20723.98,228,429483328,4294953744,228,1,-0.08,-0.05,0.4,-2.18,-0.08,-5.13,-82.95,-1.65,-3.5,0.66,-1.79,-6.68,Sitting
25:47.6,16,172,258,573,336,2.04,489.08,1.64,20723.89,337,230,20723.98,228,429483328,4294941108,458,1.03,-0.09,-0.09,-1.54,-0.37,-1.34,-5.42,-81.42,-1.78,-3.8,0.59,-1.92,-6.9,Sitting
25:47.7,295,182,273,573,337,2.04,491.25,1.65,20723.89,337,230,20723.98,228,429483328,4294928472,688,1.01,-0.07,-0.11,-2.05,0.26,-0.73,-4.59,-81.24,-1.97,-4.02,0.59,-2.07,-7.11,Sitting
25:47.8,246,187,280.5,573,335,2.05,486.92,1.64,20723.89,337,231,20723.98,228,429483328,4294916297,919,1.03,-0.08,-0.09,-1.44,1.11,-1.66,-4.93,-81.8,-2.08,-4.13,0.48,-2.19,-7.24,Sitting
25:48.0,0,173,259.5,573,335,2.05,486.92,1.64,20723.89,337,230,20723.98,228,429483328,4294903661,1149,0.97,-0.07,-0.04,-1.56,1.85,-0.74,-4.83,-83.43,-2.2,-4.15,0.49,-2.31,-7.32,Sitting
25:48.1,282,181,271.5,573,336,2.04,489.08,1.64,20723.89,337,230,20723.98,228,429483328,4294891025,1379,1.03,-0.08,-0.1,-2.04,1.6,-1.73,-5,-81.26,-2.39,-4.2,0.37,-2.5,-7.28,Sitting
25:48.2,238,184,276,573,335,2.05,486.92,1.64,20723.89,337,231,20723.98,228,429483328,4294878850,1610,1.03,-0.08,-0.09,-1.74,1.09,-1.08,-4.96,-81.64,-2.54,-4.32,0.33,-2.64,-7.41,Sitting
25:48.3,0,173,259.5,573,336,2.04,489.08,1.64,20723.89,337,231,20723.98,228,429483328,4294866675,1841,1.02,-0.06,-0.1,-1.66,0.37,-0.8,-4.07,-81.69,-2.68,-4.53,0.33,-2.74,-7.61,Sitting
25:48.5,343,183,274.5,573,337,2.04,491.25,1.65,20723.89,337,232,20723.98,228,429483328,4294854963,2073,1.01,-0.08,-0.08,-1.63,1.87,-0.93,-4.85,-82.27,-2.82,-4.54,0.31,-2.9,-7.65,Sitting
25:48.6,331,190,285,573,335,2.05,486.92,1.64,20723.86,335,231,20724,230,429484288,0,0,1.01,-0.07,-0.09,-1.97,0.3,-1.9,-4.52,-81.78,-3,-4.75,0.18,-3.06,-7.84,Sitting
25:48.7,27,182,273,573,335,2.05,486.92,1.64,20723.86,335,231,20724,230,429484288,4294955121,231,1.01,-0.08,-0.1,-1.72,-0.34,-1.01,-5.03,-81.42,-3.14,-5.05,0.15,-3.22,-8.1,Sitting
25:48.8,254,186,279,573,337,2.04,491.25,1.65,20723.86,335,231,20724,230,429484288,4294942946,462,1.02,-0.07,-0.1,-1.62,1.23,-1.19,-4.39,-81.85,-3.28,-5.15,0.1,-3.32,-8.21,Sitting
25:49.0,330,192,288,573,336,2.04,489.08,1.64,20723.86,335,232,20724,230,429484288,4294931234,694,1.03,-0.07,-0.1,-2.18,-0.21,-0.62,-4.59,-81.71,-3.48,-5.43,0.12,-3.53,-8.48,Sitting
25:49.1,21,185,277.5,573,336,2.04,489.08,1.64,20723.86,335,232,20724,230,429484288,4294919522,926,1.01,-0.07,-0.1,-1.73,-0.09,-1.09,-4.37,-81.62,-3.63,-5.69,0.08,-3.66,-8.73,Sitting
25:49.2,305,190,285,573,337,2.04,491.25,1.65,20723.86,335,232,20724,230,429484288,4294907810,1158,1.01,-0.07,-0.11,-1.69,1.05,-0.63,-4.72,-80.82,-3.77,-5.81,0.1,-3.81,-8.81,Sitting
25:49.4,297,194,291,573,335,2.05,486.92,1.64,20723.86,335,233,20724,230,429484288,4294896563,1391,1.02,-0.08,-0.1,-2.05,1.32,-0.75,-4.95,-81.37,-3.96,-5.9,0.11,-4,-8.92,Sitting
25:49.5,53,189,283.5,573,335,2.05,486.92,1.64,20723.86,335,233,20724,230,429484288,4294885316,1624,1.01,-0.08,-0.11,-2.27,1.26,-1.73,-4.99,-80.87,-4.18,-5.99,-0.01,-4.21,-8.99,Sitting
25:49.6,352,195,292.5,573,337,2.04,491.25,1.65,20723.86,335,234,20724,230,429484288,4294874536,1858,1.01,-0.08,-0.11,-2.02,1.44,-1.79,-4.96,-80.73,-4.37,-6.07,-0.14,-4.39,-9.05,Sitting
25:49.7,332,199,298.5,573,335,2.05,486.92,1.64,20723.86,335,232,20724,230,429484288,4294862824,2090,1.03,-0.07,-0.1,-2.13,1.58,-0.55,-4.53,-81.57,-4.56,-6.12,-0.11,-4.56,-9.14,Sitting
25:49.9,10,193,289.5,573,336,2.04,489.08,1.64,20723.86,335,233,20724.02,232,429485152,0,0,1.03,-0.07,-0.1,-1.69,1.63,-2.44,-4.63,-81.57,-4.71,-6.17,-0.32,-4.7,-9.18,Sitting
25:50.0,465,202,303,573,337,2.04,491.25,1.65,20723.86,335,234,20724.02,232,429485152,4294956516,234,1.02,-0.08,-0.1,-1.89,1.36,-1.34,-5.01,-81.34,-4.87,-6.25,-0.39,-4.88,-9.25,Sitting
25:50.1,284,205,307.5,573,336,2.04,489.08,1.64,20723.86,335,234,20724.02,232,429485152,4294945736,468,1.01,-0.06,-0.09,-2.57,1.18,0.12,-4.19,-82.07,-5.13,-6.35,-0.27,-5.09,-9.38,Sitting
25:50.2,47,200,300,573,335,2.05,486.92,1.64,20723.86,335,234,20724.02,232,429485152,4294934956,702,1.02,-0.07,-0.09,-1.38,1.58,-2.32,-4.75,-81.73,-5.23,-6.4,-0.46,-5.22,-9.42,Sitting
25:50.4,192,199,298.5,573,337,2.04,491.25,1.65,20723.86,335,234,20724.02,232,429485152,4294924176,936,1.03,-0.07,-0.1,-2.9,0.52,-0.73,-4.39,-81.71,-5.53,-6.59,-0.45,-5.49,-9.6,Sitting
25:50.5,261,201,301.5,573,336,2.04,489.08,1.64,20723.86,335,235,20724.02,232,429485152,4294913865,1171,1.02,-0.07,-0.1,-1.36,1.85,-1.64,-4.52,-81.73,-5.63,-6.61,-0.56,-5.59,-9.62,Sitting
25:50.6,74,198,297,573,335,2.05,486.92,1.64,20723.86,335,235,20724.02,232,429485152,4294903554,1406,1.02,-0.07,-0.1,-2.69,2.01,-0.97,-4.57,-81.51,-5.9,-6.61,-0.58,-5.85,-9.61,Sitting
25:50.7,306,201,301.5,573,337,2.04,491.25,1.65,20723.86,335,235,20724.02,232,429485152,4294893243,1641,1.02,-0.07,-0.09,0.17,0.99,-1.87,-4.61,-81.8,-5.81,-6.74,-0.72,-5.76,-9.74,Sitting
25:50.9,308,203,304.5,573,335,2.05,486.92,1.64,20723.86,335,234,20724.02,232,429485152,4294882463,1875,1.01,-0.06,-0.09,-2.94,1.73,-0.37,-3.99,-82.46,-6.11,-6.77,-0.67,-6.03,-9.8,Sitting
25:51.0,0,198,297,573,336,2.04,489.08,1.64,20723.86,335,235,20724.02,232,429485152,4294872152,2110,1.02,-0.08,-0.09,-1.96,0.61,-1.02,-4.95,-81.71,-6.29,-6.95,-0.7,-6.24,-9.94,Sitting
25:51.1,376,203,304.5,573,336,2.04,489.08,1.64,20723.87,336,235,20724.05,234,429486176,0,0,1.02,-0.08,-0.1,-1.67,1.24,-0.73,-4.82,-81.42,-6.43,-7.04,-0.69,-6.36,-10.02,Sitting
25:51.3,344,206,309,573,336,2.04,489.08,1.64,20723.87,336,235,20724.05,234,429486176,4294956985,235,1.02,-0.07,-0.09,-2.08,0.45,-1.26,-4.23,-82.26,-6.62,-7.24,-0.75,-6.53,-10.24,Sitting
25:51.4,43,202,303,573,336,2.04,489.08,1.64,20723.87,336,235,20724.05,234,429486176,4294946674,470,1.02,-0.07,-0.08,-2.58,1.35,-1.18,-4.65,-82.52,-6.88,-7.32,-0.8,-6.79,-10.33,Sitting
25:51.5,338,205,307.5,573,337,2.04,491.25,1.65,20723.87,336,235,20724.05,234,429486176,4294936363,705,1.02,-0.08,-0.09,-2.21,0.02,-0.77,-4.88,-81.65,-7.09,-7.57,-0.8,-7,-10.54,Sitting
25:51.6,341,209,313.5,573,335,2.05,486.92,1.64,20723.87,336,236,20724.05,234,429486176,4294926523,941,1.02,-0.08,-0.1,-1.95,2.34,-1.15,-5.09,-81.22,-7.27,-7.53,-0.84,-7.18,-10.48,Sitting
25:51.8,17,204,306,573,336,2.04,489.08,1.64,20723.87,336,237,20724.05,234,429486176,4294917156,1178,1.02,-0.08,-0.08,-1.8,0.52,-1,-4.94,-82.13,-7.42,-7.72,-0.87,-7.32,-10.7,Sitting
25:51.9,406,209,313.5,573,337,2.04,491.25,1.65,20723.87,336,237,20724.05,234,429486176,4294907789,1415,1.02,-0.07,-0.09,-1.84,1.4,-0.82,-4.63,-81.77,-7.59,-7.8,-0.87,-7.47,-10.76,Sitting
25:52.0,706,219,328.5,706,335,2.05,486.92,1.64,20723.87,336,236,20724.05,234,429486176,4294897949,1651,1.02,-0.07,-0.09,-2.09,1.5,-1.1,-4.47,-82.06,-7.78,-7.86,-0.91,-7.65,-10.83,Sitting
25:52.1,24,215,322.5,706,337,2.04,491.25,1.65,20723.87,336,237,20724.05,234,429486176,4294888582,1888,1.03,-0.08,-0.09,-0.75,1.53,-1.53,-5.14,-81.72,-7.81,-7.92,-1.01,-7.7,-10.87,Sitting
25:52.3,458,220,330,706,336,2.04,489.08,1.64,20723.87,336,237,20724.05,234,429486176,4294879215,2125,1.03,-0.07,-0.09,-2.1,1.05,-0.97,-4.45,-82.16,-8,-8.04,-1.03,-7.86,-11.01,Sitting
25:52.4,150,219,328.5,706,335,2.05,486.92,1.64,20723.87,336,236,20724.07,236,429486944,0,0,1.02,-0.07,-0.08,-1.75,1.06,-0.69,-4.64,-82.33,-8.15,-8.16,-1.02,-8.01,-11.13,Sitting
25:52.5,78,216,324,706,336,2.04,489.08,1.64,20723.87,336,237,20724.07,236,429486944,4294957929,237,1.02,-0.08,-0.08,-1.78,0.75,-0.69,-5.03,-82.09,-8.31,-8.32,-1,-8.18,-11.27,Sitting
25:52.7,280,217,325.5,706,336,2.04,489.08,1.64,20723.87,336,237,20724.07,236,429486944,4294948562,474,1.02,-0.07,-0.09,-2.19,1.32,-0.92,-4.64,-82.01,-8.51,-8.4,-1.02,-8.36,-11.35,Sitting
25:52.8,84,215,322.5,706,334,2.06,484.76,1.63,20723.87,336,238,20724.07,236,429486944,4294939670,712,1.02,-0.07,-0.08,-2.15,0.79,-1.08,-4.7,-82.23,-8.72,-8.56,-1.06,-8.55,-11.5,Sitting
25:52.9,46,212,318,706,336,2.04,489.08,1.64,20723.87,336,238,20724.07,236,429486944,4294930778,950,1.03,-0.08,-0.08,-2.1,0.91,-0.94,-4.99,-82.23,-8.91,-8.7,-1.08,-8.75,-11.64,Sitting
25:53.0,370,214,321,706,336,2.04,489.08,1.64,20723.87,336,237,20724.07,236,429486944,4294921411,1187,1.02,-0.08,-0.08,-2.02,-0.4,-0.31,-4.93,-82.24,-9.1,-9,-1.02,-8.93,-11.93,Sitting
25:53.2,169,214,321,706,334,2.06,484.76,1.63,20723.87,336,237,20724.07,236,429486944,4294912044,1424,1.03,-0.07,-0.09,-2,1.83,-0.75,-4.73,-81.74,-9.28,-9.02,-1.01,-9.1,-11.93,Sitting
25:53.3,173,213,319.5,706,336,2.04,489.08,1.64,20723.87,336,238,20724.07,236,429486944,4294903152,1662,1.02,-0.08,-0.09,-1.85,0.37,-1.27,-4.93,-81.69,-9.45,-9.23,-1.07,-9.26,-12.13,Sitting
25:53.4,344,215,322.5,706,334,2.06,484.76,1.63,20723.87,336,237,20724.07,236,429486944,4294893785,1899,1.03,-0.09,-0.09,-1.82,0.78,-0.75,-5.35,-81.53,-9.61,-9.39,-1.07,-9.44,-12.27,Sitting
25:53.5,49,212,318,706,333,2.07,482.61,1.63,20723.87,336,239,20724.07,236,429486944,4294885370,2138,1.02,-0.08,-0.08,-1.7,1.53,-0.26,-5.28,-82.03,-9.75,-9.45,-1,-9.57,-12.35,Sitting
25:53.7,245,213,319.5,706,335,2.05,486.92,1.64,20723.85,335,239,20724.08,237,429487680,0,0,1.03,-0.08,-0.08,-2.06,2.21,-0.7,-5.1,-82.03,-9.94,-9.42,-0.99,-9.74,-12.33,Sitting
25:53.8,381,216,324,706,332,2.08,480.46,1.62,20723.85,335,239,20724.08,237,429487680,4294958881,239,1.02,-0.08,-0.08,-2.87,2.04,-0.45,-5.24,-82.06,-10.23,-9.42,-0.95,-10.03,-12.32,Sitting
25:53.9,95,214,321,706,331,2.09,478.32,1.62,20723.85,335,239,20724.08,237,429487680,4294950466,478,1.02,-0.09,-0.09,-2.56,0.9,1.08,-5.75,-81.35,-10.49,-9.56,-0.71,-10.3,-12.43,Sitting
25:54.0,205,213,319.5,706,332,2.08,480.46,1.62,20723.85,335,240,20724.08,237,429487680,4294942530,718,1.02,-0.09,-0.1,0.53,0.24,-1.15,-5.82,-80.96,-10.35,-9.78,-0.75,-10.17,-12.63,Sitting
25:54.2,320,215,322.5,706,330,2.1,476.19,1.61,20723.85,335,238,20724.08,237,429487680,4294933638,956,1.01,-0.1,-0.1,-4.2,-0.46,-0.02,-6.24,-80.41,-10.82,-10.09,-0.66,-10.63,-12.91,Sitting
25:54.3,311,217,325.5,706,330,2.1,476.19,1.61,20723.85,335,238,20724.08,237,429487680,4294924746,1194,1.02,-0.09,-0.09,-1.77,-3.68,-2.55,-5.52,-81.33,-10.97,-10.82,-0.88,-10.75,-13.64,Sitting
25:54.4,257,217,325.5,706,330,2.1,476.19,1.61,20723.85,335,239,20724.08,237,429487680,4294916331,1433,1.01,-0.09,-0.12,-2.68,-5.85,-2.06,-5.39,-80.23,-11.24,-11.83,-1.04,-11.01,-14.56,Sitting
25:54.6,185,217,325.5,706,328,2.12,471.94,1.6,20723.85,335,239,20724.08,237,429487680,4294907916,1672,1.03,-0.08,-0.14,-1,-0.33,0.31,-5.13,-79.31,-11.3,-12.12,-0.9,-11.05,-14.81,Sitting
25:54.7,24,214,321,706,331,2.09,478.32,1.62,20723.85,335,239,20724.08,237,429487680,4294899501,1911,1.04,-0.08,-0.15,-10.18,2.56,-0.67,-5.11,-78.93,-12.52,-12.05,-0.89,-12.22,-14.73,Sitting
25:54.8,621,220,330,706,329,2.11,474.06,1.61,20723.85,335,239,20724.08,237,429487680,4294891086,2150,1.08,-0.09,-0.18,-13.92,-2.31,-1.89,-5.29,-78.1,-14.23,-12.6,-1.03,-13.87,-15.22,Sitting
25:54.9,283,221,331.5,706,328,2.12,471.94,1.6,20723.77,330,239,20724.1,238,429488256,0,0,1.01,-0.1,-0.11,-1.61,-4.24,-1.54,-5.94,-80.27,-14.36,-13.4,-1.12,-14.03,-16.07,Sitting
25:55.1,266,221,331.5,706,330,2.1,476.19,1.61,20723.77,330,239,20724.1,238,429488256,4294958881,239,1.01,-0.07,-0.15,-4.15,-1.9,-1.66,-4.51,-78.85,-14.82,-13.89,-1.23,-14.41,-16.49,Sitting
25:55.2,298,222,333,706,328,2.12,471.94,1.6,20723.77,330,239,20724.1,238,429488256,4294950466,478,1.02,-0.11,-0.12,-1.09,7.81,-0.68,-6.48,-79.65,-14.89,-13.15,-1.22,-14.55,-15.81,Sitting
25:55.3,0,219,328.5,706,328,2.12,471.94,1.6,20723.77,330,240,20724.1,238,429488256,4294942530,718,1.01,-0.09,-0.11,-2.7,6.6,-1.34,-5.91,-80.11,-15.16,-12.56,-1.29,-14.79,-15.26,Sitting
25:55.5,403,222,333,706,329,2.11,474.06,1.61,20723.77,330,241,20724.1,238,429488256,4294935075,959,1.03,-0.09,-0.1,-0.62,3.92,-4.02,-5.59,-80.82,-15.17,-12.31,-1.7,-14.79,-15.06,Sitting
25:55.6,361,224,336,706,327,2.13,469.83,1.6,20723.77,330,240,20724.1,238,429488256,4294927139,1199,1.02,-0.07,-0.12,-2.6,-2.04,-1.7,-4.73,-80.49,-15.43,-12.83,-1.82,-15,-15.54,Sitting
25:55.7,159,223,334.5,706,329,2.11,474.06,1.61,20723.77,330,240,20724.1,238,429488256,4294919203,1439,1,-0.08,-0.07,-2.89,0.85,0.07,-5.21,-82.37,-15.73,-12.98,-1.71,-15.31,-15.76,Sitting
25:55.8,382,225,337.5,706,327,2.13,469.83,1.6,20723.77,330,239,20724.1,238,429488256,4294910788,1678,0.93,-0.09,0,0.42,10.36,-4.14,-5.85,-83.15,-15.6,-11.91,-2.14,-15.21,-14.76,Sitting
25:56.0,90,223,334.5,706,326,2.14,467.72,1.59,20723.77,330,240,20724.1,238,429488256,4294902852,1918,1.03,-0.07,-0.1,-1.92,-1.08,-3.47,-4.61,-81.41,-15.78,-12.3,-2.48,-15.33,-15.07,Sitting
25:56.1,340,225,337.5,706,328,2.12,471.94,1.6,20723.77,330,240,20724.1,238,429488256,4294894916,2158,1.01,-0.08,-0.11,-1.26,-2.68,-2.18,-4.86,-80.86,-15.87,-12.9,-2.66,-15.43,-15.62,Sitting
25:56.2,361,226,339,706,326,2.14,467.72,1.59,20723.73,327,241,20724.11,239,429488736,0,0,1.01,-0.07,-0.1,-2.02,-0.72,-2.91,-4.26,-81.49,-16.05,-13.25,-2.92,-15.58,-15.98,Sitting
25:56.3,91,225,337.5,706,327,2.13,469.83,1.6,20723.73,327,240,20724.11,239,429488736,4294959360,240,1.02,-0.08,-0.1,-1.66,2.21,-0.37,-5.28,-81.12,-16.19,-13.22,-2.87,-15.76,-15.94,Sitting
25:56.5,390,227,340.5,706,328,2.12,471.94,1.6,20723.73,327,240,20724.11,239,429488736,4294951424,480,1.04,-0.08,-0.13,-3.26,2.59,-5.73,-4.79,-79.95,-16.54,-13.14,-3.5,-16.07,-15.82,Sitting
25:56.6,520,230,345,706,326,2.14,467.72,1.59,20723.73,327,241,20724.11,239,429488736,4294943969,721,1.02,-0.04,-0.1,-4.68,0.94,8.28,-2.98,-82.2,-17.07,-13.28,-2.34,-16.5,-16.04,Sitting
25:56.7,83,229,343.5,706,328,2.12,471.94,1.6,20723.73,327,241,20724.11,239,429488736,4294936514,962,1.07,-0.08,-0.12,-2.21,0.12,-6.09,-4.85,-80.53,-17.28,-13.52,-3.01,-16.78,-16.2,Sitting
25:56.9,436,231,346.5,706,327,2.13,469.83,1.6,20723.73,327,240,20724.11,239,429488736,4294928578,1202,1.01,-0.08,-0.11,-1.56,-3.22,4.21,-5.12,-80.75,-17.4,-14.19,-2.37,-16.91,-16.85,Sitting
25:57.0,64,229,343.5,706,326,2.14,467.72,1.59,20723.73,327,241,20724.11,239,429488736,4294921123,1443,0.97,-0.03,-0.1,5.9,-0.05,1.63,-2.52,-82.44,-16.58,-14.45,-2.07,-16.01,-17.17,Sitting
25:57.1,245,229,343.5,706,328,2.12,471.94,1.6,20723.73,327,242,20724.11,239,429488736,4294914151,1685,1.04,-0.07,-0.12,3.65,2.66,-1.52,-4.64,-80.53,-16.04,-14.37,-2.16,-15.59,-17.01,Sitting
26:01.6,513,560,840,980,223,3.59,278.75,1.09,0,0,269,0,0,0,14189,539,0.69,0.68,-0.06,-3.35,-1.31,-32.61,43.78,-43.87,-0.02,-0.81,-8.32,1.73,-2.53,Left Fall while Sitting
26:01.7,860,575,862.5,980,218,3.69,270.81,1.07,0,0,268,0,0,0,20477,807,0.67,0.7,-0.05,-4.56,-0.14,-24.6,45.75,-41.94,-0.51,-1.07,-11.23,1.34,-2.7,Left Fall while Sitting
26:01.9,407,567,850.5,980,215,3.76,266.09,1.05,0,0,266,0,0,0,25697,1073,0.63,0.71,-0.03,-3.67,-5.66,-14.95,47.93,-39.84,-0.89,-2,-12.96,1.06,-3.51,Left Fall while Sitting
26:02.0,249,553,829.5,980,211,3.85,259.85,1.03,0,0,235,0,0,0,15386,1308,0.66,0.78,-0.04,-3.9,-3.49,-16.18,49,-38.73,-1.3,-2.67,-14.83,0.72,-4.11,Left Fall while Sitting
26:02.1,456,549,823.5,980,207,3.94,253.68,1.01,0,0,242,0,0,0,8414,1550,0.64,0.81,-0.05,-3.09,-4.66,-16.81,50.66,-37.02,-1.6,-3.47,-16.76,0.49,-4.81,Left Fall while Sitting
26:02.2,729,556,834,980,204,4.01,249.08,1,0,0,236,0,0,0,4294965870,1786,0.59,0.78,-0.05,-1.93,-3.7,-15.77,52.27,-35.41,-1.77,-4.17,-18.6,0.39,-5.42,Left Fall while Sitting
26:02.4,191,542,813,980,206,3.97,252.14,1.01,0,0,233,0,0,0,4294954623,2019,0.55,0.82,-0.05,0.7,2.66,-9.03,55.31,-32.39,-1.61,-4.09,-19.61,0.66,-5.22,Left Fall while Sitting
26:02.5,72,525,787.5,980,211,3.85,259.85,1.03,0,0,222,0,0,0,4294938371,2241,0.54,0.84,-0.08,0.96,1.53,-12.54,56.46,-30.98,-1.43,-4.15,-21.05,0.89,-5.22,Left Fall while Sitting
26:02.6,605,528,792,980,216,3.74,267.66,1.06,20723.82,213,208,20724.18,244,429491616,0,0,0.5,0.8,-0.09,0.52,-1.05,-11.34,56.9,-30.34,-1.29,-4.52,-22.35,1.03,-5.56,Left Fall while Sitting
26:02.7,567,529,793.5,980,224,3.57,280.35,1.09,20723.82,213,255,20724.18,244,429491616,4294966785,255,0.51,0.87,-0.09,-0.41,1.69,-10.06,58.57,-28.7,-1.28,-4.56,-23.51,1.12,-5.53,Left Fall while Sitting
26:02.8,197,518,777,980,213,3.8,262.96,1.04,20723.82,213,238,20724.18,244,429491616,4294957893,493,0.48,0.88,-0.09,-0.14,2.46,-6.65,60.14,-27.17,-1.22,-4.51,-24.25,1.23,-5.41,Left Fall while Sitting
26:03.0,156,506,759,980,205,3.99,250.61,1,20723.82,213,230,20724.18,244,429491616,4294945257,723,0.48,0.88,-0.09,-2.85,-0.19,-4.45,60.23,-27.02,-1.51,-4.78,-24.71,0.96,-5.67,Left Fall while Sitting
26:03.1,1000,522,783,1000,217,3.71,269.23,1.06,20723.82,213,204,20724.18,244,429491616,4294921337,927,0.48,0.87,-0.09,-0.69,-0.78,-2.5,60.06,-27.24,-1.53,-5.13,-24.93,0.94,-6.01,Left Fall while Sitting
26:03.2,994,536,804,1000,221,3.63,275.56,1.08,20723.82,213,254,20724.18,244,429491616,4294920317,1181,0.48,0.86,-0.08,-2.53,-1.28,-1.87,59.9,-27.45,-1.78,-5.54,-25.06,0.69,-6.42,Left Fall while Sitting
26:03.4,381,531,796.5,1000,208,3.92,255.21,1.02,20723.82,213,232,20724.18,244,429491616,4294908605,1413,0.49,0.86,-0.09,-1.4,0.13,-1.99,59.3,-28.03,-1.88,-5.78,-25.21,0.56,-6.67,Left Fall while Sitting
26:03.5,238,523,784.5,1000,210,3.87,258.3,1.03,20723.82,213,212,20724.18,244,429491616,4294888013,1625,0.47,0.86,-0.09,-1.82,-0.48,-2.56,60.4,-26.89,-2.04,-6.09,-25.44,0.46,-6.92,Left Fall while Sitting
26:03.6,563,524,786,1000,222,3.61,277.15,1.09,20723.82,213,250,20724.18,244,429491616,4294884977,1875,0.47,0.85,-0.1,-0.56,1.2,0.04,60.17,-26.94,-2.04,-6.19,-25.33,0.45,-7.02,Left Fall while Sitting
26:03.7,425,521,781.5,1000,215,3.76,266.09,1.05,20723.82,213,251,20724.18,244,429491616,4294882442,2126,0.47,0.86,-0.11,0.82,0.8,-0.92,60.21,-26.86,-1.87,-6.34,-25.35,0.61,-7.16,Left Fall while Sitting
26:03.9,0,508,762,1000,203,4.04,247.56,0.99,20723.83,213,227,20724.07,235,429486848,0,0,0.47,0.87,-0.12,-0.98,0.23,-1.07,60.16,-26.66,-1.92,-6.56,-25.38,0.56,-7.36,Left Fall while Sitting
26:04.0,162,499,748.5,1000,209,3.89,256.76,1.02,20723.83,213,209,20724.07,235,429486848,4294945441,209,0.47,0.87,-0.12,-0.75,1.47,1.31,60.35,-26.5,-1.94,-6.63,-25.12,0.55,-7.42,Left Fall while Sitting
26:04.1,377,496,744,1000,220,3.65,273.97,1.08,20723.83,213,247,20724.07,235,429486848,4294940914,456,0.47,0.85,-0.11,-2.42,0.45,-0.26,60.04,-26.9,-2.18,-6.82,-25.05,0.31,-7.63,Left Fall while Sitting
26:04.2,185,488,732,1000,216,3.74,267.66,1.06,20723.83,213,250,20724.07,235,429486848,4294937878,706,0.48,0.86,-0.12,-1.76,0.33,3.03,59.7,-27.19,-2.33,-7.03,-24.58,0.15,-7.84,Left Fall while Sitting
26:04.4,133,480,720,1000,204,4.01,249.08,1,20723.83,213,228,20724.07,235,429486848,4294924326,934,0.48,0.87,-0.1,-3.31,1.3,6.24,59.96,-27.2,-2.67,-7.12,-23.7,-0.17,-7.92,Left Fall while Sitting
26:04.5,581,482,723,1000,211,3.85,259.85,1.03,20723.83,213,189,20724.07,235,429486848,4294894511,1123,0.48,0.86,-0.1,-4.27,1.39,9.7,59.79,-27.38,-3.14,-7.2,-22.37,-0.62,-8,Left Fall while Sitting
26:04.6,827,490,735,1000,223,3.59,278.75,1.09,20723.83,213,249,20724.07,235,429486848,4294890976,1372,0.54,0.84,-0.09,-4.74,-0.56,13.9,56.24,-31.04,-3.67,-7.52,-20.52,-1.27,-8.46,Left Fall while Sitting
26:04.7,634,502,753,997,211,3.85,259.85,1.03,20723.83,213,232,20724.07,235,429486848,4294879264,1604,0.57,0.83,-0.1,-2.08,-0.63,30.16,54.24,-32.96,-3.86,-7.85,-16.62,-1.53,-8.86,Left Fall while Sitting
26:04.9,223,497,745.5,997,205,3.99,250.61,1,20723.83,213,187,20724.07,235,429486848,4294848697,1791,0.62,0.78,-0.11,-3.8,4.81,35.11,50.69,-36.42,-4.27,-7.5,-12.1,-2.07,-8.65,Left Fall while Sitting
26:05.0,332,494,741,997,218,3.69,270.81,1.07,20723.83,213,232,20724.07,235,429486848,4294836985,2023,0.67,0.71,-0.09,-4.13,11.02,39.62,45.76,-41.58,-4.72,-6.36,-7.01,-2.7,-7.77,Left Fall while Sitting
26:05.1,695,497,745.5,997,217,3.71,269.23,1.06,20723.82,213,251,20723.98,227,429483456,0,0,0.74,0.67,-0.08,-8.6,10.94,38.39,41.28,-46.17,-5.71,-5.25,-2.15,-3.83,-6.89,Left Fall while Sitting
26:05.2,226,492,738,997,209,3.89,256.76,1.02,20723.82,213,230,20723.98,227,429483456,4294954660,230,0.85,0.57,-0.06,-8.74,7.38,37.9,33.27,-54.38,-6.73,-4.58,2.69,-5.13,-6.57,Left Fall while Sitting
26:05.4,652,495,742.5,997,205,3.99,250.61,1,20723.82,213,184,20723.98,227,429483456,4294922980,414,0.91,0.49,-0.02,-8.37,5.62,39.5,28.05,-59.78,-7.72,-4.12,7.76,-6.29,-6.35,Left Fall while Sitting
26:05.5,710,499,748.5,997,217,3.71,269.23,1.06,20723.82,213,242,20723.98,227,429483456,4294916008,656,0.93,0.39,0.03,-9.92,6.15,49.08,22.17,-65.62,-8.89,-3.61,14,-7.65,-6.09,Left Fall while Sitting
26:05.6,389,389,583.5,389,219,3.67,272.39,1.07,20723.82,213,258,20723.98,227,429483456,4294917036,914,0.98,0.34,0.01,-4.7,10.08,50.53,18.32,-69.51,-9.41,-2.6,20.41,-8.3,-5.27,Left Fall while Sitting
26:05.7,723,556,834,723,206,3.97,252.14,1.01,20723.82,213,239,20723.98,227,429483456,4294908621,1153,0.99,0.18,0.03,-8.1,4.02,42.47,9.88,-77.85,-10.36,-2.34,25.86,-9.55,-5.36,Left Fall while Sitting
26:05.9,681,597,895.5,723,208,3.92,255.21,1.02,20723.82,213,206,20723.98,227,429483456,4294885521,1359,0.99,0.1,0.07,-7.49,-4.77,29.58,5.01,-81.56,-11.22,-3.19,29.66,-10.57,-6.32,Left Fall while Sitting
26:06.0,133,480,720,1000,221,3.63,275.56,1.08,20723.82,213,262,20723.98,227,429483456,4294888629,1621,1,0.04,0.03,-5.41,-8.31,20.54,1.94,-85.33,-11.83,-4.48,32.32,-11.28,-7.71,Left Fall while Sitting
26:06.1,581,482,723,1000,214,3.78,264.52,1.05,20723.82,213,263,20723.98,227,429483456,4294892262,1884,1.01,0.01,0.02,-3.71,-5.37,18.45,-0.12,-86.95,-12.23,-5.4,34.75,-11.74,-8.67,Left Fall while Sitting
26:06.2,827,490,735,1000,202,4.06,246.04,0.99,20723.82,213,240,20723.98,227,429483456,4294884326,2124,1.01,-0.03,0,-2.56,-5.05,18.57,-2.19,-86.81,-12.48,-6.29,37.19,-12.07,-9.51,Left Fall while Sitting
26:06.4,634,502,753,997,215,3.76,266.09,1.05,20723.8,211,231,20724.07,235,429487200,0,0,1.04,-0.03,-0.02,-0.02,-8.05,1.76,-2.29,-86.34,-12.41,-7.55,37.51,-12.01,-10.7,Left Fall while Sitting
26:06.5,223,497,745.5,997,223,3.59,278.75,1.09,20723.8,211,265,20724.07,235,429487200,4689,265,1.04,-0.04,-0.01,0.08,-1.78,-6.76,-2.54,-86.31,-12.33,-8.02,36.76,-11.94,-11.15,Left Fall while Sitting
26:06.6,332,494,741,997,211,3.85,259.85,1.03,20723.8,211,247,20724.07,235,429487200,162,512,0.99,-0.04,-0.03,0.91,-0.9,-7.37,-2.61,-85.66,-12.15,-8.38,35.94,-11.77,-11.48,Left Fall while Sitting
26:06.7,695,497,745.5,997,203,4.04,247.56,0.99,20723.8,211,241,20724.07,235,429487200,4294960003,753,0.99,-0.03,-0.03,-2.72,0.89,-7.04,-2.45,-86,-12.42,-8.52,35.15,-12.02,-11.62,Left Fall while Sitting
26:06.9,226,492,738,997,216,3.74,267.66,1.06,20723.8,211,239,20724.07,235,429487200,4294951588,992,1.07,-0.01,-0.04,-0.31,5.55,-5.2,-0.98,-86.32,-12.39,-8.08,34.6,-11.93,-11.21,Left Fall while Sitting
26:07.0,412,412,618,412,218,3.69,270.81,1.07,20723.8,211,267,20724.07,235,429487200,4294957341,1259,1.04,0.01,-0.04,-2.34,5.07,-6.43,0.12,-86.25,-12.61,-7.69,33.89,-12.1,-10.83,Left Fall while Sitting
26:07.1,184,298,447,412,205,3.99,250.61,1,20723.8,211,244,20724.07,235,429487200,4294951341,1503,0.96,0.02,0,5.83,8.77,-6.81,0.82,-87.01,-11.8,-6.83,33.12,-11.3,-10.04,Left Fall while Sitting
26:07.2,205,267,400.5,412,210,3.87,258.3,1.03,20723.8,211,202,20724.07,235,429487200,4294926609,1705,1.03,0.02,0.03,2.25,5.25,-3.22,0.53,-86.41,-11.45,-6.42,32.82,-10.97,-9.62,Left Fall while Sitting
26:07.4,220,255,382.5,412,220,3.65,273.97,1.08,20723.8,211,262,20724.07,235,429487200,4294929717,1967,1,0.03,0.03,-1.11,9.08,-5,1.32,-85.87,-11.52,-5.53,32.29,-11,-8.75,Left Fall while Sitting
26:07.5,220,255,382.5,412,236,3.33,299.87,1.15,20723.8,211,234,20724.07,235,429487200,4294918937,2201,1.03,0.05,0.08,-1.37,19.4,-1.36,2.22,-83.24,-11.62,-3.32,32.22,-11.07,-6.52,Left Fall while Sitting
26:07.6,1001,30,45,1001,295,2.47,405.22,1.44,20723.95,223,266,20724.2,246,429492416,0,0,1,0.04,0.1,-1.39,11.16,-1.14,1.94,-82.21,-11.72,-2.18,32.17,-11.18,-5.38,Left Fall while Sitting
26:07.7,1001,50,75,1001,319,2.21,453.13,1.56,20723.95,223,272,20724.2,246,429492416,8448,272,1.01,0.03,0.13,-3.6,3.99,0.12,1.36,-80.74,-12.11,-1.93,32.29,-11.57,-5.08,Left Fall while Sitting
26:07.9,1001,68,102,1001,327,2.13,469.83,1.6,20723.95,223,272,20724.2,246,429492416,16896,544,1.02,0.04,0.1,-0.63,2.37,-1.68,1.43,-82.49,-12.12,-1.88,32.17,-11.57,-5.1,Left Fall while Sitting
26:08.0,1001,86,129,1001,329,2.11,474.06,1.61,20723.95,223,271,20724.2,246,429492416,24801,815,1.01,0.04,0.11,-2.08,4.18,1.21,1.85,-81.89,-12.31,-1.6,32.43,-11.74,-4.81,Left Fall while Sitting
26:08.1,1001,104,156,1001,332,2.08,480.46,1.62,20723.95,223,222,20724.2,246,429492416,8549,1037,1.01,0.03,0.12,-3.3,1.38,-0.21,1,-81.28,-12.65,-1.68,32.5,-12.1,-4.86,Left Fall while Sitting
26:08.3,7,102,153,1001,322,2.18,459.34,1.57,20723.95,223,221,20724.2,246,429492416,4294959150,1258,1.01,0.03,0.13,-1.95,2.72,-0.29,1.15,-80.88,-12.83,-1.59,32.56,-12.27,-4.76,Left Fall while Sitting
26:08.4,0,100,150,1001,317,2.23,449.01,1.55,20723.95,223,220,20724.2,246,429492416,4294942014,1478,1,0.02,0.14,-3.5,1.78,-0.44,0.41,-80.48,-13.2,-1.62,32.61,-12.66,-4.77,Left Fall while Sitting
26:08.5,0,98,147,1001,317,2.23,449.01,1.55,20723.95,223,220,20724.2,246,429492416,4294924878,1698,0.99,0.01,0.14,-1.95,1.2,-0.95,0.05,-80.09,-13.38,-1.72,32.59,-12.84,-4.85,Left Fall while Sitting
26:08.6,153,99,148.5,1001,318,2.22,451.06,1.55,20723.95,223,221,20724.2,246,429492416,4294908183,1919,0.99,0.02,0.14,-1.52,0.1,-1.13,0.69,-80.26,-13.5,-1.96,32.54,-12.93,-5.09,Left Fall while Sitting
26:08.8,296,103,154.5,1001,316,2.24,446.96,1.54,20723.95,223,220,20724.2,246,429492416,4294891047,2139,0.99,0.02,0.14,-1.36,1.35,-1.32,0.36,-80.39,-13.6,-2.04,32.48,-13.04,-5.18,Left Fall while Sitting
26:08.9,51,102,153,1001,316,2.24,446.96,1.54,20723.63,321,221,20724.08,236,429487424,0,0,0.99,0.03,0.14,-1.27,-0.11,-1.34,1.06,-80.19,-13.69,-2.31,32.41,-13.1,-5.42,Left Fall while Sitting
26:09.0,550,109,163.5,1001,319,2.21,453.13,1.56,20723.63,321,273,20724.08,236,429487424,8993,273,1.01,0.02,0.13,-2.02,-0.64,-0.76,0.72,-80.73,-13.87,-2.64,32.41,-13.29,-5.76,Left Fall while Sitting
26:09.1,1001,124,186,1001,330,2.1,476.19,1.61,20723.63,321,266,20724.08,236,429487424,14213,539,1,0.03,0.13,-0.29,-0.19,-1.33,0.97,-80.67,-13.84,-2.92,32.35,-13.25,-6.03,Left Fall while Sitting
26:09.3,1001,138,207,1001,332,2.08,480.46,1.62,20723.63,321,259,20724.08,236,429487424,15758,798,0.99,0.03,0.13,-0.91,-0.25,-0.08,0.99,-80.95,-13.88,-3.2,32.43,-13.29,-6.31,Left Fall while Sitting
26:09.4,0,136,204,1001,325,2.15,465.62,1.59,20723.63,321,219,20724.08,236,429487424,4294965479,1017,1,0.03,0.12,-0.51,-0.57,-0.47,1.29,-81.43,-13.88,-3.53,32.47,-13.27,-6.64,Left Fall while Sitting
26:13.9,412,412,618,412,308,2.32,430.77,1.51,0,0,221,0,0,0,4294933465,441,0.93,-0.39,0.08,-13.65,0.44,23.92,-23.37,-65.11,-1.97,-0.01,5.91,-2.82,-2.61,Right Fall while Sitting
26:14.0,184,298,447,412,307,2.33,428.77,1.5,0,0,221,0,0,0,4294916770,662,0.9,-0.43,0.09,-13.88,-1.2,24.44,-26.14,-62.23,-3.61,-0.4,9.02,-4.51,-2.87,Right Fall while Sitting
26:14.1,205,267,400.5,412,308,2.32,430.77,1.51,0,0,221,0,0,0,4294900075,883,0.9,-0.49,0.08,-5.87,-3.02,21.17,-29.04,-59.5,-4.27,-1.02,11.74,-5.26,-3.36,Right Fall while Sitting
26:14.2,220,255,382.5,412,309,2.31,432.77,1.51,0,0,222,0,0,0,4294883823,1105,0.86,-0.55,0.07,-5.06,-5.73,18,-32.87,-55.82,-4.82,-1.98,14.07,-5.95,-4.13,Right Fall while Sitting
26:14.4,347,273,409.5,412,307,2.33,428.77,1.5,0,0,222,0,0,0,4294867571,1327,0.86,-0.58,0.02,-3.19,-3.73,15.97,-34.45,-54.53,-5.15,-2.69,16.15,-6.32,-4.76,Right Fall while Sitting
26:14.5,125,248,372,412,306,2.34,426.78,1.5,0,0,221,0,0,0,4294850876,1548,0.84,-0.61,0.04,-12.15,-3.55,11.62,-36.22,-52.68,-6.59,-3.38,17.69,-7.77,-5.35,Right Fall while Sitting
26:14.6,0,213,319.5,412,304,2.37,422.81,1.49,0,0,222,0,0,0,4294834624,1770,0.78,-0.66,0.02,-6.11,-5.51,11.76,-40.62,-48.35,-7.27,-4.31,19.24,-8.61,-6.07,Right Fall while Sitting
26:14.7,232,215,322.5,412,305,2.35,424.79,1.49,0,0,221,0,0,0,4294817929,1991,0.81,-0.64,0.01,-9.85,-2.67,7.11,-38.86,-50.14,-8.42,-4.88,20.21,-9.63,-6.69,Right Fall while Sitting
26:14.9,482,245,367.5,482,306,2.34,426.78,1.5,169.82,307,223,20723.91,221,429480224,0,0,0.8,-0.67,0,-14.37,2.44,12.18,-40.9,-48.1,-10.14,-4.83,21.83,-11.37,-6.56,Right Fall while Sitting
26:15.0,429,263,394.5,482,305,2.35,424.79,1.49,169.82,307,222,20723.91,221,429480224,4294951044,222,0.73,-0.66,0.03,-13.3,4.79,11.44,-42.63,-46.31,-11.76,-4.47,23.39,-13,-6.15,Right Fall while Sitting
26:15.1,192,257,385.5,482,304,2.37,422.81,1.49,169.82,307,222,20723.91,221,429480224,4294934792,444,0.74,-0.69,-0.04,-7.4,2.92,2.76,-43.27,-45.64,-12.63,-4.36,23.84,-13.86,-6.01,Right Fall while Sitting
26:15.2,1000,319,478.5,1000,314,2.26,442.88,1.53,169.82,307,211,20723.91,221,429480224,4294913777,655,0.74,-0.73,-0.06,-12.31,1.08,10.4,-45.26,-43.52,-14.13,-4.48,25.27,-15.38,-6.04,Right Fall while Sitting
26:15.4,0,294,441,1000,290,2.53,395.63,1.42,169.82,307,177,20723.91,221,429480224,4294945106,832,0.73,-0.71,-0.07,-7.98,-2.62,4.76,-44.87,-43.86,-15.08,-5.06,25.97,-16.27,-6.62,Right Fall while Sitting
26:15.5,0,273,409.5,1000,277,2.69,371.31,1.35,169.82,307,172,20723.91,221,429480224,7394,1004,0.58,-0.75,0.03,-1.6,-5.34,4.9,-52.54,-36.38,-15.21,-5.99,26.69,-16.7,-7.2,Right Fall while Sitting
26:15.6,0,255,382.5,1000,276,2.71,369.48,1.35,169.82,307,171,20723.91,221,429480224,36635,1175,0.66,-0.74,-0.04,-2.81,-0.93,5.43,-48.93,-39.96,-15.49,-6.36,27.48,-16.83,-7.7,Right Fall while Sitting
26:15.7,0,239,358.5,1000,274,2.73,365.82,1.34,169.82,307,170,20723.91,221,429480224,65535,1345,0.7,-0.75,-0.09,-3.82,-0.45,1.76,-47.21,-41.35,-15.9,-6.67,27.8,-17.16,-8.06,Right Fall while Sitting
26:15.9,41,227,340.5,1000,272,2.76,362.18,1.33,169.82,307,171,20723.91,221,429480224,94776,1516,0.69,-0.75,-0.1,-4.03,0.83,2.71,-47.58,-40.92,-16.34,-6.82,28.24,-17.59,-8.18,Right Fall while Sitting
26:16.0,148,223,334.5,1000,275,2.72,367.65,1.34,169.82,307,173,20723.91,221,429480224,124705,1689,0.68,-0.78,-0.08,-3.03,0.4,1.38,-49.51,-39.16,-16.66,-7.02,28.52,-17.97,-8.31,Right Fall while Sitting
26:16.1,862,256,384,1000,275,2.72,367.65,1.34,100.22,286,173,124.35,186,15462,0,0,0.69,-0.77,-0.1,-2.65,1.48,3.58,-48.48,-39.97,-16.91,-7.08,29.06,-18.18,-8.4,Right Fall while Sitting
26:16.2,944,291,436.5,1000,275,2.72,367.65,1.34,100.22,286,173,124.35,186,15462,29929,173,0.68,-0.77,-0.09,-3.08,2.99,1.42,-48.6,-39.93,-17.23,-6.96,29.34,-18.49,-8.28,Right Fall while Sitting
26:16.4,314,292,438,1000,274,2.73,365.82,1.34,100.22,286,173,124.35,186,15462,59858,346,0.67,-0.78,-0.1,-4.04,0.85,2.46,-49.52,-38.99,-17.67,-7.1,29.74,-18.94,-8.38,Right Fall while Sitting
26:16.5,157,286,429,1000,278,2.68,373.15,1.36,100.22,286,175,124.35,186,15462,90483,521,0.66,-0.78,-0.12,-4.6,-1.11,1.44,-49.9,-38.36,-18.17,-7.49,30.02,-19.44,-8.73,Right Fall while Sitting
26:16.6,998,317,475.5,1000,279,2.67,375,1.36,100.22,286,174,124.35,186,15462,120759,695,0.65,-0.79,-0.09,-2.24,-0.45,1.71,-50.71,-37.83,-18.38,-7.8,30.34,-19.68,-9,Right Fall while Sitting
26:16.7,318,317,475.5,1000,276,2.71,369.48,1.35,100.22,286,175,124.35,186,15462,151384,870,0.66,-0.78,-0.11,-2.97,1.32,-5.42,-49.9,-38.49,-18.69,-7.89,29.75,-19.93,-9.11,Right Fall while Sitting
26:16.9,2,304,456,1000,278,2.68,373.15,1.36,100.22,286,173,124.35,186,15462,181313,1043,0.67,-0.79,-0.1,0.82,0.72,-0.64,-49.86,-38.6,-18.51,-8.05,29.77,-19.77,-9.27,Right Fall while Sitting
26:17.0,208,300,450,1000,281,2.64,378.71,1.37,100.22,286,176,124.35,186,15462,212289,1219,0.66,-0.77,-0.1,-1.49,3.16,-8.6,-49.73,-38.67,-18.63,-7.9,28.79,-19.87,-9.13,Right Fall while Sitting
26:17.1,659,314,471,1000,279,2.67,375,1.36,100.22,286,175,124.35,186,15462,242914,1394,0.7,-0.78,-0.12,0.66,2.11,-11.15,-48.21,-40,-18.48,-7.89,27.48,-19.67,-9.17,Right Fall while Sitting
26:17.2,302,313,469.5,1000,278,2.68,373.15,1.36,100.22,286,175,124.35,186,15462,273539,1569,0.72,-0.76,-0.11,6.6,1.82,-19.19,-46.47,-41.95,-17.57,-7.91,25.16,-18.73,-9.27,Right Fall while Sitting
26:17.4,9,303,454.5,1000,281,2.64,378.71,1.37,108.15,277,175,174.4,174,30415,0,0,0.75,-0.74,-0.08,14.17,-0.23,-26.99,-45,-43.7,-15.76,-8.18,21.94,-16.93,-9.6,Right Fall while Sitting
26:17.5,358,304,456,1000,283,2.61,382.43,1.38,108.15,277,176,174.4,174,30415,30976,176,0.82,-0.68,-0.02,19.03,6.45,-36.2,-40.13,-48.85,-13.29,-7.62,17.48,-14.37,-9.27,Right Fall while Sitting
26:17.6,521,311,466.5,1000,282,2.63,380.57,1.38,108.15,277,175,174.4,174,30415,61601,351,0.85,-0.59,-0.03,11.53,12.27,-47.11,-35.12,-53.84,-11.78,-6.34,11.69,-12.72,-8.24,Right Fall while Sitting
26:17.7,211,308,462,1000,282,2.63,380.57,1.38,108.15,277,174,174.4,174,30415,91877,525,0.84,-0.5,-0.02,8.9,0.94,-48.62,-31.28,-57.69,-10.59,-6.47,5.66,-11.42,-8.52,Right Fall while Sitting
26:17.9,22,300,450,1000,285,2.59,386.18,1.39,108.15,277,174,174.4,174,30415,122153,699,0.92,-0.38,0.08,6.17,2.78,-54.31,-22.99,-65.48,-9.74,-6.37,-1.08,-10.27,-8.74,Right Fall while Sitting
26:18.0,506,306,459,1000,285,2.59,386.18,1.39,108.15,277,174,174.4,174,30415,152429,873,1.01,-0.3,0.04,0.76,5.48,-56.4,-16.95,-71.87,-9.58,-5.94,-8.03,-9.87,-8.58,Right Fall while Sitting
26:18.1,641,315,472.5,1000,285,2.59,386.18,1.39,108.15,277,174,174.4,174,30415,182705,1047,1.02,-0.16,0.03,3.69,7.04,-41.57,-9.5,-79.33,-9.05,-5.31,-13.13,-9.06,-8.27,Right Fall while Sitting
26:18.3,0,306,459,1000,285,2.59,386.18,1.39,108.15,277,173,174.4,174,30415,212634,1220,1.03,-0.04,0.15,2.77,14.16,-33.56,-2.64,-80.13,-8.63,-3.79,-17.23,-8.39,-6.84,Right Fall while Sitting
26:18.4,61,300,450,1000,288,2.55,391.84,1.41,108.15,277,175,174.4,174,30415,243259,1395,0.97,-0.06,0.12,10.66,10.15,-23.54,-3.95,-80.46,-7.22,-2.76,-20.09,-7.09,-5.87,Right Fall while Sitting
26:18.5,505,305,457.5,1000,288,2.55,391.84,1.41,108.15,277,175,174.4,174,30415,273884,1570,1.02,0.01,0.09,7.21,-11.54,-27.53,-0.27,-83.49,-6.25,-4.46,-23.44,-6.01,-7.62,Right Fall while Sitting
26:18.6,220,303,454.5,1000,286,2.58,388.06,1.4,125.04,284,174,174.4,174,30415,0,0,1,0.07,0.07,-3.79,8.15,-7,3.32,-83.01,-6.65,-3.69,-24.21,-6.25,-6.86,Right Fall while Sitting
26:18.8,240,301,451.5,1000,287,2.56,389.95,1.4,125.04,284,174,174.4,174,30415,30276,174,1.05,0.04,0.15,-4.27,0.43,-21.89,1.53,-80.03,-7.11,-3.88,-26.83,-6.76,-6.93,Right Fall while Sitting
26:18.9,100,296,444,1000,289,2.54,393.73,1.41,125.04,284,175,174.4,174,30415,60901,349,1.04,0.11,0.12,-4.26,5.29,-1.43,5.19,-79.75,-7.57,-3.47,-26.91,-7.06,-6.52,Right Fall while Sitting
26:19.0,397,299,448.5,1000,291,2.52,397.54,1.42,125.04,284,177,174.4,174,30415,92230,526,0.93,0.13,0.11,-2.59,-3.66,1.79,7.58,-77.79,-7.83,-4.18,-26.59,-7.21,-7.12,Right Fall while Sitting
26:19.1,350,300,450,1000,290,2.53,395.63,1.42,125.04,284,175,174.4,174,30415,122855,701,0.96,0.11,0.1,-2.08,-4.44,4.09,5.76,-79.83,-8.02,-4.98,-25.98,-7.47,-7.98,Right Fall while Sitting
26:19.3,205,298,447,1000,289,2.54,393.73,1.41,125.04,284,175,174.4,174,30415,153480,876,0.99,0.06,0.13,-10.37,-5.18,1.57,2.77,-80.15,-9.23,-5.87,-25.68,-8.75,-8.84,Right Fall while Sitting
26:19.4,49,292,438,1000,291,2.52,397.54,1.42,125.04,284,174,174.4,174,30415,183756,1050,0.99,0.03,0.08,-13.84,-10.69,6.11,1.23,-83.31,-10.89,-7.46,-24.82,-10.41,-10.49,Right Fall while Sitting
26:19.5,336,293,439.5,1000,293,2.49,401.37,1.43,125.04,284,175,174.4,174,30415,214381,1225,1.05,0.06,0.09,-3.24,-1.21,1.63,2.87,-82.45,-11.23,-7.87,-24.51,-10.67,-10.85,Right Fall while Sitting
26:19.6,467,297,445.5,1000,293,2.49,401.37,1.43,125.04,284,175,174.4,174,30415,245006,1400,1.05,0.05,0.09,6.37,-4.07,-2.56,2.23,-82.97,-10.36,-8.62,-24.74,-9.86,-11.6,Right Fall while Sitting
26:19.8,333,298,447,1000,292,2.5,399.45,1.43,125.04,284,174,174.4,174,30415,275282,1574,1.01,0.08,0.02,2.04,2.02,2.5,3.87,-83.8,-10.04,-8.62,-24.32,-9.48,-11.63,Right Fall while Sitting
26:19.9,80,293,439.5,1000,294,2.48,403.29,1.44,138.17,290,175,174.9,174,30589,0,0,0.97,0.06,0.11,-5.44,7.4,0.47,3.11,-81.07,-10.65,-7.95,-24.17,-10.09,-10.88,Right Fall while Sitting
26:20.0,181,291,436.5,1000,295,2.47,405.22,1.44,138.17,290,175,174.9,174,30589,30625,175,1.04,0.02,0.09,-5.24,-5.79,-1.72,0.49,-83.17,-11.23,-8.93,-24.28,-10.76,-11.89,Right Fall while Sitting
26:20.1,410,293,439.5,1000,295,2.47,405.22,1.44,138.17,290,174,174.9,174,30589,60901,349,1,0.04,0.08,-2.5,1.8,-1.13,1.62,-83.37,-11.47,-8.95,-24.33,-10.95,-11.93,Right Fall while Sitting
26:20.3,373,295,442.5,1000,294,2.48,403.29,1.44,138.17,290,174,174.9,174,30589,91177,523,1.01,0.04,0.08,-1.02,-1.34,-0.42,1.65,-83.52,-11.53,-9.37,-24.28,-11,-12.34,Right Fall while Sitting
26:23.0,483,483,724.5,483,310,2.3,434.78,1.52,0,0,188,0,0,0,4294905793,373,0.98,-0.02,-0.22,-0.34,21.55,-2.11,-1.95,-75.91,0.1,5.13,-0.2,0.02,1.89,Forward Fall while Sitting
26:23.1,870,676,1014,870,310,2.3,434.78,1.52,0,0,190,0,0,0,4294876357,563,1.02,0.02,-0.17,4.04,21.96,-1.43,0.53,-78.79,0.67,7.61,-0.28,0.67,4.15,Forward Fall while Sitting
26:23.3,999,784,1176,999,311,2.29,436.8,1.52,0,0,191,0,0,0,4294847302,754,1.09,0.04,-0.25,-2.91,11.82,3.63,1.43,-75.15,0.38,8.81,0.26,0.42,5.46,Forward Fall while Sitting
26:23.4,363,678,1017,999,311,2.29,436.8,1.52,0,0,192,0,0,0,4294818630,946,0.99,0,-0.16,-1.48,12.2,0.02,-0.33,-79.12,0.27,10.06,0.36,0.25,6.49,Forward Fall while Sitting
26:23.5,577,658,987,999,311,2.29,436.8,1.52,0,0,190,0,0,0,4294789194,1136,0.97,0.01,-0.14,2.12,14.56,-2.56,0,-80.13,0.6,11.6,0.14,0.58,7.94,Forward Fall while Sitting
26:23.6,0,548,822,999,312,2.28,438.82,1.52,0,0,192,0,0,0,4294760522,1328,0.99,0.03,-0.1,-1.68,6.35,-1.38,1.03,-82.2,0.46,12.14,0.07,0.48,8.37,Forward Fall while Sitting
26:23.8,0,470,705,999,314,2.26,442.88,1.53,0,0,193,0,0,0,4294732235,1521,0.99,0.01,-0.13,-2.31,8.6,-2.94,0.11,-80.96,0.25,12.94,-0.19,0.24,9.18,Forward Fall while Sitting
26:23.9,90,422,633,999,317,2.23,449.01,1.55,0,0,194,0,0,0,4294704335,1715,0.97,0.03,-0.06,-0.62,4.03,-0.88,1.08,-84.52,0.24,13.19,-0.2,0.28,9.28,Forward Fall while Sitting
26:24.0,317,411,616.5,999,317,2.23,449.01,1.55,110.81,312,195,20723.6,191,429467680,0,0,1.02,0.04,-0.1,-2.45,-4.98,-0.89,1.44,-82.68,0.01,12.32,-0.21,0.07,8.52,Forward Fall while Sitting
26:24.1,503,420,630,999,316,2.24,446.96,1.54,110.81,312,195,20723.6,191,429467680,4294939785,195,1.04,0.03,-0.12,-1.74,-4.07,-0.4,0.96,-81.54,-0.14,11.56,-0.16,-0.1,7.83,Forward Fall while Sitting
26:24.3,435,421,631.5,999,315,2.25,444.92,1.54,110.81,312,195,20723.6,191,429467680,4294912274,390,1.03,0.02,-0.11,-2.37,-3.29,-0.58,0.51,-82.26,-0.37,10.89,-0.14,-0.33,7.16,Forward Fall while Sitting
26:24.4,297,411,616.5,999,319,2.21,453.13,1.56,110.81,312,195,20723.6,191,429467680,4294884763,585,1.02,0.02,-0.08,-1.43,-9.45,-4.76,0.65,-83.51,-0.48,9.44,-0.64,-0.43,5.73,Forward Fall while Sitting
26:24.5,396,410,615,999,318,2.22,451.06,1.55,110.81,312,196,20723.6,191,429467680,4294857643,781,1.04,0,-0.17,4.68,-16.59,9,-0.74,-79.37,0.18,7.1,0.6,0.14,3.64,Forward Fall while Sitting
26:24.6,248,398,597,999,317,2.23,449.01,1.55,110.81,312,197,20723.6,191,429467680,4294830916,978,1.01,0.04,-0.19,-9.33,-23.24,0.98,1.48,-77.66,-0.92,3.92,0.82,-0.83,0.66,Forward Fall while Sitting
26:24.8,6,372,558,999,319,2.21,453.13,1.56,110.81,312,198,20723.6,191,429467680,4294804584,1176,1.02,0.04,-0.22,-9.5,-16.43,-8.65,1.47,-75.89,-2.05,1.6,-0.17,-1.91,-1.5,Forward Fall while Sitting
26:24.9,285,366,549,999,321,2.19,457.26,1.57,110.81,312,197,20723.6,191,429467680,4294777857,1373,0.95,-0.01,-0.34,0.11,-35.68,-7.33,-0.93,-68.67,-1.97,-3.18,-1,-1.92,-5.8,Forward Fall while Sitting
26:25.0,268,361,541.5,999,319,2.21,453.13,1.56,110.81,312,196,20723.6,191,429467680,4294750737,1569,0.94,0.02,-0.46,-8.86,-42.27,-2.98,0.69,-62.46,-3.02,-8.81,-1.28,-2.87,-10.95,Forward Fall while Sitting
26:25.1,470,367,550.5,999,320,2.2,455.19,1.56,110.81,312,198,20723.6,191,429467680,4294724405,1767,0.9,0.03,-0.46,-8.66,-31.93,-0.85,1.31,-61.35,-4.05,-13.12,-1.29,-3.83,-15.05,Forward Fall while Sitting
26:25.3,558,377,565.5,999,323,2.17,461.43,1.58,20723.59,318,198,20723.65,196,429469792,0,0,0.84,0.03,-0.51,-3.82,-27.83,-2.27,0.94,-57.31,-4.46,-16.85,-1.47,-4.24,-18.46,Forward Fall while Sitting
26:25.4,989,407,610.5,999,322,2.18,459.34,1.57,20723.59,318,200,20723.65,196,429469792,4294941760,200,0.87,0.04,-0.6,2.1,-26.05,-2.11,1.55,-53.65,-4.12,-20.44,-1.64,-3.89,-21.77,Forward Fall while Sitting
26:25.5,990,435,652.5,999,321,2.19,457.26,1.57,20723.59,318,200,20723.65,196,429469792,4294916224,400,0.86,0.04,-0.71,-0.16,-27.95,-0.04,1.4,-48.57,-4.06,-24.24,-1.55,-3.85,-25.21,Forward Fall while Sitting
26:25.6,824,453,679.5,999,324,2.16,463.52,1.58,20723.59,318,203,20723.65,196,429469792,4294891897,603,0.76,0.04,-0.71,-0.51,-28.54,-1.03,1.64,-45.32,-4.06,-28.12,-1.58,-3.83,-28.81,Forward Fall while Sitting
26:25.8,271,445,667.5,999,321,2.19,457.26,1.57,20723.59,318,200,20723.65,196,429469792,4294866361,803,0.73,0.04,-0.75,1.88,-22.13,-1.36,1.61,-42.41,-3.75,-31.18,-1.65,-3.53,-31.63,Forward Fall while Sitting
26:25.9,877,463,694.5,999,323,2.17,461.43,1.58,20723.59,318,200,20723.65,196,429469792,4294840825,1003,0.71,0.03,-0.8,2.18,-19.45,-2.41,1.02,-40.02,-3.4,-33.93,-1.86,-3.22,-34.17,Forward Fall while Sitting
26:26.0,993,484,726,999,324,2.16,463.52,1.58,20723.59,318,203,20723.65,196,429469792,4294816498,1206,0.68,0,-0.89,-0.07,-25.31,1.2,-0.44,-35.81,-3.34,-37.4,-1.6,-3.22,-37.33,Forward Fall while Sitting
26:26.2,988,503,754.5,999,321,2.19,457.26,1.57,20723.59,318,202,20723.65,196,429469792,4294791766,1408,0.65,0.01,-0.9,-2.89,-26.65,-1.95,-0.13,-34.33,-3.63,-41.06,-1.75,-3.49,-40.79,Forward Fall while Sitting
26:26.3,988,521,781.5,999,325,2.15,465.62,1.59,20723.59,318,203,20723.65,196,429469792,4294767439,1611,0.57,0,-0.92,-1.63,-23.43,-1.05,-0.76,-30.47,-3.77,-44.29,-1.79,-3.65,-43.74,Forward Fall while Sitting
26:26.4,998,538,807,999,324,2.16,463.52,1.58,20723.59,318,202,20723.65,196,429469792,4294742707,1813,0.55,0.02,-0.94,-1.73,-22.27,0.5,0.69,-28.47,-3.92,-47.4,-1.62,-3.73,-46.64,Forward Fall while Sitting
26:26.5,502,537,805.5,999,324,2.16,463.52,1.58,20723.66,322,204,20723.7,201,429471872,0,0,0.48,0.01,-0.96,-1.35,-15.46,-0.82,0.11,-25.02,-4.02,-49.6,-1.63,-3.85,-48.62,Forward Fall while Sitting
26:26.7,238,527,790.5,999,328,2.12,471.94,1.6,20723.66,322,205,20723.7,201,429471872,4294943785,205,0.45,0.01,-0.98,-2.69,-15.56,-0.89,0.16,-23.27,-4.29,-51.83,-1.64,-4.11,-50.69,Forward Fall while Sitting
26:26.8,384,522,783,999,327,2.13,469.83,1.6,20723.66,322,204,20723.7,201,429471872,4294919865,409,0.46,0,-1.02,-2.2,-15.18,-0.98,-0.42,-22.53,-4.5,-54.01,-1.66,-4.33,-52.75,Forward Fall while Sitting
26:26.9,404,519,778.5,999,326,2.14,467.72,1.59,20723.66,322,206,20723.7,201,429471872,4294896765,615,0.41,0.01,-1.03,-1.38,-11.03,-1.75,-0.07,-20.35,-4.6,-55.68,-1.78,-4.42,-54.27,Forward Fall while Sitting
26:27.0,372,514,771,999,330,2.1,476.19,1.61,20723.66,322,207,20723.7,201,429471872,4294874078,822,0.38,0.01,-1.02,-2.64,-3.31,-0.91,0.14,-18.65,-4.87,-56.35,-1.8,-4.67,-54.85,Forward Fall while Sitting
26:27.2,962,527,790.5,999,328,2.12,471.94,1.6,20723.66,322,205,20723.7,201,429471872,4294850567,1027,0.39,0,-1.02,-1.95,-0.82,-1.4,-0.39,-19.35,-5.04,-56.72,-1.88,-4.86,-55.22,Forward Fall while Sitting
26:27.3,314,521,781.5,999,327,2.13,469.83,1.6,20723.66,322,206,20723.7,201,429471872,4294827467,1233,0.38,0.01,-1,-2.74,-3.49,-1.04,-0.16,-19.05,-5.32,-57.41,-1.91,-5.11,-55.88,Forward Fall while Sitting
26:27.4,393,518,777,999,331,2.09,478.32,1.62,20723.66,322,207,20723.7,201,429471872,4294804780,1440,0.35,0.01,-1,-3.31,-1.97,-0.56,0.04,-17.56,-5.67,-57.92,-1.88,-5.44,-56.31,Forward Fall while Sitting
26:27.6,598,520,780,999,328,2.12,471.94,1.6,20723.66,322,207,20723.7,201,429471872,4294782093,1647,0.37,0,-1.03,-1.7,-0.56,-1.47,-0.41,-18.01,-5.82,-58.25,-1.97,-5.6,-56.64,Forward Fall while Sitting
26:27.7,203,511,766.5,999,330,2.1,476.19,1.61,20723.66,322,206,20723.7,201,429471872,4294758993,1853,0.37,0.02,-1.02,-3.61,-3.32,-1.15,0.26,-18.33,-6.21,-58.93,-2.01,-5.95,-57.3,Forward Fall while Sitting
26:27.8,602,514,771,999,332,2.08,480.46,1.62,20723.75,328,210,20723.75,206,429473760,0,0,0.35,0.02,-1.03,-0.59,-2.27,-0.35,0.45,-17.41,-6.21,-59.46,-1.96,-5.94,-57.78,Forward Fall while Sitting
26:27.9,624,516,774,999,330,2.1,476.19,1.61,20723.75,328,211,20723.75,206,429473760,4294946281,211,0.35,0.02,-1.03,-1.18,-0.98,-0.53,0.52,-17.32,-6.29,-59.84,-1.92,-6.02,-58.13,Forward Fall while Sitting
26:28.1,160,508,762,999,330,2.1,476.19,1.61,20723.75,328,211,20723.75,206,429473760,4294925266,422,0.36,0.01,-1.04,-2.15,2.45,-0.69,0.11,-17.29,-6.49,-59.78,-1.91,-6.23,-58.08,Forward Fall while Sitting
26:28.2,385,505,757.5,999,333,2.07,482.61,1.63,20723.75,328,212,20723.75,206,429473760,4294904674,634,0.36,0.01,-1.04,-0.5,6.53,-0.45,-0.01,-17.43,-6.48,-59.2,-1.87,-6.22,-57.53,Forward Fall while Sitting
26:28.3,517,505,757.5,999,330,2.1,476.19,1.61,20723.75,328,213,20723.75,206,429473760,4294884507,847,0.38,0.03,-1.05,1.66,20.85,-1.77,0.8,-18.37,-6.2,-56.79,-1.99,-5.92,-55.25,Forward Fall while Sitting
26:28.5,277,500,750,999,332,2.08,480.46,1.62,20723.75,328,212,20723.75,206,429473760,4294863915,1059,0.41,0,-1.01,-0.81,42.67,2.92,-0.46,-20.62,-6.23,-51.62,-1.52,-6,-50.38,Forward Fall while Sitting
26:28.6,411,498,747,999,333,2.07,482.61,1.63,20723.75,328,214,20723.75,206,429473760,4294844175,1273,0.55,0.01,-0.95,-1.39,60.56,3.11,0.08,-28.37,-6.34,-44.19,-1.03,-6.08,-43.55,Forward Fall while Sitting
26:28.7,416,496,744,999,330,2.1,476.19,1.61,20723.75,328,215,20723.75,206,429473760,4294824864,1488,0.71,-0.03,-0.95,-2.35,67.1,1.44,-1.88,-35.26,-6.56,-35.92,-0.74,-6.38,-35.89,Forward Fall while Sitting
26:28.8,255,491,736.5,999,334,2.06,484.76,1.63,20723.75,328,213,20723.75,206,429473760,4294804697,1701,0.76,-0.04,-0.78,-4.77,67.89,-0.94,-2.89,-42.69,-7.1,-27.49,-0.76,-6.93,-28.1,Forward Fall while Sitting
26:29.0,203,485,727.5,999,332,2.08,480.46,1.62,20723.75,328,209,20723.75,206,429473760,4294782842,1910,0.8,0.03,-0.57,1.5,58.62,-0.43,1.2,-52.94,-6.84,-20.24,-0.72,-6.52,-21.55,Forward Fall while Sitting
26:29.1,322,482,723,999,330,2.1,476.19,1.61,20723.79,331,211,20723.81,212,429476192,0,0,0.92,-0.06,-0.58,-6.9,58.21,-5.87,-3.96,-55.94,-7.63,-13.21,-1.35,-7.49,-14.92,Forward Fall while Sitting
26:29.2,206,476,714,999,333,2.07,482.61,1.63,20723.79,331,191,20723.81,212,429476192,4294938241,191,0.96,-0.04,-0.41,3.65,41.1,3.15,-2.73,-65.39,-7.1,-8.25,-0.85,-6.92,-10.53,Forward Fall while Sitting
26:29.3,0,467,700.5,999,321,2.19,457.26,1.57,20723.79,331,176,20723.81,212,429476192,1921,367,0.98,-0.08,-0.39,2.68,18.94,-3.15,-4.86,-66.19,-6.69,-6.11,-1.15,-6.62,-8.52,Forward Fall while Sitting
26:29.5,0,458,687,999,314,2.26,442.88,1.53,20723.79,331,172,20723.81,212,429476192,31505,539,0.99,-0.02,-0.28,-4.19,28.69,5.34,-1.42,-72.83,-7.15,-2.75,-0.37,-6.92,-5.55,Forward Fall while Sitting
26:29.6,0,449,673.5,999,313,2.27,440.85,1.53,20723.79,331,172,20723.81,212,429476192,61089,711,1.01,-0.03,-0.27,-8,20.51,4.35,-2.48,-73.15,-8.08,-0.42,0.27,-7.86,-3.33,Forward Fall while Sitting
26:29.7,212,445,667.5,999,313,2.27,440.85,1.53,20723.79,331,174,20723.81,212,429476192,91365,885,1,-0.01,-0.23,-11.18,7.25,-2.4,-1.4,-75.59,-9.42,0.24,0.07,-9.1,-2.79,Forward Fall while Sitting
26:29.8,351,443,664.5,999,312,2.28,438.82,1.52,20723.79,331,171,20723.81,212,429476192,120606,1056,1.01,-0.03,-0.16,-10.69,7.87,-14.15,-2.01,-79.1,-10.7,0.98,-1.61,-10.35,-2.22,Forward Fall while Sitting
26:30.0,695,448,672,999,312,2.28,438.82,1.52,20723.79,331,174,20723.81,212,429476192,150882,1230,1.02,-0.02,-0.16,11.31,12.16,-3.07,-1.53,-79.55,-9.19,2.27,-1.9,-8.88,-1,Forward Fall while Sitting
26:30.1,504,449,673.5,999,314,2.26,442.88,1.53,20723.79,331,175,20723.81,212,429476192,181507,1405,0.95,0.03,-0.13,6.77,9.5,-5.26,1.15,-80.69,-8.26,3.23,-2.47,-7.88,-0.13,Forward Fall while Sitting
26:30.2,649,452,678,999,314,2.26,442.88,1.53,20723.79,331,175,20723.81,212,429476192,212132,1580,1.01,0.04,-0.1,-1.12,9.56,-1.05,1.69,-82.23,-8.33,4.17,-2.5,-7.93,0.72,Forward Fall while Sitting
26:30.3,579,454,681,999,312,2.28,438.82,1.52,38.26,315,173,155.58,175,24205,0,0,1.06,0.03,-0.13,-5.21,13.45,1.44,1.28,-81.12,-8.91,5.59,-2.23,-8.5,2.12,Forward Fall while Sitting
26:30.5,433,454,681,999,313,2.27,440.85,1.53,38.26,315,174,155.58,175,24205,30276,174,0.97,0.02,-0.1,-3.69,11.66,2.15,0.45,-82.35,-9.29,6.79,-1.86,-8.9,3.22,Forward Fall while Sitting
26:30.6,388,453,679.5,999,315,2.25,444.92,1.54,38.26,315,175,155.58,175,24205,60901,349,1.05,-0.01,-0.04,-0.96,10.6,-0.18,-1.06,-86.05,-9.34,7.86,-1.79,-9.01,4.1,Forward Fall while Sitting
26:39.0,615,615,922.5,615,303,2.38,420.83,1.48,0,0,158,0,0,0,49928,316,1.08,-0.02,-0.09,8.35,4.4,7,-1.55,-83.73,2.51,-0.13,0.99,2.35,-3.48,Walking
26:39.1,456,535,802.5,615,303,2.38,420.83,1.48,0,0,158,0,0,0,74892,474,0.95,-0.04,-0.03,9.74,7.96,1.47,-3.04,-85.44,3.77,0.6,1.26,3.5,-2.85,Walking
26:39.3,351,474,711,615,303,2.38,420.83,1.48,0,0,157,0,0,0,99541,631,0.96,-0.05,0,9.24,0.58,-0.99,-3.48,-85.5,4.95,0.42,1.24,4.62,-3.01,Walking
26:39.4,353,443,664.5,615,303,2.38,420.83,1.48,0,0,158,0,0,0,124505,789,0.97,-0.04,-0.04,-3.89,3.49,-1.94,-2.7,-85.15,4.55,0.61,1.1,4.26,-2.82,Walking
26:39.5,440,443,664.5,615,303,2.38,420.83,1.48,0,0,157,0,0,0,149154,946,1.18,0.01,-0.11,-6.15,-12.84,6.43,-0.07,-82.92,3.86,-1.2,1.98,3.71,-4.47,Walking
26:39.6,346,426,639,615,302,2.39,418.86,1.48,0,0,157,0,0,0,173803,1103,1.04,0,-0.08,-16.7,-10.69,-0.34,-0.49,-84.1,1.9,-2.75,2.03,1.8,-6.01,Walking
26:39.7,252,401,601.5,615,302,2.39,418.86,1.48,0,0,157,0,0,0,198452,1260,1.02,0.02,0.01,1.15,-4.61,2.95,0.56,-87.08,2.11,-3.56,2.49,2.04,-6.91,Walking
26:39.9,414,403,604.5,615,303,2.38,420.83,1.48,0,0,156,0,0,0,222788,1416,1.02,-0.07,0.02,3.85,5.47,-0.93,-4.4,-84.5,2.64,-3.14,2.47,2.36,-6.4,Walking
26:40.0,315,393,589.5,615,304,2.37,422.81,1.49,161.9,302,156,157.2,157,24711,0,0,1.03,-0.04,-0.03,8.79,4.81,-6.13,-2.93,-85.51,3.79,-2.8,1.82,3.52,-6.1,Walking
26:40.1,426,396,594,615,304,2.37,422.81,1.49,161.9,302,156,157.2,157,24711,24336,156,0.96,-0.11,-0.06,-1.03,7.18,1.08,-7.37,-80.73,3.73,-2.15,2.05,3.29,-5.3,Walking
26:40.2,303,388,582,615,304,2.37,422.81,1.49,161.9,302,156,157.2,157,24711,48672,312,1.03,-0.02,-0.08,7.37,-2.09,0.62,-1.76,-83.8,4.72,-2.66,2.22,4.46,-5.91,Walking
26:40.4,396,388,582,615,304,2.37,422.81,1.49,161.9,302,157,157.2,157,24711,73321,469,0.99,-0.03,-0.05,-1.82,-0.94,-7.46,-2.54,-84.86,4.56,-3.03,1.4,4.28,-6.3,Walking
26:40.5,234,377,565.5,615,303,2.38,420.83,1.48,161.9,302,156,157.2,157,24711,97657,625,0.98,-0.04,-0.01,-8.56,2.82,0.18,-2.71,-86.26,3.56,-2.92,1.52,3.31,-6.26,Walking
26:40.6,446,381,571.5,615,304,2.37,422.81,1.49,161.9,302,155,157.2,157,24711,121682,780,1.13,0.02,-0.13,-7.44,-4.58,-5.66,0.43,-81.63,2.71,-3.74,0.91,2.62,-6.86,Walking
26:40.7,453,386,579,615,305,2.35,424.79,1.49,161.9,302,155,157.2,157,24711,145707,935,0.94,-0.03,-0.09,4.4,0.63,-1.56,-2.51,-82.35,3.33,-3.91,0.82,3.09,-7.05,Walking
26:40.9,373,385,577.5,615,305,2.35,424.79,1.49,161.9,302,155,157.2,157,24711,169732,1090,1.13,-0.02,-0.11,21.04,-9.82,8.21,-1.36,-83,5.98,-5.36,1.92,5.69,-8.47,Walking
26:41.0,140,371,556.5,615,304,2.37,422.81,1.49,161.9,302,154,157.2,157,24711,193448,1244,0.97,-0.04,-0.07,14.43,7.5,-3.92,-2.8,-83.63,7.86,-4.68,1.53,7.43,-7.84,Walking
26:41.1,357,370,555,615,304,2.37,422.81,1.49,161.9,302,155,157.2,157,24711,217473,1399,1.01,-0.04,-0.1,4.98,5.57,-7.91,-2.93,-82.34,8.55,-4.23,0.64,8.09,-7.35,Walking
26:41.2,596,382,573,615,306,2.34,426.78,1.5,164.51,304,155,155.4,155,24148,0,0,1.03,0.01,-0.1,-9.24,6.88,-0.78,-0.3,-83.1,7.48,-3.63,0.65,7.17,-6.81,Walking
26:41.4,459,386,579,615,307,2.33,428.77,1.5,164.51,304,155,155.4,155,24148,24025,155,1.03,-0.02,-0.09,-17.5,5.09,-10.25,-1.56,-83.43,5.38,-3.25,-0.53,5.11,-6.45,Walking
26:41.5,532,393,589.5,615,306,2.34,426.78,1.5,164.51,304,155,155.4,155,24148,48050,310,1.01,0.02,-0.08,-5.8,-2.56,-9.69,0.32,-83.55,4.73,-3.82,-1.64,4.55,-7.01,Walking
26:41.6,550,400,600,615,305,2.35,424.79,1.49,164.51,304,154,155.4,155,24148,71766,464,0.99,0.03,-0.05,-4.07,5.78,7.74,0.92,-85.1,4.29,-3.35,-0.58,4.16,-6.62,Walking
26:41.7,216,392,588,615,305,2.35,424.79,1.49,164.51,304,154,155.4,155,24148,95482,618,0.95,0,-0.01,9.21,3.11,-1.69,-0.57,-88.04,5.5,-3.21,-0.69,5.26,-6.6,Walking
26:41.9,458,395,592.5,615,307,2.33,428.77,1.5,164.51,304,154,155.4,155,24148,119198,772,1.02,0.03,0,16.83,-5.34,4.5,1.1,-86.74,7.68,-4.13,-0.03,7.42,-7.43,Walking
26:42.0,717,407,610.5,717,308,2.32,430.77,1.51,164.51,304,155,155.4,155,24148,143223,927,1.06,0,-0.05,17.27,-2.59,5.08,-0.84,-85.54,9.89,-4.7,0.7,9.46,-7.93,Walking
26:42.1,385,407,610.5,717,307,2.33,428.77,1.5,164.51,304,154,155.4,155,24148,166939,1081,1.07,-0.04,-0.05,8.73,0.19,4.5,-2.54,-85.01,11.05,-4.92,1.36,10.51,-8.13,Walking
26:42.2,392,406,609,717,306,2.34,426.78,1.5,164.51,304,154,155.4,155,24148,190655,1235,1,-0.02,-0.03,-6.2,-0.1,-3.45,-1.68,-86.33,10.36,-5.18,1.03,9.88,-8.43,Walking
26:42.3,553,411,616.5,717,307,2.33,428.77,1.5,164.51,304,154,155.4,155,24148,214371,1389,1.02,-0.03,-0.04,-13.99,3.02,1.92,-2.28,-85.76,8.68,-5.05,1.37,8.24,-8.28,Walking
26:42.5,624,419,628.5,717,309,2.31,432.77,1.51,168.91,306,155,154.4,154,23838,0,0,1.09,-0.04,-0.03,-17.27,-4.04,2.6,-2.75,-85.62,6.61,-5.8,1.79,6.23,-9,Walking
26:42.6,921,435,652.5,921,309,2.31,432.77,1.51,168.91,306,155,154.4,154,23838,24025,155,0.98,0.02,0,-25.93,1.02,-17.6,0.84,-87,3.46,-5.92,-0.3,3.36,-9.17,Walking
26:42.7,219,428,642,921,308,2.32,430.77,1.51,168.91,306,154,154.4,154,23838,47741,309,1.01,0.05,0.03,-18.01,3.25,4.57,2.05,-85.16,1.28,-5.77,0.37,1.31,-8.94,Walking
26:42.8,308,425,637.5,921,307,2.33,428.77,1.5,168.91,306,153,154.4,154,23838,71150,462,1.01,0,0.06,-10.18,-0.15,-9.47,-0.33,-85.18,0.09,-6.04,-0.7,0.07,-9.2,Walking
26:43.0,349,422,633,921,307,2.33,428.77,1.5,168.91,306,154,154.4,154,23838,94866,616,1.03,0.02,0.02,-4.73,16.42,2.76,0.67,-86.8,-0.43,-4.25,-0.26,-0.39,-7.55,Walking
26:43.1,255,417,625.5,921,309,2.31,432.77,1.51,168.91,306,153,154.4,154,23838,118275,769,1.06,0.03,-0.01,-4.87,11.63,-2.2,1.22,-86.54,-0.97,-3.04,-0.44,-0.88,-6.38,Walking
26:43.2,460,418,627,921,308,2.32,430.77,1.51,168.91,306,153,154.4,154,23838,141684,922,0.95,-0.02,0.01,-3.27,17.13,7.48,-1.99,-86.95,-1.31,-1.15,0.6,-1.34,-4.58,Walking
26:43.3,358,417,625.5,921,309,2.31,432.77,1.51,168.91,306,153,154.4,154,23838,165093,1075,1.02,-0.05,0.01,8.82,-7.41,-0.02,-3.34,-85.58,-0.14,-2.33,0.69,-0.26,-5.66,Walking
26:43.5,540,420,630,921,308,2.32,430.77,1.51,168.91,306,153,154.4,154,23838,188502,1228,0.97,-0.03,0,-3.67,-5.42,-2.44,-2.15,-86.85,-0.52,-3.25,0.49,-0.59,-6.59,Walking
26:43.6,476,422,633,921,311,2.29,436.8,1.52,168.91,306,154,154.4,154,23838,212218,1382,1.06,-0.01,-0.03,-23.9,3.95,-4.22,-1.21,-86.59,-3.46,-3,0.06,-3.37,-6.35,Walking
26:43.7,558,425,637.5,921,310,2.3,434.78,1.52,172.33,308,154,153.6,153,23592,0,0,1.02,0.01,-0.03,-17.04,4.24,2.69,-0.03,-86.53,-5.49,-2.73,0.48,-5.27,-6.08,Walking
26:43.8,410,425,637.5,921,310,2.3,434.78,1.52,172.33,308,153,153.6,153,23592,23409,153,1.02,0.02,-0.05,-8.47,-7.67,-1.99,0.6,-85.24,-6.47,-3.93,0.34,-6.19,-7.18,Walking
26:44.0,425,425,637.5,921,310,2.3,434.78,1.52,172.33,308,153,153.6,153,23592,46818,306,0.97,-0.03,-0.08,7.16,-3.24,2.37,-2.53,-83.52,-5.51,-4.58,0.73,-5.39,-7.74,Walking
26:44.1,316,422,633,921,310,2.3,434.78,1.52,172.33,308,153,153.6,153,23592,70227,459,1.03,-0.01,-0.03,19.55,-1.66,3.4,-1.08,-86.5,-3.01,-5.04,1.25,-2.93,-8.29,Walking
26:44.2,144,416,624,921,311,2.29,436.8,1.52,172.33,308,152,153.6,153,23592,93331,611,0.89,-0.02,-0.01,20.09,8.77,-2.02,-1.68,-86.98,-0.43,-4.19,1.1,-0.48,-7.5,Walking
26:44.3,408,415,622.5,921,310,2.3,434.78,1.52,172.33,308,153,153.6,153,23592,116740,764,1.06,-0.05,-0.09,11.7,1.01,-1.14,-3.36,-82.91,1.1,-4.31,1.05,0.92,-7.46,Walking
26:44.5,548,418,627,921,311,2.29,436.8,1.52,172.33,308,152,153.6,153,23592,139844,916,0.93,-0.01,-0.08,-8.61,1.8,-7.52,-1.15,-83.41,0.1,-4.34,0.22,0.05,-7.5,Walking
26:44.6,540,421,631.5,921,310,2.3,434.78,1.52,172.33,308,153,153.6,153,23592,163253,1069,1.04,-0.02,-0.07,-17.43,-2.34,0.08,-1.54,-84.56,-2,-4.88,0.33,-1.99,-8.07,Walking
26:44.7,542,424,636,921,312,2.28,438.82,1.52,172.33,308,153,153.6,153,23592,186662,1222,1.08,0.01,-0.01,-8.74,-13.84,-0.6,0.16,-87.61,-3.03,-6.86,0.35,-2.9,-10.09,Walking
26:44.8,435,424,636,921,312,2.28,438.82,1.52,172.33,308,154,153.6,153,23592,210378,1376,1.05,0.02,-0.02,-15.79,-3.29,-3.58,0.76,-86.64,-4.93,-7.52,0,-4.7,-10.69,Walking
26:45.0,303,421,631.5,921,312,2.28,438.82,1.52,176.24,310,153,152.9,152,23377,0,0,0.97,0.02,0,-2.42,-0.3,0.6,0.86,-86.97,-5.16,-7.81,0.18,-4.92,-10.97,Walking
26:45.1,564,424,636,921,311,2.29,436.8,1.52,176.24,310,152,152.9,152,23377,23104,152,0.97,0.02,0.01,9.49,2.12,2.55,0.34,-87.43,-3.91,-7.79,0.59,-3.74,-10.98,Walking
26:45.2,267,421,631.5,921,310,2.3,434.78,1.52,176.24,310,152,152.9,152,23377,46208,304,1.06,0.03,-0.05,29.48,-4.69,-0.7,1.3,-85.13,-0.18,-8.62,0.6,-0.12,-11.68,Walking
26:45.3,321,419,628.5,921,312,2.28,438.82,1.52,176.24,310,152,152.9,152,23377,69312,456,0.89,-0.04,0.03,15.68,7.46,5.91,-2.9,-85.45,1.82,-7.95,1.43,1.63,-11.05,Walking
26:45.5,365,418,627,921,311,2.29,436.8,1.52,176.24,310,152,152.9,152,23377,92416,608,1.05,-0.03,-0.05,4.52,1.34,-0.75,-2.22,-85.44,2.45,-8.03,1.43,2.26,-11.13,Walking
26:45.6,417,418,627,921,311,2.29,436.8,1.52,176.24,310,151,152.9,152,23377,115217,759,0.94,-0.02,0.01,-6.94,2.38,0.99,-1.65,-87.08,1.66,-7.98,1.65,1.53,-11.15,Walking
26:45.7,542,420,630,921,310,2.3,434.78,1.52,176.24,310,151,152.9,152,23377,138018,910,1.05,-0.04,-0.01,-8.79,1.98,1.02,-2.63,-86.22,0.63,-7.99,1.88,0.5,-11.12,Walking
26:45.8,440,421,631.5,921,310,2.3,434.78,1.52,176.24,310,150,152.9,152,23377,160518,1060,1.22,0.02,-0.1,-9.09,-0.74,4.39,0.28,-83.83,-0.43,-8.33,2.52,-0.4,-11.35,Walking
26:46.0,304,419,628.5,921,311,2.29,436.8,1.52,176.24,310,151,152.9,152,23377,183319,1211,1.03,0.01,0.05,-20.39,0.69,-5.57,0.01,-85.34,-2.91,-8.49,1.92,-2.79,-11.56,Walking
26:46.1,295,416,624,921,311,2.29,436.8,1.52,176.24,310,150,152.9,152,23377,205819,1361,1.01,-0.02,0.06,-4.95,-3.56,-0.14,-1.59,-85.04,-3.45,-9.18,2.01,-3.38,-12.22,Walking
26:46.2,560,419,628.5,921,310,2.3,434.78,1.52,176.06,310,150,151.1,151,22830,0,0,1.02,-0.01,0.04,-18.24,6.73,-3.8,-0.98,-86.36,-5.65,-8.6,1.63,-5.46,-11.71,Walking
26:46.3,589,422,633,921,309,2.31,432.77,1.51,176.06,310,149,151.1,151,22830,22201,149,1.05,0.01,0,-1.04,6.98,0.15,-0.27,-88.11,-5.71,-7.98,1.75,-5.49,-11.18,Walking
26:46.5,306,420,630,921,310,2.3,434.78,1.52,176.06,310,149,151.1,151,22830,44402,298,0.97,-0.05,0.02,6.61,5.27,-0.15,-3.77,-84.94,-4.82,-7.57,1.83,-4.78,-10.66,Walking
26:46.6,353,419,628.5,921,311,2.29,436.8,1.52,176.06,310,150,151.1,151,22830,66902,448,1.1,-0.04,-0.05,7.37,-6.4,-3.44,-2.44,-85.23,-3.83,-8.62,1.5,-3.77,-11.68,Walking
26:46.7,449,419,628.5,921,311,2.29,436.8,1.52,176.06,310,149,151.1,151,22830,89103,597,0.97,-0.06,-0.01,-6.57,3.69,-1.4,-3.87,-85.04,-4.57,-8.41,1.42,-4.54,-11.47,Walking
26:46.8,607,422,633,921,310,2.3,434.78,1.52,176.06,310,149,151.1,151,22830,111304,746,1.04,-0.03,-0.06,-14.09,1.56,-2.11,-2.32,-84.86,-6.25,-8.46,1.26,-6.09,-11.52,Walking
26:47.0,517,424,636,921,311,2.29,436.8,1.52,176.06,310,149,151.1,151,22830,133505,895,1.08,-0.03,-0.1,-16.95,-5.98,-0.67,-2.41,-82.8,-8.32,-9.47,1.27,-8.08,-12.4,Walking
26:47.1,848,430,645,921,312,2.28,438.82,1.52,176.06,310,150,151.1,151,22830,156005,1045,0.96,-0.02,-0.11,-16.64,2.02,3.67,-1.55,-82,-10.33,-9.47,1.83,-9.97,-12.37,Walking
26:47.2,306,428,642,921,311,2.29,436.8,1.52,176.06,310,149,151.1,151,22830,178206,1194,1,0.02,-0.09,-2.22,5.9,4.6,0.56,-82.98,-10.54,-8.98,2.51,-10.09,-11.94,Walking
26:47.3,323,427,640.5,921,310,2.3,434.78,1.52,176.06,310,149,151.1,151,22830,200407,1343,0.97,-0.02,-0.1,3.69,4.55,-1.08,-1.91,-82.15,-10,-8.66,2.47,-9.68,-11.6,Walking
26:47.5,175,423,634.5,921,310,2.3,434.78,1.52,175.71,310,149,149.2,149,22259,0,0,1.02,-0.02,-0.09,10.82,0.44,-2.33,-1.75,-83.49,-8.6,-8.85,2.28,-8.33,-11.83,Walking
26:47.6,278,421,631.5,921,311,2.29,436.8,1.52,175.71,310,148,149.2,149,22259,21904,148,1,-0.07,-0.13,3.06,0.56,-6.69,-4.3,-80.33,-8.15,-9.03,1.55,-8,-11.88,Walking
26:47.7,396,420,630,921,311,2.29,436.8,1.52,175.71,310,148,149.2,149,22259,43808,296,1.01,-0.05,-0.14,-3.36,4.23,-9.24,-3.62,-80.06,-8.5,-8.75,0.49,-8.31,-11.6,Walking
26:47.8,540,422,633,921,310,2.3,434.78,1.52,175.71,310,148,149.2,149,22259,65712,444,0.95,-0.03,-0.07,-14.64,-0.82,-1.85,-2.45,-83.73,-10.26,-9.1,0.36,-9.95,-12.09,Walking
26:48.0,575,424,636,921,310,2.3,434.78,1.52,175.71,310,148,149.2,149,22259,87616,592,1.13,0,-0.07,-5.44,-17.83,-1.32,-0.41,-84.91,-10.87,-11.58,0.29,-10.45,-14.51,Walking
26:48.1,498,425,637.5,921,311,2.29,436.8,1.52,175.71,310,148,149.2,149,22259,109520,740,1.02,0,-0.04,-4.58,-4.54,-0.24,-0.69,-86.09,-11.38,-12.41,0.36,-10.95,-15.35,Walking
26:48.2,197,422,633,921,310,2.3,434.78,1.52,175.71,310,149,149.2,149,22259,131721,889,1.02,0.05,-0.08,-4.84,8.41,0.72,2.31,-83.04,-11.92,-11.6,0.55,-11.35,-14.46,Walking
26:48.3,562,424,636,921,310,2.3,434.78,1.52,175.71,310,148,149.2,149,22259,153625,1037,1.06,0.02,-0.06,8.7,18.27,3.88,0.36,-85.28,-10.76,-9.56,1.13,-10.31,-12.59,Walking
26:48.5,550,426,639,921,309,2.31,432.77,1.51,175.71,310,147,149.2,149,22259,175234,1184,1.04,0.01,-0.05,17.6,-1.04,-3.47,0.04,-85.6,-8.49,-9.94,0.8,-8.15,-12.97,Walking
26:48.6,178,422,633,921,311,2.29,436.8,1.52,175.71,310,148,149.2,149,22259,197138,1332,0.91,-0.04,0.01,12.15,6.92,9.25,-3.06,-85.84,-6.91,-9.33,2.05,-6.76,-12.39,Walking
26:48.7,462,423,634.5,921,310,2.3,434.78,1.52,175.36,310,147,147.9,147,21873,0,0,1.04,-0.06,-0.06,-0.14,-12.16,0.48,-3.67,-83.88,-6.86,-11.08,2.2,-6.73,-13.99,Walking
26:48.8,315,422,633,921,310,2.3,434.78,1.52,175.36,310,147,147.9,147,21873,21609,147,0.98,-0.07,-0.03,-9.66,-3.99,-0.3,-4.41,-84.25,-8.01,-11.83,2.26,-7.86,-14.73,Walking
26:49.0,468,422,633,921,309,2.31,432.77,1.51,175.36,310,147,147.9,147,21873,43218,294,1.04,-0.06,0.03,-6.32,-2.76,1.69,-3.95,-84.71,-8.73,-12.43,2.57,-8.54,-15.32,Walking
26:49.1,318,421,631.5,921,310,2.3,434.78,1.52,175.36,310,147,147.9,147,21873,64827,441,0.9,-0.06,0.04,-0.15,6.6,-4.23,-4.14,-84.04,-8.68,-11.85,2.14,-8.5,-14.74,Walking
26:49.2,410,421,631.5,921,311,2.29,436.8,1.52,175.36,310,147,147.9,147,21873,86436,588,1.07,-0.01,-0.06,-6.33,0.44,-4.38,-1.09,-85.37,-9.4,-12.04,1.69,-9.07,-14.98,Walking
26:49.3,420,421,631.5,921,311,2.29,436.8,1.52,175.36,310,147,147.9,147,21873,108045,735,0.98,-0.04,0.05,-3.31,2.5,-6.07,-2.87,-84.51,-9.74,-11.98,1.03,-9.47,-14.88,Walking
26:49.5,633,423,634.5,921,310,2.3,434.78,1.52,175.36,310,147,147.9,147,21873,129654,882,1.05,0.03,-0.05,11,-7.54,-15.51,0.92,-85.07,-8.3,-13.17,-0.81,-7.93,-16.05,Walking
27:06.0,639,639,958.5,639,262,2.9,344.28,1.28,0,0,118,0,0,0,28085,237,1.02,-0.04,-0.13,-0.86,-3.55,-1.15,-2.66,-80.69,-0.11,-1.52,-0.11,-0.21,-4.69,Relax
27:06.1,442,540,810,639,263,2.89,346.05,1.29,0,0,118,0,0,0,42009,355,1.02,-0.04,-0.14,-2.75,-1.78,-0.73,-3.05,-80.35,-0.38,-1.99,-0.1,-0.48,-5.12,Relax
27:06.2,435,505,757.5,639,265,2.86,349.6,1.3,0,0,119,0,0,0,56170,474,1.03,-0.04,-0.14,-1.79,-2.02,-1.59,-3.05,-80.36,-0.53,-2.48,-0.2,-0.63,-5.6,Relax
27:06.3,427,485,727.5,639,265,2.86,349.6,1.3,0,0,119,0,0,0,70331,593,1.03,-0.03,-0.15,-1.14,-1.8,-2.3,-2.46,-80.12,-0.6,-2.96,-0.39,-0.67,-6.04,Relax
27:06.5,479,484,726,639,264,2.88,347.83,1.29,0,0,119,0,0,0,84492,712,1.02,-0.04,-0.16,-0.25,2.46,-1.69,-2.58,-79.4,-0.56,-2.9,-0.5,-0.64,-5.96,Relax
27:06.6,403,470,705,639,263,2.89,346.05,1.29,0,0,119,0,0,0,98653,831,1.01,-0.04,-0.14,-2.3,-0.02,-2.37,-2.6,-80.17,-0.77,-3.15,-0.69,-0.85,-6.23,Relax
27:06.7,568,484,726,639,263,2.89,346.05,1.29,0,0,119,0,0,0,112814,950,1.01,-0.04,-0.16,-1.79,-0.93,-1.3,-2.71,-79.09,-0.92,-3.51,-0.75,-1,-6.53,Relax
27:06.8,389,472,708,639,262,2.9,344.28,1.28,0,0,118,0,0,0,126738,1068,1.02,-0.04,-0.16,-1.51,-1,-2.63,-2.97,-78.92,-1.04,-3.87,-0.98,-1.12,-6.88,Relax
27:06.9,646,492,738,646,264,2.88,347.83,1.29,62.43,263,119,118.7,118,14088,0,0,1.02,-0.02,-0.16,-1.44,-0.58,-0.39,-1.62,-79.68,-1.15,-4.19,-0.93,-1.17,-7.21,Relax
27:07.1,323,475,712.5,646,265,2.86,349.6,1.3,62.43,263,118,118.7,118,14088,13924,118,1.02,-0.03,-0.15,-1.47,-0.61,-0.79,-2.06,-79.76,-1.26,-4.52,-0.93,-1.3,-7.53,Relax
27:07.2,540,481,721.5,646,264,2.88,347.83,1.29,62.43,263,119,118.7,118,14088,28085,237,1.02,-0.03,-0.17,-2.29,-3.01,-0.7,-2.09,-79.08,-1.48,-5.15,-0.92,-1.5,-8.1,Relax
27:07.3,596,490,735,646,264,2.88,347.83,1.29,62.43,263,118,118.7,118,14088,42009,355,1.02,-0.03,-0.18,-2.47,0.2,-1.15,-2.27,-78.07,-1.72,-5.37,-0.96,-1.74,-8.28,Relax
27:07.4,448,487,730.5,646,263,2.89,346.05,1.29,62.43,263,119,118.7,118,14088,56170,474,1.02,-0.04,-0.18,-1.92,1.24,-0.65,-2.55,-78.23,-1.89,-5.46,-0.94,-1.91,-8.38,Relax
27:07.6,329,476,714,646,265,2.86,349.6,1.3,62.43,263,119,118.7,118,14088,70331,593,1.02,-0.03,-0.17,-1.96,1,-1.24,-2.36,-78.63,-2.06,-5.59,-1,-2.07,-8.51,Relax
27:07.7,421,472,708,646,266,2.85,351.39,1.3,62.43,263,119,118.7,118,14088,84492,712,1.01,-0.03,-0.17,-1.82,0.93,-1.21,-2.35,-78.61,-2.22,-5.72,-1.05,-2.22,-8.64,Relax
27:07.8,589,479,718.5,646,265,2.86,349.6,1.3,62.43,263,120,118.7,118,14088,98892,832,1.02,-0.04,-0.18,-1.97,0.71,-1.27,-2.59,-78.26,-2.39,-5.88,-1.11,-2.4,-8.78,Relax
27:07.9,628,488,732,646,265,2.86,349.6,1.3,62.43,263,119,118.7,118,14088,113053,951,1.02,-0.03,-0.18,-1.72,0.08,-0.91,-2.16,-78.55,-2.54,-6.12,-1.13,-2.52,-9.02,Relax
27:08.1,390,482,723,646,266,2.85,351.39,1.3,62.43,263,119,118.7,118,14088,127214,1070,1.02,-0.03,-0.18,-1.97,1.5,-1.14,-2.42,-78.37,-2.71,-6.19,-1.17,-2.7,-9.07,Relax
27:08.2,474,482,723,646,268,2.82,354.97,1.31,68.87,265,119,118.9,118,14136,0,0,1.02,-0.03,-0.17,-1.86,-0.08,-1.02,-2.45,-78.52,-2.87,-6.44,-1.2,-2.86,-9.33,Relax
27:08.3,743,495,742.5,743,267,2.83,353.17,1.3,68.87,265,120,118.9,118,14136,14400,120,1.02,-0.03,-0.19,-1.86,0.53,-1.44,-2.46,-77.96,-3.04,-6.63,-1.28,-3.01,-9.48,Relax
27:08.4,491,495,742.5,743,266,2.85,351.39,1.3,68.87,265,119,118.9,118,14136,28561,239,1.01,-0.03,-0.18,-2.13,0.67,-1.09,-2.31,-77.98,-3.23,-6.79,-1.32,-3.2,-9.64,Relax
27:08.6,404,491,736.5,743,265,2.86,349.6,1.3,68.87,265,119,118.9,118,14136,42722,358,1.01,-0.03,-0.18,-1.76,0.86,-1.15,-2.45,-78.04,-3.38,-6.93,-1.36,-3.35,-9.78,Relax
27:08.7,270,481,721.5,743,266,2.85,351.39,1.3,68.87,265,119,118.9,118,14136,56883,477,1.01,-0.03,-0.18,-1.58,0.71,-1.33,-2.35,-77.99,-3.51,-7.09,-1.43,-3.46,-9.93,Relax
27:08.8,298,473,709.5,743,266,2.85,351.39,1.3,68.87,265,119,118.9,118,14136,71044,596,1.01,-0.03,-0.18,-2.05,1.16,-1.47,-2.47,-78.19,-3.7,-7.2,-1.51,-3.65,-10.04,Relax
27:08.9,316,467,700.5,743,263,2.89,346.05,1.29,68.87,265,119,118.9,118,14136,85205,715,1.01,-0.04,-0.18,-2.02,0.54,-1.2,-2.84,-77.95,-3.88,-7.38,-1.57,-3.84,-10.2,Relax
27:09.1,465,467,700.5,743,261,2.92,342.52,1.28,68.87,265,119,118.9,118,14136,99366,834,1.01,-0.03,-0.18,-1.95,0.69,-1.08,-2.25,-78.35,-4.05,-7.54,-1.6,-3.98,-10.38,Relax
27:09.2,193,457,685.5,743,261,2.92,342.52,1.28,68.87,265,118,118.9,118,14136,113290,952,1.02,-0.04,-0.18,-1.71,1.28,-1.04,-2.61,-78.17,-4.2,-7.63,-1.63,-4.13,-10.46,Relax
27:09.3,286,451,676.5,743,261,2.92,342.52,1.28,68.87,265,119,118.9,118,14136,127451,1071,1.01,-0.03,-0.19,-1.86,0.56,-1.15,-2.37,-77.88,-4.36,-7.81,-1.68,-4.28,-10.62,Relax
27:09.4,364,448,672,743,259,2.95,339.01,1.27,62.47,263,118,118.9,118,14136,0,0,1.01,-0.03,-0.18,-1.8,0.64,-1.26,-2.35,-78.4,-4.51,-7.98,-1.73,-4.43,-10.8,Relax
27:09.6,369,445,667.5,743,257,2.98,335.51,1.26,62.47,263,118,118.9,118,14136,13924,118,1.01,-0.03,-0.18,-1.93,1.44,-1.14,-2.27,-78.17,-4.68,-8.05,-1.78,-4.59,-10.86,Relax
27:09.7,391,443,664.5,743,257,2.98,335.51,1.26,62.47,263,118,118.9,118,14136,27848,236,1.02,-0.03,-0.18,-1.68,1.06,-1.05,-2.44,-78.14,-4.82,-8.17,-1.81,-4.73,-10.97,Relax
27:09.8,415,442,663,743,258,2.97,337.25,1.26,62.47,263,119,118.9,118,14136,42009,355,1.01,-0.03,-0.18,-1.93,0.8,-0.97,-2.53,-78.02,-4.99,-8.32,-1.83,-4.9,-11.11,Relax
27:09.9,526,445,667.5,743,258,2.97,337.25,1.26,62.47,263,119,118.9,118,14136,56170,474,1.01,-0.03,-0.19,-1.92,0.57,-0.92,-2.33,-77.9,-5.16,-8.5,-1.85,-5.05,-11.27,Relax
27:10.1,527,447,670.5,743,256,3,333.77,1.25,62.47,263,118,118.9,118,14136,70094,592,1.02,-0.03,-0.19,-1.89,1.61,-1.15,-2.31,-77.77,-5.33,-8.54,-1.89,-5.21,-11.31,Relax
27:10.2,403,446,669,743,255,3.01,332.03,1.25,62.47,263,118,118.9,118,14136,84018,710,1.01,-0.03,-0.19,-2.04,1.2,-0.86,-2.16,-77.76,-5.52,-8.65,-1.9,-5.38,-11.41,Relax
27:10.3,350,443,664.5,743,257,2.98,335.51,1.26,62.47,263,118,118.9,118,14136,97942,828,1.02,-0.03,-0.18,-1.3,1.26,-1.2,-2.36,-78.25,-5.61,-8.74,-1.95,-5.48,-11.52,Relax
