Datetime, ECGR , AvgECG , ampECG , MAX , GSRR , Resistance , GSR(kohm) , SCL , GSRRMS , GSRMAV , EMGR , EMGRMS , EMGMAV , EMGVAR , EMGSSI , IEMG , AccX , AccY, AccZ , GyroX , GyroY , GyroZ , Aroll , Apitch , Groll , Gpitch, Gy , Combroll , Combpitch,Features
22:34.0,522,522,783,522,414,1.47,679.8,2.02,0,0,459,0,0,0,4294961289,951,1.01,-0.12,0.03,-1.78,0.67,-1.2,-7.25,-81.51,-0.34,-0.48,-0.04,-0.62,-3.73,Standing
22:34.1,607,564,846,607,414,1.47,679.8,2.02,0,0,486,0,0,0,4294935341,1437,1.01,-0.11,0.02,-1.95,-1.27,-1.14,-6.66,-82.24,-0.51,-0.89,-0.08,-0.76,-4.14,Standing
22:34.3,448,525,787.5,607,414,1.47,679.8,2.02,0,0,499,0,0,0,4294922198,1936,1.01,-0.12,0.03,-1.21,1.95,-1.76,-7.19,-81.59,-0.59,-0.89,-0.2,-0.86,-4.12,Standing
22:34.4,263,460,690,607,414,1.47,679.8,2.02,0,0,487,0,0,0,4294897223,2423,1.01,-0.12,0.02,-2.98,-0.62,-0.74,-7.23,-81.68,-0.89,-1.22,-0.2,-1.15,-4.44,Standing
22:34.5,296,427,640.5,607,414,1.47,679.8,2.02,0,0,472,0,0,0,4294923399,2895,1.01,-0.11,0.05,-0.5,5.09,-2.73,-7.01,-81.46,-0.88,-0.83,-0.44,-1.13,-4.06,Standing
22:34.6,351,414,621,607,414,1.47,679.8,2.02,0,0,308,0,0,0,4294952727,3203,1,-0.11,0.05,-1.69,0.81,-1.2,-6.99,-81.4,-1.02,-0.98,-0.49,-1.26,-4.2,Standing
22:34.8,530,431,646.5,607,414,1.47,679.8,2.02,0,0,357,0,0,0,4294949104,3560,1.01,-0.11,0.04,0.29,-2.11,-0.02,-6.75,-81.88,-0.92,-1.49,-0.39,-1.15,-4.7,Standing
22:34.9,612,453,679.5,612,414,1.47,679.8,2.02,0,0,645,0,0,0,4617,4205,1.01,-0.12,0.02,-1.42,-2.77,3.05,-7.4,-81.5,-1.03,-2.07,0.08,-1.28,-5.25,Standing
22:35.0,530,462,693,612,414,1.47,679.8,2.02,20723.7,414,526,43.75,473,1913,0,0,1.02,-0.13,0.02,-0.58,-1.47,0.17,-7.85,-81.1,-1.03,-2.5,0.19,-1.3,-5.64,Standing
22:35.1,443,460,690,612,414,1.47,679.8,2.02,20723.7,414,595,43.75,473,1913,26345,595,1.01,-0.12,-0.01,-3.15,0.87,-0.95,-7.43,-81.56,-1.35,-2.64,0.18,-1.59,-5.8,Standing
22:35.3,391,453,679.5,612,414,1.47,679.8,2.02,20723.7,414,467,43.75,473,1913,47826,1062,1.02,-0.13,0.01,-1.16,5.32,-2.76,-7.76,-81.21,-1.42,-2.22,-0.07,-1.68,-5.38,Standing
22:35.4,414,450,675,612,414,1.47,679.8,2.02,20723.7,414,308,43.75,473,1913,77154,1370,1.02,-0.12,0.03,-3.05,0.43,-2.14,-7.46,-81.32,-1.73,-2.42,-0.24,-1.96,-5.58,Standing
22:35.5,439,449,673.5,612,414,1.47,679.8,2.02,20723.7,414,370,43.75,473,1913,82982,1740,1.01,-0.12,0.02,-1.87,0.53,-0.89,-7.24,-81.62,-1.9,-2.61,-0.25,-2.11,-5.77,Standing
22:35.6,416,447,670.5,612,414,1.47,679.8,2.02,20723.7,414,406,43.75,473,1913,51210,2146,1.01,-0.12,0.03,-1.85,-0.89,0.03,-7.16,-81.63,-2.06,-2.96,-0.15,-2.26,-6.11,Standing
22:35.8,446,447,670.5,612,414,1.47,679.8,2.02,20723.7,414,544,43.75,473,1913,19466,2690,1.02,-0.12,0,-2.18,-2.72,1.15,-7.39,-81.6,-2.26,-3.55,0.09,-2.47,-6.68,Standing
22:35.9,404,444,666,612,414,1.47,679.8,2.02,20723.7,414,726,43.75,473,1913,22254,3416,1.02,-0.12,-0.01,-1.27,0.03,-0.24,-7.32,-81.65,-2.35,-3.8,0.16,-2.55,-6.91,Standing
22:36.0,436,444,666,612,415,1.47,682.57,2.03,20723.7,414,478,43.75,473,1913,54130,3894,1.02,-0.13,-0.02,-2.49,3,-1.44,-7.76,-81.17,-2.59,-3.67,0.08,-2.8,-6.77,Standing
22:36.1,428,443,664.5,612,414,1.47,679.8,2.02,20723.7,414,323,43.75,473,1913,27387,4217,1.01,-0.12,0.01,-1.54,2.96,-3.18,-7.54,-81.43,-2.71,-3.55,-0.22,-2.91,-6.67,Standing
22:36.3,405,441,661.5,612,414,1.47,679.8,2.02,20723.7,414,460,65.09,467,4236,0,0,1.02,-0.12,0.02,-3.63,-0.63,0.69,-7.38,-81.53,-3.09,-3.88,-0.04,-3.26,-6.98,Standing
22:36.4,422,440,660,612,414,1.47,679.8,2.02,20723.7,414,422,65.09,467,4236,4294948772,422,1,-0.12,0.01,-0.77,-0.21,-2,-7.53,-81.45,-3.12,-4.15,-0.19,-3.29,-7.25,Standing
22:36.5,363,436,654,612,415,1.47,682.57,2.03,20723.7,414,503,65.09,467,4236,4294939637,925,1.01,-0.12,0.01,-1.95,1.79,-0.41,-7.45,-81.55,-3.29,-4.18,-0.14,-3.46,-7.27,Standing
22:36.6,560,442,663,612,415,1.47,682.57,2.03,20723.7,414,469,65.09,467,4236,4294962990,1394,1.01,-0.13,0,-2.04,2.87,-2.27,-7.87,-81.13,-3.48,-4.07,-0.32,-3.65,-7.15,Standing
22:36.8,451,442,663,612,414,1.47,679.8,2.02,20723.7,414,543,65.09,467,4236,28399,1937,1.02,-0.14,0.02,-2.71,3.67,-1.99,-8.21,-80.74,-3.75,-3.86,-0.47,-3.92,-6.94,Standing
22:36.9,286,435,652.5,612,414,1.47,679.8,2.02,20723.7,414,433,65.09,467,4236,19280,2370,1.01,-0.12,0.02,-1.64,3.98,-3.86,-7.15,-81.74,-3.88,-3.61,-0.86,-4.01,-6.74,Standing
22:37.0,377,433,649.5,612,415,1.47,682.57,2.03,20723.7,414,419,65.09,467,4236,4294965529,2789,1.01,-0.12,0.03,-2.22,2.24,-1.37,-7.15,-81.64,-4.09,-3.58,-0.93,-4.21,-6.71,Standing
22:37.1,560,438,657,612,415,1.47,682.57,2.03,20723.7,414,432,65.09,467,4236,4294955545,3221,1.02,-0.12,0.02,-2.49,0.76,-0.92,-7.28,-81.61,-4.33,-3.74,-0.95,-4.45,-6.85,Standing
22:37.3,485,440,660,612,414,1.47,679.8,2.02,20723.7,414,464,65.09,467,4236,6937,3685,1.01,-0.12,0.04,-2.02,1.93,-1.19,-7.38,-81.28,-4.52,-3.75,-1,-4.63,-6.85,Standing
22:37.4,277,434,651,612,415,1.47,682.57,2.03,20723.7,414,430,65.09,467,4236,4294962525,4115,1,-0.12,0.02,-3.11,-2.73,0.69,-7.54,-81.35,-4.84,-4.34,-0.81,-4.94,-7.42,Standing
22:37.5,338,431,646.5,612,415,1.47,682.57,2.03,20723.71,414,455,23.75,457,563,0,0,1.02,-0.13,0.03,-1.47,1.27,-0.69,-7.67,-81.1,-4.95,-4.43,-0.8,-5.06,-7.5,Standing
22:37.6,532,434,651,612,415,1.47,682.57,2.03,20723.71,414,451,23.75,457,563,6793,451,1.01,-0.12,0.01,-2.43,-0.31,-0.92,-7.47,-81.48,-5.18,-4.72,-0.82,-5.27,-7.79,Standing
22:37.8,594,439,658.5,612,415,1.47,682.57,2.03,20723.71,414,680,23.75,457,563,10441,1131,1.02,-0.13,0.04,-2.44,2.95,-0.6,-7.92,-80.73,-5.42,-4.6,-0.79,-5.52,-7.65,Standing
22:37.9,407,438,657,612,415,1.47,682.57,2.03,20723.71,414,425,23.75,457,563,4294961754,1556,1.01,-0.12,0.02,-1.3,0.69,-2.71,-7.4,-81.46,-5.51,-4.77,-1.03,-5.58,-7.83,Standing
22:38.0,386,436,654,612,415,1.47,682.57,2.03,20723.71,414,443,23.75,457,563,4294961395,1999,1.01,-0.12,0.02,-0.98,-0.19,0.34,-7.18,-81.68,-5.56,-5.04,-0.89,-5.63,-8.11,Standing
22:38.1,427,436,654,612,415,1.47,682.57,2.03,20723.71,414,494,23.75,457,563,4294943287,2493,1.02,-0.14,0.03,-0.85,-0.61,-0.61,-8.27,-80.58,-5.6,-5.37,-0.87,-5.71,-8.38,Standing
22:38.2,505,438,657,612,415,1.47,682.57,2.03,20723.71,414,534,23.75,457,563,4294966299,3027,1.01,-0.13,0.02,-1.55,1,-1.67,-7.94,-81,-5.72,-5.49,-0.98,-5.81,-8.51,Standing
22:38.4,416,437,655.5,612,415,1.47,682.57,2.03,20723.71,414,480,23.75,457,563,4294934555,3507,1.02,-0.13,0.02,-1.34,1.69,-1.71,-7.84,-81.08,-5.82,-5.53,-1.09,-5.9,-8.55,Standing
22:38.5,412,437,655.5,612,415,1.47,682.57,2.03,20723.71,414,444,23.75,457,563,4294935083,3951,1.01,-0.12,0.03,-2.37,0.34,-1.65,-7.4,-81.36,-6.05,-5.74,-1.2,-6.1,-8.77,Standing
22:38.6,431,437,655.5,612,415,1.47,682.57,2.03,20723.71,414,454,23.75,457,563,4294944591,4405,1.01,-0.13,0.02,-1.05,1.44,-0.18,-7.78,-81.12,-6.11,-5.81,-1.12,-6.18,-8.82,Standing
22:38.8,437,437,655.5,612,415,1.47,682.57,2.03,20723.72,415,466,20724.3,487,429496512,0,0,1.01,-0.13,0.02,-0.92,-0.73,-1.34,-7.65,-81.21,-6.15,-6.15,-1.19,-6.21,-9.15,Standing
22:38.9,466,437,655.5,612,415,1.47,682.57,2.03,20723.72,415,461,20724.3,487,429496512,15913,461,1.01,-0.13,0.02,-1.41,1.66,-0.07,-7.81,-81.07,-6.26,-6.19,-1.1,-6.32,-9.19,Standing
22:39.0,422,437,655.5,612,415,1.47,682.57,2.03,20723.72,415,484,20724.3,487,429496512,4294955321,945,1.01,-0.13,0.02,-2.2,0.14,-2.17,-8.06,-80.89,-6.47,-6.43,-1.28,-6.53,-9.41,Standing
22:39.1,450,437,655.5,612,415,1.47,682.57,2.03,20723.72,415,506,20724.3,487,429496512,4294949213,1451,1,-0.12,0.03,-1.59,0.75,0.15,-7.41,-81.4,-6.6,-6.59,-1.16,-6.63,-9.58,Standing
22:39.3,410,437,655.5,612,415,1.47,682.57,2.03,20723.72,415,470,20724.3,487,429496512,6209,1921,1.01,-0.13,0.01,-1.23,-2.44,-1.56,-7.97,-81.01,-6.68,-7.15,-1.25,-6.74,-10.1,Standing
22:39.4,395,436,654,612,415,1.47,682.57,2.03,20723.72,415,495,20724.3,487,429496512,4294956386,2416,1.01,-0.14,0,-1.85,1.59,0.74,-8.21,-80.79,-6.85,-7.2,-1.06,-6.9,-10.15,Standing
22:39.5,495,437,655.5,612,415,1.47,682.57,2.03,20723.72,415,475,20724.3,487,429496512,18107,2891,1.02,-0.13,0,-2.62,0.86,-2.01,-7.99,-81.01,-7.11,-7.34,-1.21,-7.14,-10.29,Standing
22:39.6,429,437,655.5,612,415,1.47,682.57,2.03,20723.72,415,454,20724.3,487,429496512,27615,3345,1,-0.13,0.02,-2.01,2.25,-1.48,-7.89,-81.02,-7.29,-7.31,-1.3,-7.32,-10.26,Standing
22:39.8,385,436,654,612,415,1.47,682.57,2.03,20723.72,415,505,20724.3,487,429496512,20496,3850,1,-0.13,0.01,-0.8,0.56,-2.21,-8.14,-80.84,-7.32,-7.49,-1.48,-7.35,-10.43,Standing
22:39.9,423,435,652.5,612,415,1.47,682.57,2.03,20723.72,415,439,20724.3,487,429496512,16609,4289,1.01,-0.13,0.01,-0.02,-0.9,-0.12,-7.92,-81.07,-7.25,-7.86,-1.4,-7.28,-10.79,Standing
22:40.0,609,439,658.5,612,415,1.47,682.57,2.03,20723.72,415,454,51.1,474,2610,0,0,1.02,-0.13,0.01,-1.52,1.99,-1.11,-7.99,-80.97,-7.37,-7.86,-1.43,-7.4,-10.79,Standing
22:40.2,487,440,660,612,415,1.47,682.57,2.03,20723.72,415,480,51.1,474,2610,4294935552,480,1.01,-0.14,0.01,-1.94,-0.6,0.31,-8.36,-80.61,-7.55,-8.19,-1.3,-7.58,-11.09,Standing
22:40.3,276,437,655.5,612,415,1.47,682.57,2.03,20723.72,415,451,51.1,474,2610,4294942345,931,1.01,-0.14,0,-2.25,3.14,-1.59,-8.4,-80.6,-7.76,-8.04,-1.4,-7.79,-10.95,Standing
22:40.4,430,437,655.5,612,415,1.47,682.57,2.03,20723.72,415,429,51.1,474,2610,4294929778,1360,1,-0.12,0.01,-2.45,1.76,-1.76,-7.41,-81.56,-8,-8.08,-1.52,-7.97,-11.02,Standing
22:40.5,659,441,661.5,659,415,1.47,682.57,2.03,20723.72,415,483,51.1,474,2610,4294900923,1843,1.01,-0.14,0.02,-2.13,1.04,-1.31,-8.2,-80.72,-8.19,-8.2,-1.58,-8.19,-11.1,Standing
22:40.6,285,438,657,659,415,1.47,682.57,2.03,20723.72,415,474,51.1,474,2610,4294928991,2317,1.02,-0.13,0.02,-2.01,3.46,-2.6,-8.12,-80.82,-8.38,-8.01,-1.81,-8.37,-10.92,Standing
22:40.8,325,436,654,659,414,1.47,679.8,2.02,20723.72,415,462,51.1,474,2610,4294945827,2779,1.01,-0.12,0.01,-3.17,0.66,-0.35,-7.52,-81.44,-8.7,-8.18,-1.76,-8.65,-11.11,Standing
22:40.9,534,437,655.5,659,415,1.47,682.57,2.03,20723.72,415,453,51.1,474,2610,4294954428,3232,1.02,-0.13,0.03,-1.5,0.87,-1.49,-7.88,-80.95,-8.82,-8.32,-1.85,-8.78,-11.23,Standing
22:41.0,587,440,660,659,415,1.47,682.57,2.03,20723.72,415,536,51.1,474,2610,12284,3768,1.01,-0.13,0.01,-1.86,-0.4,-0.4,-7.68,-81.31,-8.98,-8.62,-1.8,-8.93,-11.53,Standing
22:41.1,350,439,658.5,659,414,1.47,679.8,2.02,20723.72,415,465,51.1,474,2610,31901,4233,1.02,-0.14,0.01,-2.87,1.94,-1.34,-8.24,-80.73,-9.27,-8.63,-1.87,-9.23,-11.51,Standing
22:41.3,388,438,657,659,414,1.47,679.8,2.02,20723.71,414,409,16.03,464,256,0,0,1.01,-0.13,0.02,-3.73,2.34,-4.01,-7.87,-81.02,-9.66,-8.59,-2.26,-9.59,-11.49,Standing
22:41.4,424,437,655.5,659,415,1.47,682.57,2.03,20723.71,414,481,16.03,464,256,4294936513,481,1.01,-0.12,0.01,-3.31,-1.1,-2.08,-7.32,-81.63,-10.01,-8.98,-2.43,-9.9,-11.88,Standing
22:41.5,646,441,661.5,659,415,1.47,682.57,2.03,20723.71,414,508,16.03,464,256,4294932433,989,1.01,-0.11,0.02,-0.92,-3.4,-0.78,-7.08,-81.8,-10.05,-9.66,-2.42,-9.93,-12.54,Standing
22:41.6,377,440,660,659,415,1.47,682.57,2.03,20723.71,414,292,16.03,464,256,4294952161,1281,1.01,-0.13,0,-1.23,-2.45,1.71,-8.03,-80.97,-10.14,-10.22,-2.11,-10.05,-13.05,Standing
22:41.8,299,438,657,659,416,1.46,685.34,2.03,20723.71,414,293,16.03,464,256,5178,1574,1.02,-0.14,-0.03,-0.79,3.05,-3.06,-8.25,-80.62,-10.16,-10.09,-2.4,-10.09,-12.91,Standing
22:41.9,670,441,661.5,670,416,1.46,685.34,2.03,20723.71,414,305,16.03,464,256,32667,1879,1.02,-0.13,0,-4.11,4.67,-2.22,-7.91,-81.09,-10.61,-9.75,-2.57,-10.5,-12.61,Standing
22:42.0,618,444,666,670,415,1.47,682.57,2.03,20723.71,414,409,16.03,464,256,3340,2288,1.02,-0.12,0,-3.98,-1.11,-3.66,-7.39,-81.61,-11.04,-10.14,-2.93,-10.89,-13,Standing
22:42.1,392,443,664.5,670,415,1.47,682.57,2.03,20723.71,414,390,16.03,464,256,24368,2678,1.04,-0.12,0,-4.24,3.2,-3.14,-7.24,-81.76,-11.5,-9.99,-3.23,-11.33,-12.86,Standing
22:42.3,296,441,661.5,670,415,1.47,682.57,2.03,20723.71,414,505,16.03,464,256,17249,3183,1.04,-0.13,0.03,-0.21,2.5,-8.44,-7.49,-81.34,-11.46,-9.93,-4.18,-11.3,-12.78,Standing
22:42.4,469,441,661.5,670,415,1.47,682.57,2.03,20723.71,414,432,16.03,464,256,7265,3615,1.04,-0.13,0.05,-3.73,-0.92,6.41,-7.52,-80.91,-11.85,-10.29,-3.28,-11.68,-13.12,Standing
22:42.5,594,444,666,670,415,1.47,682.57,2.03,20723.72,415,465,51.85,408,2687,0,0,1.05,-0.17,0.04,4.34,-4.22,-3.15,-9.77,-78.98,-11.24,-11.06,-3.58,-11.18,-13.78,Standing
22:42.6,432,443,664.5,670,415,1.47,682.57,2.03,20723.72,415,355,51.85,408,2687,4294962249,355,1.04,-0.1,-0.05,-6.76,-2.27,-12.27,-6.04,-82.38,-12.02,-11.6,-5.02,-11.79,-14.43,Standing
22:42.8,310,441,661.5,670,415,1.47,682.57,2.03,20723.72,415,307,51.85,408,2687,23666,662,1,-0.05,-0.02,-5.95,15.77,-3.48,-3.4,-85.39,-12.7,-9.88,-5.36,-12.33,-12.9,Standing
22:42.9,482,442,663,670,416,1.46,685.34,2.03,20723.72,415,570,51.85,408,2687,20886,1232,1,-0.09,0.04,-1.36,16.49,-13.79,-5.46,-83.09,-12.8,-8.05,-7,-12.51,-11.06,Standing
22:43.0,622,444,666,670,415,1.47,682.57,2.03,20723.72,415,488,51.85,408,2687,4294964182,1720,1,-0.03,0.04,-16.34,-9.48,2.29,-2.46,-85.26,-14.8,-9.51,-6.61,-14.31,-12.54,Standing
22:43.2,314,443,664.5,670,415,1.47,682.57,2.03,20723.72,415,441,51.85,408,2687,4294962055,2161,1,-0.02,0.04,0.59,-9.89,-4.26,-1.95,-85.82,-14.66,-11.01,-7.04,-14.15,-14,Standing
22:43.3,333,441,661.5,670,415,1.47,682.57,2.03,20723.72,415,362,51.85,408,2687,4294962027,2523,0.97,-0.04,0.02,4.21,-2.62,4.74,-2.89,-85.92,-14.06,-11.59,-6.35,-13.61,-14.57,Standing
22:43.4,702,445,667.5,702,415,1.47,682.57,2.03,20723.72,415,758,51.85,408,2687,4294946767,3281,1,-0.06,0.03,-4.64,-17.62,3.56,-3.91,-84.79,-14.57,-14.06,-5.8,-14.14,-16.89,Standing
22:43.5,423,444,666,702,416,1.46,685.34,2.03,20723.72,415,294,51.85,408,2687,371,3575,0.99,-0.08,-0.02,7.72,4.99,3.72,-5.17,-83.74,-13.53,-13.69,-5.23,-13.19,-16.49,Standing
22:43.7,288,442,663,702,415,1.47,682.57,2.03,20723.72,415,408,51.85,408,2687,4294937523,3983,1.01,-0.14,0.02,3.21,13.6,-2.8,-8.43,-80.51,-13.05,-12.23,-5.48,-12.87,-14.96,Standing
22:43.8,506,443,664.5,702,415,1.47,682.57,2.03,20723.72,415,295,20724.28,427,429495904,0,0,1.05,-0.09,-0.01,-3.47,4.47,-4.72,-5.47,-83.48,-13.42,-11.92,-5.98,-13.1,-14.78,Standing
22:43.9,670,446,669,702,414,1.47,679.8,2.02,20723.72,415,286,20724.28,427,429495904,16260,286,1.01,-0.08,0,-6,-3.6,3.55,-5.11,-83.88,-14.11,-12.62,-5.43,-13.75,-15.47,Standing
22:44.0,311,444,666,702,417,1.45,688.12,2.04,20723.72,415,289,20724.28,427,429495904,34245,575,1.04,-0.12,0.03,-4.12,2.03,-4.39,-7.18,-81.56,-14.56,-12.62,-5.89,-14.26,-15.38,Standing
22:44.2,371,443,664.5,702,417,1.45,688.12,2.04,20723.72,415,297,20724.28,427,429495904,56918,872,0.97,-0.07,0.01,-3.59,6.78,0.38,-4.72,-84.26,-14.94,-12.01,-5.74,-14.53,-14.9,Standing
22:44.3,665,446,669,702,416,1.46,685.34,2.03,20723.72,415,317,20724.28,427,429495904,26335,1189,1,-0.1,0.06,-2.68,6.62,7.37,-6.17,-81.99,-15.21,-11.42,-4.71,-14.85,-14.25,Standing
22:44.4,348,445,667.5,702,416,1.46,685.34,2.03,20723.72,415,393,20724.28,427,429495904,49712,1582,1.06,-0.15,0.04,-6.83,-1.99,3.82,-8.56,-80.14,-16,-11.93,-4.12,-15.7,-14.66,Standing
22:44.5,330,444,666,702,416,1.46,685.34,2.03,20723.72,415,343,20724.28,427,429495904,36289,1925,1.03,-0.13,0.04,-2.37,3.05,-3.51,-7.67,-81.05,-16.23,-11.79,-4.47,-15.89,-14.56,Standing
22:44.7,687,446,669,702,416,1.46,685.34,2.03,20723.72,415,390,20724.28,427,429495904,57317,2315,1.01,-0.12,0.03,-5.18,-1.5,-2.27,-7.48,-81.34,-16.82,-12.24,-4.66,-16.44,-15,Standing
22:44.8,379,446,669,702,415,1.47,682.57,2.03,20723.72,415,460,20724.28,427,429495904,72309,2775,1.01,-0.12,0.05,-3.27,-3.6,-3.31,-7.08,-81.33,-17.16,-12.95,-4.98,-16.76,-15.69,Standing
22:44.9,335,444,666,702,416,1.46,685.34,2.03,20723.72,415,351,20724.28,427,429495904,64438,3126,1.01,-0.1,0.02,-0.82,1.43,-3.07,-6.26,-82.65,-17.2,-13.02,-5.27,-16.76,-15.81,Standing
22:45.0,653,447,670.5,702,416,1.46,685.34,2.03,20723.73,415,469,93.7,359,8778,0,0,1.02,-0.09,0.01,-1.66,0.21,-0.21,-5.52,-83.47,-17.33,-13.25,-5.2,-16.86,-16.05,Standing
22:45.2,552,448,672,702,415,1.47,682.57,2.03,20723.73,415,436,93.7,359,8778,4294960784,436,1.01,-0.11,0.01,-4.41,-2.31,-0.63,-6.75,-82.24,-17.82,-13.79,-5.18,-17.38,-16.53,Standing
22:45.3,310,446,669,702,415,1.47,682.57,2.03,20723.73,415,354,93.7,359,8778,4294955028,790,1.01,-0.1,0,-2.98,0.27,-1.34,-6.36,-82.64,-18.12,-14.01,-5.25,-17.65,-16.75,Standing
22:45.4,418,446,669,702,415,1.47,682.57,2.03,20723.73,415,372,93.7,359,8778,4294962340,1162,1,-0.1,0,-5.63,-2.3,-1.7,-6.25,-82.75,-18.77,-14.55,-5.36,-18.27,-17.28,Standing
22:45.6,665,448,672,702,415,1.47,682.57,2.03,20723.73,415,448,93.7,359,8778,4294966436,1610,1.03,-0.11,0,-2.1,-2.86,3.22,-6.84,-82.16,-18.96,-15.17,-4.86,-18.48,-17.84,Standing
22:45.7,310,447,670.5,702,414,1.47,679.8,2.02,20723.73,415,384,93.7,359,8778,15524,1994,1.01,-0.13,-0.03,-1.08,-3.66,-3.24,-8.04,-80.77,-19.03,-15.88,-5.17,-18.59,-18.47,Standing
22:45.8,342,446,669,702,415,1.47,682.57,2.03,20723.73,415,371,93.7,359,8778,22093,2365,1.01,-0.11,-0.04,-3.05,-1.69,-1.95,-6.92,-81.74,-19.34,-16.34,-5.31,-18.84,-18.96,Standing
22:45.9,615,448,672,702,415,1.47,682.57,2.03,20723.73,415,423,93.7,359,8778,4414,2788,1.01,-0.11,-0.04,-4.34,-3.79,1.96,-6.67,-81.98,-19.81,-17.07,-4.97,-19.29,-19.66,Standing
22:46.1,570,449,673.5,702,414,1.47,679.8,2.02,20723.73,415,448,93.7,359,8778,8510,3236,1.02,-0.11,-0.05,-1.51,3.4,-0.92,-6.74,-81.75,-19.93,-16.89,-4.98,-19.4,-19.49,Standing
22:46.2,306,447,670.5,702,414,1.47,679.8,2.02,20723.73,415,380,93.7,359,8778,21838,3616,1.02,-0.11,-0.04,-2.49,1.43,-1.63,-6.99,-81.69,-20.17,-16.96,-5.09,-19.65,-19.55,Standing
22:46.3,351,446,669,702,415,1.47,682.57,2.03,20723.71,414,357,42.67,397,1820,0,0,1.02,-0.11,-0.04,-2.05,0.1,-2.26,-6.93,-81.71,-20.36,-17.2,-5.27,-19.82,-19.78,Standing
22:46.4,628,448,672,702,415,1.47,682.57,2.03,20723.71,414,415,42.67,397,1820,4294942913,415,1.01,-0.11,-0.05,-1.39,0.15,-0.19,-7.08,-81.41,-20.46,-17.44,-5.2,-19.93,-19.99,Standing
22:46.6,518,448,672,702,414,1.47,679.8,2.02,20723.71,414,452,42.67,397,1820,4294950609,867,1.01,-0.11,-0.05,-2.37,1.85,-3.26,-6.85,-81.6,-20.69,-17.45,-5.51,-20.14,-20.02,Standing
22:46.7,293,445,667.5,702,415,1.47,682.57,2.03,20723.71,414,392,42.67,397,1820,5905,1259,1.01,-0.11,-0.02,-1.13,3.17,-0.34,-6.6,-82.24,-20.76,-17.31,-5.45,-20.2,-19.9,Standing
22:46.8,406,445,667.5,702,415,1.47,682.57,2.03,20723.71,414,423,42.67,397,1820,4294955522,1682,1.02,-0.11,-0.02,-2.85,-1.6,-2.17,-6.95,-81.91,-21.05,-17.76,-5.62,-20.49,-20.33,Standing
22:46.9,626,448,672,702,415,1.47,682.57,2.03,20723.71,414,446,42.67,397,1820,4294957830,2128,1,-0.1,-0.04,-2.89,2.4,-1.33,-6.49,-82.04,-21.35,-17.71,-5.69,-20.75,-20.28,Standing
22:47.1,369,449,673.5,702,414,1.47,679.8,2.02,20723.71,414,414,42.67,397,1820,4294932618,2542,1.01,-0.11,-0.05,-1.75,0.95,0.25,-6.56,-81.9,-21.5,-17.84,-5.56,-20.9,-20.4,Standing
22:47.2,343,449,673.5,702,415,1.47,682.57,2.03,20723.71,414,362,42.67,397,1820,4294932590,2904,1.03,-0.11,-0.03,-2.64,0.97,0.2,-6.94,-81.86,-21.76,-17.97,-5.43,-21.17,-20.53,Standing
22:47.3,647,450,675,702,415,1.47,682.57,2.03,20723.71,414,427,42.67,397,1820,4294918311,3331,1.02,-0.11,-0.03,-0.93,3.25,-2.72,-6.85,-81.98,-21.81,-17.81,-5.68,-21.21,-20.38,Standing
22:47.4,398,448,672,702,414,1.47,679.8,2.02,20723.71,414,413,42.67,397,1820,4294892272,3744,1.01,-0.11,-0.04,-1.85,0.98,-0.03,-6.82,-81.82,-21.97,-17.94,-5.58,-21.37,-20.5,Standing
22:47.6,277,445,667.5,702,415,1.47,682.57,2.03,20723.71,414,372,20724.14,411,429489952,0,0,1.01,-0.11,-0.03,-1.85,1.92,-1.02,-7.05,-81.74,-22.14,-17.95,-5.61,-21.53,-20.51,Standing
22:47.7,589,447,670.5,702,415,1.47,682.57,2.03,20723.71,414,396,20724.14,411,429489952,25744,396,1.02,-0.11,-0.03,-1.8,-0.4,-1.05,-6.98,-81.85,-22.29,-18.26,-5.64,-21.68,-20.8,Standing
22:47.8,516,448,672,702,415,1.47,682.57,2.03,20723.71,414,431,20724.14,411,429489952,14897,827,1.01,-0.11,-0.03,-3.35,-1.22,-0.69,-6.95,-81.84,-22.65,-18.67,-5.63,-22.02,-21.19,Standing
22:48.0,276,447,670.5,702,415,1.47,682.57,2.03,20723.71,414,373,20724.14,411,429489952,22954,1200,1.02,-0.11,-0.02,-1.8,2.5,-2.18,-6.89,-81.96,-22.81,-18.6,-5.8,-22.17,-21.14,Standing
22:48.1,508,447,670.5,702,415,1.47,682.57,2.03,20723.71,414,363,20724.14,411,429489952,23651,1563,1.01,-0.12,-0.03,-3.41,0.67,-0.18,-7.16,-81.67,-23.17,-18.77,-5.73,-22.53,-21.29,Standing
22:48.2,507,448,672,702,414,1.47,679.8,2.02,20723.71,414,448,20724.14,411,429489952,27747,2011,1.02,-0.11,-0.03,-1.73,-0.03,-0.42,-6.67,-82.04,-23.32,-19.03,-5.68,-22.65,-21.55,Standing
22:48.3,323,447,670.5,702,414,1.47,679.8,2.02,20723.71,414,362,20724.14,411,429489952,27719,2373,1.02,-0.12,-0.03,-1.9,2.15,-1.99,-7.3,-81.51,-23.49,-19.01,-5.83,-22.84,-21.51,Standing
22:48.5,571,449,673.5,702,414,1.47,679.8,2.02,20723.71,414,377,20724.14,411,429489952,38776,2750,1,-0.11,-0.03,-3.47,1.45,-1.44,-7,-81.83,-23.86,-19.08,-5.92,-23.18,-21.59,Standing
22:48.6,539,450,675,702,413,1.48,677.05,2.02,20723.71,414,444,20724.14,411,429489952,39304,3194,1.02,-0.1,-0.01,-1.6,1.71,0.21,-6.44,-82.52,-23.99,-19.12,-5.79,-23.29,-21.65,Standing
22:48.7,209,448,672,702,414,1.47,679.8,2.02,20723.71,414,449,20724.14,411,429489952,44297,3643,1.02,-0.12,-0.02,-1.62,-0.38,-1.06,-7.09,-81.8,-24.12,-19.42,-5.82,-23.44,-21.92,Standing
22:48.8,571,449,673.5,702,414,1.47,679.8,2.02,20723.7,414,410,39.72,405,1577,0,0,1.02,-0.1,-0.03,-1.34,0.24,-1.27,-6.41,-82.27,-24.22,-19.64,-5.88,-23.51,-22.15,Standing
22:49.0,705,452,678,705,413,1.48,677.05,2.02,20723.7,414,435,39.72,405,1577,4294959913,435,1,-0.11,-0.04,-2.1,1.33,-2.54,-7.05,-81.64,-24.41,-19.73,-6.1,-23.72,-22.2,Standing
22:49.1,333,452,678,705,413,1.48,677.05,2.02,20723.7,414,420,39.72,405,1577,4294939705,855,1.01,-0.11,-0.02,-2.75,0.34,0.59,-7.01,-81.85,-24.69,-19.94,-5.93,-23.98,-22.41,Standing
22:49.2,349,450,675,705,413,1.48,677.05,2.02,20723.7,414,366,39.72,405,1577,4294942589,1221,1.01,-0.12,-0.01,-1.5,1.92,0.55,-7.21,-81.75,-24.81,-19.95,-5.76,-24.1,-22.42,Standing
22:49.3,645,452,678,705,413,1.48,677.05,2.02,20723.7,414,416,39.72,405,1577,4294919037,1637,1.02,-0.13,-0.04,-1.71,-5.03,3.89,-7.78,-80.84,-24.95,-20.83,-5.17,-24.27,-23.23,Standing
22:49.5,419,453,679.5,705,413,1.48,677.05,2.02,20723.7,414,433,39.72,405,1577,4294909918,2070,1.04,-0.13,-0.05,0.58,1.85,-1.82,-7.83,-80.61,-24.81,-20.85,-5.3,-24.13,-23.24,Standing
22:49.6,348,453,679.5,705,413,1.48,677.05,2.02,20723.7,414,386,39.72,405,1577,4294927842,2456,1.01,-0.14,-0.05,0.56,5.69,-7.04,-8.23,-80.36,-24.67,-20.39,-6.09,-24.01,-22.78,Standing
22:49.7,563,453,679.5,705,413,1.48,677.05,2.02,20723.7,414,405,39.72,405,1577,4294895259,2861,1,-0.12,-0.04,-1.35,2.14,-5.87,-7.17,-81.43,-24.77,-20.37,-6.74,-24.06,-22.81,Standing
22:49.8,547,453,679.5,705,413,1.48,677.05,2.02,20723.7,414,447,39.72,405,1577,4294898460,3308,1.01,-0.09,-0.03,-3.7,-2.95,-1.5,-5.91,-82.85,-25.16,-20.99,-6.83,-24.39,-23.47,Standing
22:55.3,390,390,585,390,412,1.48,674.3,2.01,0,0,461,0,0,0,4294963129,953,0.99,0.07,0.11,5.18,18.6,-16.33,3.39,-81.07,1.49,4.18,-3.69,1.57,0.77,Left Fall while Standing
22:55.4,303,346,519,390,413,1.48,677.05,2.02,0,0,418,0,0,0,4294941245,1371,0.98,0.13,0.15,1.37,14.46,-15.35,7.03,-77.04,1.73,5.71,-5.48,1.94,2.4,Left Fall while Standing
22:55.5,284,325,487.5,390,413,1.48,677.05,2.02,0,0,367,0,0,0,4294944862,1738,0.98,0.15,0.17,-0.79,5.01,-9.09,7.94,-75.53,1.7,6.08,-6.51,1.95,2.82,Left Fall while Standing
22:55.7,397,343,514.5,397,413,1.48,677.05,2.02,0,0,372,0,0,0,4294952174,2110,0.97,0.17,0.19,5.32,6.8,-13.26,9.5,-73.6,2.42,6.67,-8.04,2.71,3.46,Left Fall while Standing
22:55.8,442,363,544.5,442,413,1.48,677.05,2.02,0,0,380,0,0,0,4294965502,2490,0.96,0.18,0.21,9.03,1.74,-13.66,9.74,-72.33,3.59,6.64,-9.61,3.84,3.48,Left Fall while Standing
22:55.9,581,399,598.5,581,413,1.48,677.05,2.02,0,0,384,0,0,0,14590,2874,0.95,0.22,0.19,8.61,8.06,-13.63,12.04,-71.52,4.71,7.38,-11.17,5.01,4.22,Left Fall while Standing
22:56.0,633,432,648,633,413,1.48,677.05,2.02,0,0,372,0,0,0,21902,3246,0.93,0.26,0.19,4.53,11.69,-10.18,14.82,-69.34,5.33,8.55,-12.31,5.71,5.44,Left Fall while Standing
22:56.1,637,458,687,637,413,1.48,677.05,2.02,0,0,421,0,0,0,2535,3667,0.95,0.28,0.18,2.8,4.08,-11.07,15.54,-69.02,5.74,8.81,-13.58,6.14,5.7,Left Fall while Standing
22:56.3,655,480,720,655,413,1.48,677.05,2.02,20723.67,412,453,33.36,412,1112,0,0,0.93,0.31,0.22,-0.31,5.88,-11.93,17.16,-66.48,5.77,9.29,-14.95,6.23,6.26,Left Fall while Standing
22:56.4,432,475,712.5,655,412,1.48,674.3,2.01,20723.67,412,421,33.36,412,1112,4294947929,421,0.9,0.32,0.24,4.37,6.61,-12.22,18.09,-64.57,6.39,9.86,-16.38,6.86,6.88,Left Fall while Standing
22:56.5,293,458,687,655,413,1.48,677.05,2.02,20723.67,412,369,33.36,412,1112,4294953018,790,0.91,0.34,0.21,1.5,4.65,-11.95,19.19,-64.79,6.65,10.19,-17.76,7.15,7.19,Left Fall while Standing
22:56.6,372,451,676.5,655,413,1.48,677.05,2.02,20723.67,412,363,33.36,412,1112,4294953715,1153,0.89,0.37,0.2,0.72,3.79,-11.34,21.37,-63.34,6.81,10.42,-19.09,7.39,7.47,Left Fall while Standing
22:56.8,531,457,685.5,655,413,1.48,677.05,2.02,20723.67,412,399,33.36,412,1112,14548,1552,0.88,0.4,0.2,-0.4,3.27,-10.35,23.7,-61.17,6.83,10.57,-20.27,7.5,7.7,Left Fall while Standing
22:56.9,592,467,700.5,655,413,1.48,677.05,2.02,20723.67,412,420,33.36,412,1112,4294961636,1972,0.86,0.4,0.23,-2.44,9.05,-5.72,23.79,-59.97,6.59,11.45,-20.89,7.28,8.6,Left Fall while Standing
22:57.0,393,462,693,655,413,1.48,677.05,2.02,20723.67,412,422,33.36,412,1112,4294943112,2394,0.85,0.41,0.27,1.12,2.3,-6.75,23.98,-58.67,6.8,11.49,-21.64,7.49,8.68,Left Fall while Standing
22:57.1,377,457,685.5,655,413,1.48,677.05,2.02,20723.67,412,402,33.36,412,1112,6348,2796,0.86,0.43,0.22,2.96,-1.82,-10.34,25.46,-58.9,7.24,11.02,-22.83,7.97,8.22,Left Fall while Standing
22:57.3,431,455,682.5,655,413,1.48,677.05,2.02,20723.67,412,382,33.36,412,1112,21200,3178,0.86,0.45,0.22,2.36,2.65,-8.09,26.53,-58.04,7.6,11.1,-23.73,8.36,8.33,Left Fall while Standing
22:57.4,493,457,685.5,655,413,1.48,677.05,2.02,20723.67,412,423,33.36,412,1112,3521,3601,0.83,0.46,0.24,0.6,-2.24,-5.34,27.32,-56.56,7.75,10.58,-24.29,8.53,7.89,Left Fall while Standing
22:57.5,518,460,690,655,413,1.48,677.05,2.02,20723.67,412,465,48.09,406,2312,0,0,0.82,0.46,0.24,1.53,-0.96,-9.32,27.79,-56.08,8,10.21,-25.34,8.79,7.56,Left Fall while Standing
22:57.6,424,458,687,655,413,1.48,677.05,2.02,20723.67,412,427,48.09,406,2312,4294953017,427,0.83,0.49,0.19,4.37,-0.03,-12.6,29.39,-55.97,8.62,9.96,-26.81,9.45,7.32,Left Fall while Standing
22:57.8,413,456,684,655,413,1.48,677.05,2.02,20723.67,412,397,48.09,406,2312,12258,824,0.81,0.51,0.19,-0.15,0.21,-5.87,30.61,-54.92,8.67,9.73,-27.45,9.55,7.15,Left Fall while Standing
22:57.9,469,457,685.5,655,413,1.48,677.05,2.02,20723.67,412,399,48.09,406,2312,40387,1223,0.81,0.52,0.21,1.04,4.19,-4.8,31.13,-53.72,8.87,10.01,-27.95,9.76,7.46,Left Fall while Standing
22:58.0,552,461,691.5,655,414,1.47,679.8,2.02,20723.67,412,349,48.09,406,2312,31116,1572,0.8,0.52,0.19,-0.89,-3.36,-3.11,31.6,-53.89,8.83,9.34,-28.24,9.74,6.81,Left Fall while Standing
22:58.1,470,461,691.5,655,413,1.48,677.05,2.02,20723.67,412,394,48.09,406,2312,55280,1966,0.82,0.52,0.21,-1.27,-3.36,-3.44,31.16,-53.82,8.74,8.68,-28.56,9.64,6.18,Left Fall while Standing
22:58.3,461,461,691.5,655,413,1.48,677.05,2.02,20723.67,412,393,48.09,406,2312,78657,2359,0.82,0.54,0.16,1.61,-1.19,-5.52,32.42,-53.84,9.01,8.28,-29.15,9.95,5.79,Left Fall while Standing
22:58.4,471,462,693,655,413,1.48,677.05,2.02,20723.67,412,424,48.09,406,2312,61825,2783,0.8,0.54,0.18,-1.05,2.61,-3.76,32.91,-52.96,8.95,8.35,-29.52,9.91,5.9,Left Fall while Standing
22:58.5,492,463,694.5,655,413,1.48,677.05,2.02,20723.67,412,423,48.09,406,2312,44146,3206,0.8,0.54,0.19,-1.5,0.31,-2.04,32.83,-52.8,8.83,8.15,-29.68,9.79,5.71,Left Fall while Standing
22:58.6,512,464,696,655,414,1.47,679.8,2.02,20723.67,412,416,48.09,406,2312,20594,3622,0.81,0.56,0.17,0.34,-0.34,-5.05,33.14,-52.92,8.95,7.85,-30.21,9.91,5.42,Left Fall while Standing
22:58.8,511,466,699,655,413,1.48,677.05,2.02,20723.68,413,433,33.87,405,1146,0,0,0.79,0.56,0.18,0.21,-0.12,-4.59,34.14,-51.69,9.04,7.6,-30.67,10.04,5.22,Left Fall while Standing
22:58.9,558,469,703.5,655,413,1.48,677.05,2.02,20723.68,413,411,33.87,405,1146,4294939609,411,0.77,0.56,0.19,-0.51,-0.74,-4.45,34.57,-51.1,9.05,7.25,-31.13,10.07,4.92,Left Fall while Standing
22:59.0,465,469,703.5,655,413,1.48,677.05,2.02,20723.68,413,395,33.87,405,1146,4294964562,806,0.78,0.57,0.17,-0.29,0.98,-3.8,35.03,-51.05,9.08,7.13,-31.51,10.12,4.8,Left Fall while Standing
22:59.1,494,470,705,655,413,1.48,677.05,2.02,20723.68,413,427,33.87,405,1146,4294950283,1233,0.78,0.57,0.18,-1.63,0.25,-3.16,34.78,-51.11,8.95,6.91,-31.8,9.98,4.59,Left Fall while Standing
22:59.3,529,471,706.5,655,414,1.47,679.8,2.02,20723.68,413,391,33.87,405,1146,4796,1624,0.78,0.58,0.14,0.42,-4.48,-7.11,35.66,-50.92,9.07,6.1,-32.59,10.13,3.82,Left Fall while Standing
22:59.4,963,486,729,963,414,1.47,679.8,2.02,20723.68,413,386,33.87,405,1146,22720,2010,0.76,0.59,0.14,0.08,-3.57,-5.64,37.02,-49.58,9.15,5.41,-33.19,10.26,3.21,Left Fall while Standing
22:59.5,462,485,727.5,963,413,1.48,677.05,2.02,20723.68,413,407,33.87,405,1146,4294959057,2417,0.77,0.59,0.13,-1.56,-0.24,-2.21,36.54,-50.26,9.02,5.13,-33.37,10.12,2.92,Left Fall while Standing
22:59.6,469,485,727.5,963,413,1.48,677.05,2.02,20723.68,413,414,33.87,405,1146,4294933845,2831,0.77,0.6,0.14,-2.29,2.59,-1.96,36.84,-49.86,8.8,5.21,-33.51,9.93,3,Left Fall while Standing
22:59.8,459,484,726,963,414,1.47,679.8,2.02,20723.68,413,412,33.87,405,1146,4294906981,3243,0.78,0.6,0.15,-2.27,-0.82,-4.24,36.59,-49.94,8.59,4.85,-33.94,9.71,2.66,Left Fall while Standing
22:59.9,519,485,727.5,963,414,1.47,679.8,2.02,20723.68,413,411,33.87,405,1146,4294879294,3654,0.76,0.61,0.14,-0.07,-0.79,-3.6,37.7,-48.91,8.65,4.51,-34.3,9.81,2.37,Left Fall while Standing
23:00.0,473,485,727.5,963,414,1.47,679.8,2.02,20723.69,413,440,20724.08,409,429487616,0,0,0.77,0.6,0.13,0.74,-1.69,-1.66,37.02,-49.8,8.81,4.05,-34.4,9.94,1.89,Left Fall while Standing
23:00.1,430,483,724.5,963,413,1.48,677.05,2.02,20723.69,413,391,20724.08,409,429487616,21809,391,0.77,0.6,0.11,0.44,2.66,-2.64,37.08,-50,8.94,4.13,-34.64,10.06,1.97,Left Fall while Standing
23:00.3,503,484,726,963,414,1.47,679.8,2.02,20723.69,413,419,20724.08,409,429487616,762,810,0.76,0.62,0.13,-1.95,3.15,-3.56,38.24,-48.62,8.76,4.27,-34.98,9.94,2.16,Left Fall while Standing
23:00.4,474,483,724.5,963,414,1.47,679.8,2.02,20723.69,413,372,20724.08,409,429487616,8074,1182,0.77,0.63,0.13,1.69,2.09,-5.21,38.28,-48.52,9.04,4.29,-35.53,10.21,2.17,Left Fall while Standing
23:00.5,546,485,727.5,963,413,1.48,677.05,2.02,20723.69,413,400,20724.08,409,429487616,37002,1582,0.74,0.63,0.11,-1.14,1.47,-2.16,39.42,-47.62,8.97,4.22,-35.7,10.19,2.14,Left Fall while Standing
23:00.6,423,484,726,963,414,1.47,679.8,2.02,20723.69,413,424,20724.08,409,429487616,20170,2006,0.75,0.62,0.14,-1.38,2.64,0.24,38.36,-48.34,8.87,4.3,-35.57,10.05,2.19,Left Fall while Standing
23:00.8,304,480,720,963,414,1.47,679.8,2.02,20723.69,413,437,20724.08,409,429487616,14531,2443,0.78,0.63,0.13,-0.89,-0.73,-0.89,37.8,-49.1,8.83,3.95,-35.59,9.99,1.83,Left Fall while Standing
23:00.9,504,480,720,963,414,1.47,679.8,2.02,20723.69,413,409,20724.08,409,429487616,4294952500,2852,0.77,0.64,0.12,-1.08,1.84,-7.47,38.91,-48.09,8.76,3.93,-36.44,9.97,1.85,Left Fall while Standing
23:01.0,590,482,723,963,414,1.47,679.8,2.02,20723.69,413,397,20724.08,409,429487616,11741,3249,0.73,0.64,0.11,0.17,3.07,-12.2,40.3,-46.86,8.85,4.07,-37.86,10.11,2.03,Left Fall while Standing
23:01.1,414,481,721.5,963,413,1.48,677.05,2.02,20723.69,413,389,20724.08,409,429487616,31990,3638,0.7,0.66,0.1,-1.64,2.85,-5.4,42.66,-44.58,8.72,4.17,-38.44,10.07,2.22,Left Fall while Standing
23:01.3,452,480,720,963,414,1.47,679.8,2.02,20723.69,413,371,62.09,400,3854,0,0,0.73,0.65,0.12,-3.25,-0.07,4.94,40.67,-46.26,8.38,3.92,-37.74,9.68,1.91,Left Fall while Standing
23:01.4,520,481,721.5,963,414,1.47,679.8,2.02,20723.69,413,390,62.09,400,3854,21028,390,0.73,0.66,0.14,-7.09,-1.55,5.56,40.83,-45.84,7.57,3.48,-36.95,8.9,1.51,Left Fall while Standing
23:01.5,997,491,736.5,997,414,1.47,679.8,2.02,20723.69,413,372,62.09,400,3854,28340,762,0.78,0.63,0.16,0.37,-2.77,1.48,37.96,-48.51,7.69,2.89,-36.67,8.9,0.83,Left Fall while Standing
23:01.6,497,491,736.5,997,414,1.47,679.8,2.02,20723.69,413,407,62.09,400,3854,4294964677,1169,0.74,0.63,0.1,0.68,-6.03,-6.57,39.37,-47.89,7.84,1.88,-37.39,9.1,-0.11,Left Fall while Standing
23:01.8,445,490,735,997,414,1.47,679.8,2.02,20723.69,413,407,62.09,400,3854,4294933718,1576,0.73,0.64,0.08,0.59,3.5,-8.77,40.56,-46.87,7.99,2.07,-38.39,9.29,0.11,Left Fall while Standing
23:01.9,399,489,733.5,997,414,1.47,679.8,2.02,20723.69,413,380,62.09,400,3854,4294947046,1956,0.71,0.66,0.11,-2.57,-2.05,0.99,42.11,-45.02,7.74,1.57,-38.17,9.11,-0.3,Left Fall while Standing
23:02.0,470,488,732,997,414,1.47,679.8,2.02,20723.69,413,383,62.09,400,3854,4294962663,2339,0.74,0.65,0.09,-1.83,-3.61,5.57,40.69,-46.66,7.58,0.86,-37.37,8.9,-1.04,Left Fall while Standing
23:02.1,468,488,732,997,414,1.47,679.8,2.02,20723.69,413,407,62.09,400,3854,4294931704,2746,0.74,0.64,0.08,-2.79,-2.57,3.92,40.05,-47.36,7.3,0.3,-36.79,8.61,-1.61,Left Fall while Standing
23:02.3,433,487,730.5,997,413,1.48,677.05,2.02,20723.69,413,370,62.09,400,3854,4294937532,3116,0.77,0.63,0.08,-0.24,-4.25,9.87,38.56,-48.9,7.34,-0.49,-35.44,8.59,-2.43,Left Fall while Standing
23:02.4,458,487,730.5,997,413,1.48,677.05,2.02,20723.69,413,415,62.09,400,3854,4294913149,3531,0.77,0.61,0.08,0.19,-3.46,10.37,37.54,-49.87,7.44,-1.17,-34.05,8.64,-3.12,Left Fall while Standing
23:02.5,490,487,730.5,997,414,1.47,679.8,2.02,20723.69,413,430,20724.15,396,429490144,0,0,0.8,0.58,0.09,-1.31,1.76,11.37,35.28,-52.06,7.34,-1.2,-32.53,8.46,-3.24,Left Fall while Standing
23:02.6,480,486,729,997,414,1.47,679.8,2.02,20723.69,413,381,20724.15,396,429490144,14089,381,0.81,0.56,0.07,-3.18,-2.47,10.6,33.82,-53.74,7.02,-1.76,-31.11,8.09,-3.84,Left Fall while Standing
23:02.8,449,486,729,997,414,1.47,679.8,2.02,20723.69,413,445,20724.15,396,429490144,15506,826,0.83,0.54,0.07,-5.05,2.49,11.25,32.38,-55.1,6.45,-1.7,-29.59,7.49,-3.84,Left Fall while Standing
23:02.9,474,486,729,997,414,1.47,679.8,2.02,20723.69,413,407,20724.15,396,429490144,4294951843,1233,0.84,0.51,0.07,-6.76,3.3,13.11,30.87,-56.67,5.66,-1.53,-27.82,6.67,-3.74,Left Fall while Standing
23:03.0,436,485,727.5,997,414,1.47,679.8,2.02,20723.69,413,367,20724.15,396,429490144,4294955460,1600,0.86,0.5,0.12,-7.52,5.81,9.51,29.35,-57.48,4.78,-1.05,-26.51,5.76,-3.31,Left Fall while Standing
23:03.1,444,484,726,997,413,1.48,677.05,2.02,20723.69,413,401,20724.15,396,429490144,17893,2001,0.86,0.48,0.1,-3.36,-0.15,13.42,28.39,-58.78,4.43,-1.32,-24.74,5.39,-3.62,Left Fall while Standing
23:03.3,388,483,724.5,997,413,1.48,677.05,2.02,20723.69,413,388,20724.15,396,429490144,37365,2389,0.89,0.43,0.1,-12.3,-4.36,23.09,24.85,-62.3,2.95,-2.12,-21.73,3.83,-4.53,Left Fall while Standing
23:03.4,428,482,723,997,414,1.47,679.8,2.02,20723.69,413,407,20724.15,396,429490144,6406,2796,0.94,0.36,0.11,-12.08,-6.14,21.79,20.26,-66.51,1.5,-3.15,-18.88,2.25,-5.68,Left Fall while Standing
23:03.5,426,481,721.5,997,414,1.47,679.8,2.02,20723.69,413,396,20724.15,396,429490144,32150,3192,0.96,0.33,0.1,-5.36,-1.4,15.03,18.22,-68.79,0.89,-3.57,-16.89,1.59,-6.18,Left Fall while Standing
23:03.6,396,480,720,997,413,1.48,677.05,2.02,20723.69,413,428,20724.15,396,429490144,18726,3620,0.95,0.29,0.08,-7.98,-1.71,13.32,16.53,-70.58,-0.04,-4.04,-15.11,0.62,-6.7,Left Fall while Standing
23:03.8,398,479,718.5,997,414,1.47,679.8,2.02,20723.69,413,400,69.03,402,4764,0,0,0.95,0.26,0.1,-11.31,-1.18,20.27,14.67,-72.07,-1.37,-4.44,-12.5,-0.73,-7.14,Left Fall while Standing
23:03.9,466,478,717,997,414,1.47,679.8,2.02,20723.69,413,413,69.03,402,4764,4294941257,413,0.96,0.22,0.08,-13.9,-3.39,22.17,12.48,-74.47,-3.06,-5.11,-9.61,-2.43,-7.89,Left Fall while Standing
23:04.0,453,478,717,997,414,1.47,679.8,2.02,20723.69,413,419,69.03,402,4764,4294920210,832,1,0.15,0.12,-10.95,3.59,24.7,7.93,-77.67,-4.37,-4.91,-6.4,-3.87,-7.83,Left Fall while Standing
23:04.1,439,477,715.5,997,414,1.47,679.8,2.02,20723.69,413,423,69.03,402,4764,4294902531,1255,0.99,0.1,0.13,-20.83,4.5,21.89,5.09,-78.88,-6.9,-4.6,-3.56,-6.42,-7.57,Left Fall while Standing
23:04.3,467,477,715.5,997,414,1.47,679.8,2.02,20723.69,413,415,69.03,402,4764,4294878148,1670,1.02,0.05,0.1,-12.98,-1.56,18.34,2.29,-82.2,-8.46,-5.05,-1.15,-8.03,-8.14,Left Fall while Standing
23:04.4,504,478,717,997,414,1.47,679.8,2.02,20723.69,413,390,69.03,402,4764,4294899176,2060,1.01,0.02,0.1,-18.23,-7.72,11.53,0.57,-82.38,-10.65,-6.26,0.37,-10.21,-9.3,Left Fall while Standing
23:04.5,491,478,717,997,414,1.47,679.8,2.02,20723.69,413,393,69.03,402,4764,4294922553,2453,1.02,-0.02,0.08,-21.85,-8.23,12.69,-1.76,-83.79,-13.34,-7.54,2.07,-12.87,-10.59,Left Fall while Standing
23:04.6,504,478,717,997,414,1.47,679.8,2.02,20723.69,413,410,69.03,402,4764,4294894045,2863,0.97,-0.08,0.07,-19.76,-15.52,14.44,-5.27,-82.31,-15.78,-9.77,4.01,-15.36,-12.67,Left Fall while Standing
23:04.8,486,478,717,997,414,1.47,679.8,2.02,20723.69,413,413,69.03,402,4764,4294868006,3276,1.06,-0.09,0.04,-14.27,-0.18,9.28,-5.59,-82.96,-17.5,-10.04,5.28,-17.03,-12.96,Left Fall while Standing
23:04.9,527,479,718.5,997,414,1.47,679.8,2.02,20723.69,413,422,69.03,402,4764,4294849482,3698,0.99,-0.13,0.06,2.98,14.53,-4.79,-8.05,-80.26,-17.05,-8.45,4.77,-16.69,-11.33,Left Fall while Standing
23:05.0,476,479,718.5,997,414,1.47,679.8,2.02,20723.7,414,415,20723.96,411,429482496,0,0,1.03,-0.11,0.07,-11.84,0.12,3.01,-6.66,-81.17,-18.46,-8.69,5.24,-17.99,-11.59,Left Fall while Standing
23:05.1,467,479,718.5,997,414,1.47,679.8,2.02,20723.7,414,429,20723.96,411,429482496,4294954729,429,1.07,-0.17,0.14,-9.03,4.77,4.26,-9.36,-76.87,-19.54,-8.34,5.89,-19.13,-11.08,Left Fall while Standing
23:05.3,509,479,718.5,997,415,1.47,682.57,2.03,20723.7,414,414,20723.96,411,429482496,4294929517,843,1.03,-0.14,0.06,-0.76,9.07,-21.66,-8.54,-79.81,-19.57,-7.44,3.23,-19.12,-10.33,Left Fall while Standing
23:05.4,566,480,720,997,414,1.47,679.8,2.02,20723.7,414,420,20723.96,411,429482496,4294909309,1263,0.92,-0.07,0.02,-6.76,3.39,-5.97,-4.86,-84,-20.36,-7.26,2.57,-19.74,-10.33,Left Fall while Standing
23:05.5,463,480,720,997,414,1.47,679.8,2.02,20723.7,414,403,20723.96,411,429482496,4294940646,1666,0.98,-0.07,0.09,-12.69,3.04,3.41,-4.49,-81.9,-21.9,-7.13,3.1,-21.2,-10.12,Left Fall while Standing
23:05.7,523,480,720,997,415,1.47,682.57,2.03,20723.7,414,422,20723.96,411,429482496,4294922122,2088,1.01,-0.08,0.11,-7.63,1.63,2.83,-4.9,-80.72,-22.8,-7.18,3.56,-22.08,-10.12,Left Fall while Standing
23:05.8,522,481,721.5,997,414,1.47,679.8,2.02,20723.7,414,397,20723.96,411,429482496,4294948659,2485,1.02,-0.1,0.12,-1.16,0.45,-1.79,-5.96,-79.73,-22.87,-7.37,3.44,-22.2,-10.27,Left Fall while Standing
23:05.9,329,479,718.5,997,414,1.47,679.8,2.02,20723.7,414,379,20723.96,411,429482496,4294961228,2864,1,-0.12,0.11,-0.26,-3.43,1.88,-7.42,-79.24,-22.84,-8.06,3.78,-22.22,-10.91,Left Fall while Standing
23:06.0,540,480,720,997,415,1.47,682.57,2.03,20723.7,414,404,20723.96,411,429482496,26076,3268,1.02,-0.12,0.09,-2.32,1.02,-0.61,-7.3,-80.17,-23.06,-8.19,3.8,-22.43,-11.07,Left Fall while Standing
23:06.2,492,480,720,997,414,1.47,679.8,2.02,20723.7,414,421,20723.96,411,429482496,6709,3689,1,-0.1,0.08,-4.11,0.13,-2.3,-6.58,-81.02,-23.51,-8.43,3.61,-22.83,-11.33,Left Fall while Standing
23:09.7,432,432,648,432,415,1.47,682.57,2.03,0,0,422,0,0,0,4294951853,937,1.01,-0.02,0.21,-13.89,-4.54,13.44,-1.64,-76.4,-2.84,0.63,1.65,-2.79,-2.45,Right Fall while Standing
23:09.8,461,446,669,461,415,1.47,682.57,2.03,0,0,467,0,0,0,6038,1404,1,-0.05,0.14,9.26,-6.31,3.11,-3.48,-79.67,-1.64,-0.38,2.12,-1.71,-3.55,Right Fall while Standing
23:09.9,549,480,720,549,416,1.46,685.34,2.03,0,0,432,0,0,0,4294963350,1836,0.99,-0.05,0.12,3.93,10.95,-3.81,-3.26,-81.27,-1.08,0.73,1.75,-1.17,-2.55,Right Fall while Standing
23:10.1,566,502,753,566,415,1.47,682.57,2.03,0,0,392,0,0,0,18646,2228,1,-0.06,0.13,0.42,-1.18,5.27,-3.76,-80.26,-0.96,0.34,2.49,-1.07,-2.88,Right Fall while Standing
23:10.2,470,495,742.5,566,415,1.47,682.57,2.03,0,0,402,0,0,0,49178,2630,1.01,-0.07,0.11,1.87,-4.38,7.7,-4.31,-81.09,-0.66,-0.44,3.53,-0.81,-3.67,Right Fall while Standing
23:10.3,463,490,735,566,415,1.47,682.57,2.03,0,0,491,0,0,0,28115,3121,1.1,-0.08,-0.01,-2.17,3.59,5.49,-5,-83.94,-0.86,-0.25,4.3,-1.02,-3.6,Right Fall while Standing
23:10.4,428,481,721.5,566,414,1.47,679.8,2.02,0,0,429,0,0,0,15548,3550,0.99,-0.08,0.08,-2.53,-1.43,6.74,-5.42,-81.74,-1.1,-0.67,5.22,-1.27,-3.91,Right Fall while Standing
23:10.5,461,478,717,566,414,1.47,679.8,2.02,0,0,407,0,0,0,4294951885,3957,0.99,-0.12,0.11,-4.31,-3.4,8.29,-7.33,-79.03,-1.56,-1.33,6.33,-1.79,-4.44,Right Fall while Standing
23:10.7,444,474,711,566,415,1.47,682.57,2.03,20723.71,414,389,21.98,434,482,0,0,0.98,-0.14,0.09,-0.54,-2.73,8.47,-8.42,-79.01,-1.56,-1.92,7.48,-1.83,-5,Right Fall while Standing
23:10.8,476,475,712.5,566,415,1.47,682.57,2.03,20723.71,414,410,21.98,434,482,4294938788,410,0.99,-0.17,0.07,-0.53,-6.93,13.03,-10.22,-78.01,-1.55,-3.03,9.21,-1.9,-6.03,Right Fall while Standing
23:10.9,482,475,712.5,566,415,1.47,682.57,2.03,20723.71,414,390,21.98,434,482,4294959816,800,1.01,-0.21,0.06,0.13,-2.88,16.6,-12.22,-76.23,-1.47,-3.64,11.38,-1.9,-6.55,Right Fall while Standing
23:11.0,434,472,708,566,415,1.47,682.57,2.03,20723.71,414,388,21.98,434,482,11992,1188,0.95,-0.24,0.08,-2.36,-2.43,13.76,-14.46,-73.84,-1.69,-4.2,13.2,-2.2,-6.98,Right Fall while Standing
23:11.2,474,472,708,566,415,1.47,682.57,2.03,20723.71,414,421,21.98,434,482,4294959921,1609,1,-0.26,0.1,-3.93,-3.11,13.56,-15.15,-72.87,-2.12,-4.84,15.01,-2.64,-7.56,Right Fall while Standing
23:11.3,486,473,709.5,566,415,1.47,682.57,2.03,20723.71,414,405,21.98,434,482,4294927338,2014,0.97,-0.3,0.07,0.34,0.15,12.1,-17.68,-70.82,-2,-5.08,16.63,-2.63,-7.7,Right Fall while Standing
23:11.4,535,477,715.5,566,415,1.47,682.57,2.03,20723.71,414,411,21.98,434,482,4294899651,2425,0.97,-0.33,0.04,-0.99,2.85,11.07,-19.18,-69.65,-2.06,-4.97,18.13,-2.74,-7.55,Right Fall while Standing
23:11.5,546,481,721.5,566,415,1.47,682.57,2.03,20723.71,414,510,21.98,434,482,4294897607,2935,0.95,-0.35,0.09,4.68,-0.3,13.05,-20.67,-67.67,-1.4,-5.25,19.86,-2.17,-7.75,Right Fall while Standing
23:11.7,443,479,718.5,566,415,1.47,682.57,2.03,20723.71,414,391,21.98,434,482,4294919416,3326,0.93,-0.39,0.05,4.27,-3.55,12.01,-23.26,-65.54,-0.8,-5.95,21.47,-1.69,-8.34,Right Fall while Standing
23:11.8,530,482,723,566,415,1.47,682.57,2.03,20723.71,414,523,21.98,434,482,4294930801,3849,0.77,-0.4,0.2,1.5,2.96,17.85,-27.33,-58.29,-0.54,-5.83,23.82,-1.61,-7.93,Right Fall while Standing
23:11.9,504,483,724.5,566,416,1.46,685.34,2.03,20723.72,415,486,20724.15,433,429490496,0,0,0.9,-0.44,0.07,-2.69,-2.44,16.04,-26.28,-62.37,-0.8,-6.39,25.92,-1.82,-8.63,Right Fall while Standing
23:12.0,458,482,723,566,415,1.47,682.57,2.03,20723.72,415,404,20724.15,433,429490496,32144,404,0.92,-0.5,0.04,0.02,-2.14,15.4,-29.11,-59.8,-0.73,-6.91,27.96,-1.86,-9.02,Right Fall while Standing
23:12.2,370,476,714,566,415,1.47,682.57,2.03,20723.72,415,454,20724.15,433,429490496,41652,858,0.88,-0.5,0.03,2.11,4.96,16.04,-29.99,-58.94,-0.4,-6.54,30.07,-1.58,-8.63,Right Fall while Standing
23:12.3,509,478,717,566,416,1.46,685.34,2.03,20723.72,415,405,20724.15,433,429490496,9069,1263,0.85,-0.54,0.04,-1.02,2.21,16.03,-33.24,-55.65,-0.45,-6.51,32.19,-1.77,-8.48,Right Fall while Standing
23:12.4,476,478,717,566,415,1.47,682.57,2.03,20723.72,415,429,20724.15,433,429490496,4294963798,1692,0.84,-0.59,0.05,-5.27,1.08,16.89,-35.76,-53.09,-1.05,-6.63,34.43,-2.44,-8.49,Right Fall while Standing
23:12.6,428,476,714,566,416,1.46,685.34,2.03,20723.72,415,589,20724.15,433,429490496,15743,2281,0.86,-0.61,0.02,-4.15,-3.17,12.05,-35.74,-53.23,-1.51,-7.29,36.06,-2.88,-9.12,Right Fall while Standing
23:12.7,458,475,712.5,566,416,1.46,685.34,2.03,20723.72,415,330,20724.15,433,429490496,4294960867,2611,0.8,-0.63,0.05,-5.63,-0.49,10.02,-38.83,-50.02,-2.15,-7.6,37.44,-3.62,-9.3,Right Fall while Standing
23:12.8,522,477,715.5,566,416,1.46,685.34,2.03,20723.72,415,627,20724.15,433,429490496,4294960780,3238,0.81,-0.64,0.01,0.25,-2.03,11.68,-39.13,-49.86,-2.05,-8.11,39.02,-3.53,-9.78,Right Fall while Standing
23:12.9,485,477,715.5,566,416,1.46,685.34,2.03,20723.72,415,437,20724.15,433,429490496,4294955141,3675,0.79,-0.66,0.01,0.44,-0.1,9.31,-40.65,-48.34,-1.92,-8.38,40.31,-3.47,-9.98,Right Fall while Standing
23:13.1,456,476,714,566,416,1.46,685.34,2.03,20723.72,415,351,20724.15,433,429490496,4294947270,4026,0.77,-0.69,0.02,-3.92,1.56,8.02,-42.41,-46.57,-2.35,-8.44,41.43,-3.95,-9.96,Right Fall while Standing
23:13.2,543,478,717,566,415,1.47,682.57,2.03,20723.73,415,811,20724.26,483,429494976,0,0,0.79,-0.7,0,-5.37,0.6,6.47,-42.15,-46.85,-2.95,-8.61,42.34,-4.52,-10.14,Right Fall while Standing
23:13.3,425,477,715.5,566,417,1.45,688.12,2.04,20723.73,415,301,20724.26,483,429494976,25065,301,0.8,-0.71,-0.02,-6.24,-1.95,2,-42.32,-46.66,-3.66,-9.11,42.69,-5.21,-10.61,Right Fall while Standing
23:13.4,426,475,712.5,566,417,1.45,688.12,2.04,20723.73,415,324,20724.26,483,429494976,4294966265,625,0.77,-0.71,0.02,-2.4,-0.24,-3.95,-43.07,-45.92,-3.9,-9.4,42.29,-5.46,-10.86,Right Fall while Standing
23:13.6,553,477,715.5,566,417,1.45,688.12,2.04,20723.73,415,385,20724.26,483,429494976,16122,1010,0.75,-0.7,0,-1.31,1.47,-5.82,-43.77,-45.23,-3.99,-9.46,41.65,-5.58,-10.89,Right Fall while Standing
23:13.7,435,476,714,566,418,1.45,690.91,2.04,20723.73,415,416,20724.26,483,429494976,4294959866,1426,0.74,-0.7,0,-2.6,2.16,0.94,-44.02,-44.98,-4.25,-9.44,41.87,-5.84,-10.86,Right Fall while Standing
23:13.8,454,475,712.5,566,415,1.47,682.57,2.03,20723.73,415,482,20724.26,483,429494976,4294930046,1908,0.76,-0.71,0.01,-3.31,0.5,1,-43.64,-45.35,-4.6,-9.63,42.1,-6.16,-11.06,Right Fall while Standing
23:13.9,528,477,715.5,566,418,1.45,690.91,2.04,20723.73,415,419,20724.26,483,429494976,4294908999,2327,0.76,-0.7,0,-3.3,0.39,1.5,-43.24,-45.76,-4.95,-9.84,42.39,-6.48,-11.27,Right Fall while Standing
23:14.1,437,476,714,566,418,1.45,690.91,2.04,20723.73,415,431,20724.26,483,429494976,4294898152,2758,0.74,-0.7,0.01,-3.56,-2.89,-0.08,-43.93,-45.07,-5.33,-10.46,42.48,-6.88,-11.84,Right Fall while Standing
23:14.2,446,475,712.5,566,421,1.43,699.34,2.06,20723.73,415,424,20724.26,483,429494976,4294881320,3182,0.74,-0.71,0,-1.94,-1.36,-0.51,-44.59,-44.41,-5.51,-10.89,42.52,-7.07,-12.23,Right Fall while Standing
23:14.3,585,478,717,585,415,1.47,682.57,2.03,20723.73,415,481,20724.26,483,429494976,4294850537,3663,0.74,-0.71,-0.01,-0.53,2.15,-1.96,-44.48,-44.52,-5.51,-10.87,42.37,-7.06,-12.22,Right Fall while Standing
23:14.5,436,477,715.5,585,414,1.47,679.8,2.02,20723.75,417,471,20724.08,413,429487584,0,0,0.74,-0.71,-0.01,-2.47,1.24,0.85,-44.37,-44.62,-5.75,-10.97,42.57,-7.29,-12.31,Right Fall while Standing
23:14.6,473,477,715.5,585,418,1.45,690.91,2.04,20723.75,417,353,20724.08,413,429487584,4294960833,353,0.73,-0.7,-0.01,2.81,1.15,3.55,-44.45,-44.55,-5.32,-11.07,43.12,-6.88,-12.41,Right Fall while Standing
23:14.7,521,478,717,585,417,1.45,688.12,2.04,20723.75,417,366,20724.08,413,429487584,4294963717,719,0.73,-0.72,0.01,-2.43,1.49,-0.35,-45.52,-43.48,-5.56,-11.14,43.18,-7.16,-12.43,Right Fall while Standing
23:14.8,435,477,715.5,585,418,1.45,690.91,2.04,20723.75,417,444,20724.08,413,429487584,4294964245,1163,0.76,-0.73,-0.01,-2.89,2.6,-0.31,-44.3,-44.7,-5.85,-11.06,43.24,-7.39,-12.41,Right Fall while Standing
23:15.0,463,476,714,585,414,1.47,679.8,2.02,20723.75,417,444,20724.08,413,429487584,4294964773,1607,0.73,-0.73,0,-2.78,-1.4,-3.8,-45.33,-43.67,-6.14,-11.5,42.86,-7.71,-12.79,Right Fall while Standing
23:15.1,586,479,718.5,586,415,1.47,682.57,2.03,20723.75,417,548,20724.08,413,429487584,4294937397,2155,0.73,-0.71,0,-2.39,0.5,-0.34,-45.04,-43.96,-6.37,-11.69,42.91,-7.92,-12.98,Right Fall while Standing
23:15.2,411,477,715.5,586,414,1.47,679.8,2.02,20723.75,417,460,20724.08,413,429487584,4294952389,2615,0.74,-0.7,0,-3.07,-4.07,-3.21,-44.2,-44.8,-6.69,-12.46,42.61,-8.19,-13.75,Right Fall while Standing
23:15.3,519,478,717,586,415,1.47,682.57,2.03,20723.75,417,287,20724.08,413,429487584,1926,2902,0.73,-0.71,-0.01,-2.46,-0.5,-3.68,-44.89,-44.11,-6.93,-12.78,42.24,-8.45,-14.03,Right Fall while Standing
23:15.5,487,478,717,586,417,1.45,688.12,2.04,20723.75,417,295,20724.08,413,429487584,23415,3197,0.75,-0.71,-0.02,-1.99,0.74,-6.42,-43.79,-45.19,-7.11,-12.94,41.52,-8.58,-14.23,Right Fall while Standing
23:15.6,453,478,717,586,416,1.46,685.34,2.03,20723.75,417,307,20724.08,413,429487584,52128,3504,0.75,-0.71,-0.02,-2.96,2.14,-4.65,-43.93,-45.05,-7.42,-12.92,41.03,-8.88,-14.21,Right Fall while Standing
23:15.7,529,479,718.5,586,416,1.46,685.34,2.03,20723.74,416,367,74.66,387,5573,0,0,0.78,-0.7,0.01,1.31,6.36,-10.75,-42.2,-46.79,-7.19,-12.38,39.8,-8.59,-13.76,Right Fall while Standing
23:15.9,550,480,720,586,416,1.46,685.34,2.03,20723.74,416,414,74.66,387,5573,4294942084,414,0.77,-0.67,0.01,2.93,5.68,-17.5,-41.44,-47.55,-6.75,-11.92,37.69,-8.14,-13.34,Right Fall while Standing
23:16.0,503,481,721.5,586,415,1.47,682.57,2.03,20723.74,416,454,74.66,387,5573,4294951592,868,0.79,-0.64,0,0.69,4.49,-13.85,-39.33,-49.67,-6.59,-11.6,36.05,-7.9,-13.13,Right Fall while Standing
23:16.1,434,480,720,586,415,1.47,682.57,2.03,20723.74,416,402,74.66,387,5573,14828,1270,0.81,-0.62,0.02,0.67,5.57,-5.99,-38.1,-50.88,-6.44,-11.16,35.4,-7.7,-12.75,Right Fall while Standing
23:16.2,470,480,720,586,416,1.46,685.34,2.03,20723.74,416,456,74.66,387,5573,26156,1726,0.82,-0.62,0.03,-1.47,3.79,-8,-37.44,-51.49,-6.55,-10.93,34.49,-7.79,-12.55,Right Fall while Standing
23:16.4,504,480,720,586,417,1.45,688.12,2.04,20723.74,416,458,74.66,387,5573,39312,2184,0.84,-0.61,0.05,-2.33,5.06,-12.19,-36.63,-52.2,-6.77,-10.55,33.08,-7.96,-12.22,Right Fall while Standing
23:16.5,480,480,720,586,414,1.47,679.8,2.02,20723.74,416,294,74.66,387,5573,60212,2478,0.78,-0.6,0.11,0.07,2.36,-14.44,-37.8,-50.5,-6.69,-10.51,31.37,-7.94,-12.11,Right Fall while Standing
23:16.6,409,479,718.5,586,416,1.46,685.34,2.03,20723.74,416,312,74.66,387,5573,92020,2790,0.85,-0.55,0.08,-0.3,2.73,-12.09,-33.45,-55.2,-6.66,-10.42,29.95,-7.73,-12.21,Right Fall while Standing
23:16.7,532,480,720,586,415,1.47,682.57,2.03,20723.74,416,433,74.66,387,5573,82901,3223,0.87,-0.54,0.07,0.77,4.1,-10.05,-32.48,-56.25,-6.49,-10.15,28.79,-7.53,-12,Right Fall while Standing
23:16.9,508,480,720,586,418,1.45,690.91,2.04,20723.74,416,451,74.66,387,5573,89694,3674,0.87,-0.52,0.07,-1.08,2.27,-11.48,-31.46,-57.26,-6.56,-10.12,27.44,-7.55,-12,Right Fall while Standing
23:17.0,468,480,720,586,415,1.47,682.57,2.03,20723.73,415,437,91.68,411,8404,0,0,0.88,-0.5,0.07,0.09,2.39,-12.2,-30.18,-58.5,-6.48,-10.07,26.03,-7.42,-12.01,Right Fall while Standing
23:17.1,433,479,718.5,586,415,1.47,682.57,2.03,20723.73,415,650,91.68,411,8404,29284,650,0.89,-0.48,0.09,-1.02,1.67,-15.42,-28.57,-59.84,-6.53,-10.11,24.2,-7.41,-12.1,Right Fall while Standing
23:17.2,477,479,718.5,586,417,1.45,688.12,2.04,20723.73,415,512,91.68,411,8404,29284,1162,0.9,-0.44,0.08,0.5,3.74,-15.43,-26.81,-61.75,-6.4,-9.89,22.35,-7.21,-11.97,Right Fall while Standing
23:17.4,471,479,718.5,586,417,1.45,688.12,2.04,20723.73,415,298,91.68,411,8404,52552,1460,0.92,-0.41,0.08,-0.4,2.64,-14.89,-24.77,-63.79,-6.38,-9.81,20.59,-7.11,-11.97,Right Fall while Standing
23:17.5,454,479,718.5,586,414,1.47,679.8,2.02,20723.73,415,302,91.68,411,8404,78220,1762,0.96,-0.38,0.08,-5.27,-0.93,-20.18,-22.24,-66.3,-6.97,-10.18,18.17,-7.58,-12.42,Right Fall while Standing
23:17.6,544,480,720,586,414,1.47,679.8,2.02,20723.73,415,399,91.68,411,8404,106349,2161,0.93,-0.34,0.08,-10.4,7.98,-17.69,-20.61,-67.79,-8.21,-9.42,16.04,-8.7,-11.76,Right Fall while Standing
23:17.7,448,479,718.5,586,414,1.47,679.8,2.02,20723.73,415,292,91.68,411,8404,126077,2453,0.96,-0.32,0.1,-9.81,7.93,-13.18,-18.7,-69.42,-9.37,-8.68,14.47,-9.75,-11.11,Right Fall while Standing
23:17.9,520,480,720,586,416,1.46,685.34,2.03,20723.73,415,305,91.68,411,8404,153566,2758,0.97,-0.32,0.1,-5.72,0.38,-15.76,-18.89,-69.28,-10.02,-8.88,12.6,-10.37,-11.29,Right Fall while Standing
23:18.0,482,480,720,586,416,1.46,685.34,2.03,20723.73,415,319,91.68,411,8404,124255,3077,0.98,-0.28,0.1,-14.08,-6.05,-23.15,-16.3,-71.72,-11.72,-9.89,9.79,-11.9,-12.37,Right Fall while Standing
23:18.1,488,480,720,586,416,1.46,685.34,2.03,20723.73,415,385,91.68,411,8404,141408,3462,1.03,-0.2,0.09,-12.66,-5.3,-32.24,-11.72,-76.32,-13.25,-10.81,5.82,-13.19,-13.43,Right Fall while Standing
23:18.2,358,478,717,586,415,1.47,682.57,2.03,20723.72,415,373,122.25,383,14945,0,0,0.98,-0.17,0.13,-10.6,0.59,-34.48,-10.16,-76.29,-14.51,-10.99,1.58,-14.34,-13.6,Right Fall while Standing
23:18.4,537,479,718.5,586,416,1.46,685.34,2.03,20723.72,415,485,122.25,383,14945,4294940377,485,0.96,-0.08,0.13,8.56,-11.34,-22.65,-5.31,-79.33,-13.36,-12.67,-1.18,-13.04,-15.34,Right Fall while Standing
23:18.5,476,479,718.5,586,416,1.46,685.34,2.03,20723.72,415,432,122.25,383,14945,4294930393,917,1,-0.06,0,2.92,-3.16,-12,-4.02,-84.98,-12.92,-13.32,-2.59,-12.57,-16.19,Right Fall while Standing
23:18.6,435,478,717,586,416,1.46,685.34,2.03,20723.72,415,374,122.25,383,14945,4294939197,1291,1.04,-0.04,0.01,-3.8,-2.6,-7.35,-2.67,-86.24,-13.33,-13.91,-3.42,-12.91,-16.8,Right Fall while Standing
23:18.7,564,479,718.5,586,417,1.45,688.12,2.04,20723.72,415,634,122.25,383,14945,4294947937,1925,1,0,0.05,-6.37,-3.41,5.42,-0.66,-85.45,-14.07,-14.59,-2.63,-13.54,-17.43,Right Fall while Standing
23:18.9,502,480,720,586,416,1.46,685.34,2.03,20723.72,415,567,122.25,383,14945,4294941746,2492,0.99,-0.05,-0.02,-1.82,1,-0.08,-3.67,-85.16,-14.23,-14.72,-2.54,-13.81,-17.54,Right Fall while Standing
23:19.0,306,477,715.5,586,416,1.46,685.34,2.03,20723.72,415,421,122.25,383,14945,4294922379,2913,1.02,-0.09,0,-8.36,-1.76,3.78,-5.5,-83.5,-15.22,-15.2,-1.96,-14.83,-17.93,Right Fall while Standing
23:19.1,517,478,717,586,417,1.45,688.12,2.04,20723.72,415,346,122.25,383,14945,4294911023,3259,1.02,-0.06,-0.01,-10.38,-5.89,1.72,-4.1,-84.88,-16.46,-16.19,-1.65,-15.97,-18.94,Right Fall while Standing
23:19.3,603,480,720,603,417,1.45,688.12,2.04,20723.72,415,387,122.25,383,14945,4294929720,3646,1.04,-0.05,-0.03,2.3,-2.85,-7.11,-3.53,-84.95,-16.1,-16.81,-2.45,-15.59,-19.54,Right Fall while Standing
23:19.4,375,478,717,603,417,1.45,688.12,2.04,20723.72,415,304,122.25,383,14945,4294956600,3950,1.02,-0.06,-0.01,-6.86,12.54,-9.73,-4.12,-84.86,-16.9,-15.47,-3.58,-16.39,-18.25,Right Fall while Standing
23:19.5,516,479,718.5,603,417,1.45,688.12,2.04,20723.75,416,456,7.94,440,62,0,0,0.97,-0.01,-0.03,-5.85,18.79,-13.57,-1.46,-86.28,-17.55,-13.39,-5.17,-16.91,-16.3,Right Fall while Standing
23:19.6,615,480,720,615,417,1.45,688.12,2.04,20723.75,416,627,7.94,440,62,4294967209,627,0.97,-0.02,0.1,-20.85,5.98,5.16,-1.68,-82.52,-20.13,-12.88,-4.41,-19.39,-15.67,Right Fall while Standing
23:19.8,356,479,718.5,615,417,1.45,688.12,2.04,20723.75,416,303,7.94,440,62,26186,930,1.02,-0.03,0.1,-5.53,5.66,8.34,-2.43,-82.78,-20.75,-12.43,-3.28,-20.01,-15.24,Right Fall while Standing
23:19.9,380,478,717,615,417,1.45,688.12,2.04,20723.75,416,303,7.94,440,62,52459,1233,1.01,-0.04,0.03,-5.79,-9.05,5.06,-2.84,-85.45,-21.4,-13.81,-2.55,-20.66,-16.68,Right Fall while Standing
23:20.0,525,478,717,615,418,1.45,690.91,2.04,20723.75,416,351,7.94,440,62,44588,1584,1.01,-0.11,0.04,-4.45,-2.9,10.23,-6.83,-81.76,-21.89,-14.42,-1.17,-21.29,-17.12,Right Fall while Standing
23:20.1,571,479,718.5,615,418,1.45,690.91,2.04,20723.75,416,485,7.94,440,62,17669,2069,1,-0.11,0.05,-6.7,3.48,1.7,-6.74,-81.71,-22.66,-14.24,-0.86,-22.02,-16.93,Right Fall while Standing
23:20.3,512,480,720,615,417,1.45,688.12,2.04,20723.75,416,568,7.94,440,62,12613,2637,1.03,-0.13,0.07,-4.64,7.45,1.17,-7.66,-80.26,-23.17,-13.56,-0.62,-22.55,-16.23,Right Fall while Standing
23:20.4,441,479,718.5,615,417,1.45,688.12,2.04,20723.75,416,483,7.94,440,62,4294951054,3120,1.02,-0.12,0.06,-4.76,-0.11,-3.39,-7.07,-81.14,-23.7,-13.83,-0.94,-23.03,-16.52,Right Fall while Standing
23:20.5,954,485,727.5,954,418,1.45,690.91,2.04,20723.75,416,302,7.94,440,62,9426,3422,1.02,-0.09,0.03,-2.52,1.15,-3.08,-5.45,-83.19,-23.94,-13.93,-1.23,-23.2,-16.7,Right Fall while Standing
23:20.6,560,486,729,954,418,1.45,690.91,2.04,20723.75,416,425,7.94,440,62,4294960739,3847,1,-0.09,0.06,-1.21,3.69,-1.75,-5.65,-82.35,-24.02,-13.72,-1.35,-23.29,-16.46,Right Fall while Standing
23:20.8,566,486,729,954,417,1.45,688.12,2.04,20723.76,417,429,20724.26,427,429494816,0,0,1.01,-0.1,0.05,-3.18,-1.11,-0.17,-6.12,-82.16,-24.36,-14.11,-1.27,-23.63,-16.83,Right Fall while Standing
23:20.9,397,485,727.5,954,417,1.45,688.12,2.04,20723.76,417,413,20724.26,427,429494816,4294941257,413,1.01,-0.11,0.06,-3.01,-2.05,3.61,-7.03,-81.12,-24.67,-14.63,-0.71,-23.96,-17.29,Right Fall while Standing
23:21.0,493,485,727.5,954,418,1.45,690.91,2.04,20723.76,417,381,20724.26,427,429494816,4294955346,794,1.03,-0.12,0.05,-1.93,-5.11,1.13,-7.23,-81.32,-24.84,-15.54,-0.47,-24.14,-18.17,Right Fall while Standing
23:21.1,534,486,729,954,417,1.45,688.12,2.04,20723.76,417,471,20724.26,427,429494816,13283,1265,1.01,-0.13,0.02,1.6,2.39,-4.53,-7.74,-81.16,-24.57,-15.49,-0.94,-23.89,-18.11,Right Fall while Standing
23:21.3,388,485,727.5,954,417,1.45,688.12,2.04,20723.76,417,411,20724.26,427,429494816,4294952892,1676,1,-0.12,0.01,-3.49,1.37,-3.68,-7.15,-81.8,-24.94,-15.57,-1.31,-24.23,-18.22,Right Fall while Standing
23:21.4,579,486,729,954,418,1.45,690.91,2.04,20723.76,417,390,20724.26,427,429494816,6624,2066,1.01,-0.09,0.04,-2.29,3.91,-2.98,-5.63,-82.89,-25.16,-15.33,-1.59,-24.38,-18.03,Right Fall while Standing
23:24.3,515,515,772.5,515,417,1.45,688.12,2.04,0,0,432,0,0,0,15684,734,1.02,-0.08,0.16,-0.42,0.92,1.96,-4.88,-78.68,0.19,-0.16,0.73,-0.01,-3.3,Forward Fall while Standing
23:24.4,566,540,810,566,417,1.45,688.12,2.04,0,0,311,0,0,0,46869,1045,1.02,-0.07,0.14,-3.9,-4.88,-0.05,-4.41,-79.85,-0.22,-1.01,0.82,-0.39,-4.16,Forward Fall while Standing
23:24.5,364,481,721.5,566,417,1.45,688.12,2.04,0,0,306,0,0,0,74969,1351,1.01,-0.1,0.11,8.14,-2.66,-6.19,-5.95,-80.09,0.84,-1.58,0.16,0.57,-4.72,Forward Fall while Standing
23:24.7,492,484,726,566,416,1.46,685.34,2.03,0,0,579,0,0,0,82530,1930,0.85,-0.08,0.16,-10.48,-44.69,-13.38,-5.83,-76.39,-0.38,-7.32,-1.39,-0.6,-10.08,Forward Fall while Standing
23:24.8,434,474,711,566,416,1.46,685.34,2.03,0,0,293,0,0,0,102843,2223,0.93,-0.01,-0.08,1.76,-16.58,-3.08,-1.18,-83.33,-0.09,-9.62,-1.67,-0.14,-12.57,Forward Fall while Standing
23:24.9,427,466,699,566,417,1.45,688.12,2.04,0,0,389,0,0,0,123092,2612,0.21,-0.15,0.71,-8.51,25.08,8.76,-11.7,-14.24,-1.07,-6.79,-0.5,-1.5,-7.08,Forward Fall while Standing
23:25.0,457,465,697.5,566,415,1.47,682.57,2.03,0,0,297,0,0,0,145765,2909,1.02,-0.05,-0.08,-5.32,-24.85,0.01,-3.64,-83.05,-1.65,-10.06,-0.4,-1.73,-12.98,Forward Fall while Standing
23:25.1,495,468,702,566,417,1.45,688.12,2.04,0,0,299,0,0,0,169630,3208,1,-0.06,-0.17,-6.7,-34.74,-0.83,-3.72,-78.48,-2.41,-14.62,-0.4,-2.46,-17.17,Forward Fall while Standing
23:25.3,466,468,702,566,416,1.46,685.34,2.03,20723.75,416,296,138.46,350,19170,0,0,1.72,-0.08,-0.82,-11.9,-52.26,-4.11,-3.13,-62.83,-3.83,-21.4,-0.82,-3.8,-23.06,Forward Fall while Standing
23:25.4,517,473,709.5,566,416,1.46,685.34,2.03,20723.75,416,333,138.46,350,19170,4294947113,333,0.95,-0.04,-0.23,-1.27,-30.69,-2.68,-2.92,-74.46,-3.92,-25.55,-1.06,-3.88,-27.51,Forward Fall while Standing
23:25.5,456,471,706.5,566,416,1.46,685.34,2.03,20723.75,416,355,138.46,350,19170,4294942066,688,0.98,-0.05,-0.38,0.73,-23.61,-4.6,-3.27,-67.21,-3.76,-28.8,-1.54,-3.74,-30.34,Forward Fall while Standing
23:25.6,524,476,714,566,417,1.45,688.12,2.04,20723.75,416,388,138.46,350,19170,4294961538,1076,0.97,-0.05,-0.41,-4.8,-23.47,-6.31,-3.11,-65.28,-4.29,-32.01,-2.24,-4.24,-33.34,Forward Fall while Standing
23:25.8,521,479,718.5,566,416,1.46,685.34,2.03,20723.75,416,393,138.46,350,19170,17619,1469,0.94,-0.03,-0.46,0.71,-34.49,-8.37,-2.14,-62.43,-4.13,-36.61,-3.2,-4.05,-37.64,Forward Fall while Standing
23:25.9,752,499,748.5,752,416,1.46,685.34,2.03,20723.75,416,374,138.46,350,19170,26423,1843,0.89,-0.01,-0.57,0.82,-36.88,-1.05,-1.23,-55.98,-3.96,-41.51,-3.23,-3.85,-42.09,Forward Fall while Standing
23:26.0,562,503,754.5,752,416,1.46,685.34,2.03,20723.75,416,428,138.46,350,19170,12999,2271,0.91,-0.02,-0.6,-2.6,-24.76,-5.37,-1.82,-55.05,-4.21,-44.88,-3.81,-4.12,-45.29,Forward Fall while Standing
23:26.2,582,508,762,752,417,1.45,688.12,2.04,20723.75,416,453,138.46,350,19170,21600,2724,0.83,-0.02,-0.63,-2.99,-29.52,-5.12,-1.59,-51.42,-4.52,-48.85,-4.35,-4.4,-48.95,Forward Fall while Standing
23:26.3,479,506,759,752,416,1.46,685.34,2.03,20723.75,416,621,138.46,350,19170,14025,3345,0.79,-0.01,-0.71,1.05,-31.68,-3.32,-1.37,-46.24,-4.32,-53.1,-4.67,-4.2,-52.82,Forward Fall while Standing
23:26.4,450,503,754.5,752,416,1.46,685.34,2.03,20723.75,416,298,138.46,350,19170,37293,3643,0.73,-0.02,-0.72,1.46,-25.07,-2.56,-1.64,-43.76,-4.06,-56.51,-4.89,-3.97,-56,Forward Fall while Standing
23:26.5,509,503,754.5,752,417,1.45,688.12,2.04,20723.74,416,322,31.46,396,989,0,0,0.73,0,-0.81,-6.61,-20.21,-5.66,-0.59,-40.23,-4.81,-59.26,-5.5,-4.64,-58.5,Forward Fall while Standing
23:26.7,505,503,754.5,752,417,1.45,688.12,2.04,20723.74,416,365,31.46,396,989,2153,365,0.69,0.01,-0.82,-4.55,-27.57,-3.87,-0.31,-38.21,-5.31,-62.96,-5.88,-5.11,-61.97,Forward Fall while Standing
23:26.8,521,504,756,752,417,1.45,688.12,2.04,20723.74,416,393,31.46,396,989,25530,758,0.64,0.01,-0.86,-0.05,-26.66,-3.15,0.18,-35.08,-5.25,-66.54,-6.18,-5.03,-65.28,Forward Fall while Standing
23:26.9,423,500,750,752,416,1.46,685.34,2.03,20723.74,416,388,31.46,396,989,45002,1146,0.59,0,-0.91,1.69,-27.71,-1.26,-0.4,-31.49,-4.96,-70.28,-6.24,-4.78,-68.73,Forward Fall while Standing
23:27.0,475,499,748.5,752,416,1.46,685.34,2.03,20723.74,416,390,31.46,396,989,66030,1536,0.55,0,-0.94,4.16,-22.05,-2.97,-0.45,-28.68,-4.38,-73.26,-6.51,-4.22,-71.48,Forward Fall while Standing
23:27.2,541,501,751.5,752,417,1.45,688.12,2.04,20723.74,416,396,31.46,396,989,91774,1932,0.75,-0.06,-1.23,4.02,-22.21,-2.29,-3.05,-29.83,-3.81,-76.29,-6.7,-3.78,-74.43,Forward Fall while Standing
23:27.3,479,500,750,752,416,1.46,685.34,2.03,20723.74,416,320,31.46,396,989,63102,2252,0.46,-0.01,-0.97,2.4,-15.74,-4.24,-1.15,-23.96,-3.44,-78.51,-7.13,-3.34,-76.33,Forward Fall while Standing
23:27.4,450,498,747,752,416,1.46,685.34,2.03,20723.74,416,389,31.46,396,989,83351,2641,0.43,-0.01,-0.97,1.5,-13.37,-1.82,-1.37,-22.25,-3.18,-80.44,-7.26,-3.1,-78.12,Forward Fall while Standing
23:27.5,549,500,750,752,416,1.46,685.34,2.03,20723.74,416,435,31.46,396,989,75968,3076,0.41,-0.03,-0.99,3.63,-24.87,-1.63,-2.34,-20.66,-2.65,-83.8,-7.36,-2.64,-81.28,Forward Fall while Standing
23:27.7,519,501,751.5,752,417,1.45,688.12,2.04,20723.74,416,395,31.46,396,989,100921,3471,0.35,-0.04,-1.03,3.15,-24.5,-3.61,-2.74,-17.03,-2.19,-87.14,-7.72,-2.21,-84.34,Forward Fall while Standing
23:27.8,485,500,750,752,416,1.46,685.34,2.03,20723.74,416,443,100.28,391,10055,0,0,0.29,-0.04,-1.05,0.25,-13.07,-4.44,-2.7,-14.08,-2.09,-89.01,-8.17,-2.11,-86.01,Forward Fall while Standing
23:27.9,443,498,747,752,416,1.46,685.34,2.03,20723.74,416,394,100.28,391,10055,24164,394,0.26,-0.04,-1.05,0.52,-9.17,-0.21,-2.88,-12.48,-1.95,-90.42,-8.1,-1.99,-87.3,Forward Fall while Standing
23:28.0,422,496,744,752,416,1.46,685.34,2.03,20723.74,416,528,100.28,391,10055,40804,922,0.25,-0.05,-1.06,-0.2,-9.19,-0.63,-3.41,-11.49,-1.9,-91.83,-8.08,-1.96,-88.62,Forward Fall while Standing
23:28.2,518,496,744,752,417,1.45,688.12,2.04,20723.74,416,385,100.28,391,10055,57957,1307,0.24,-0.05,-1.06,-0.11,2.02,-1.95,-3.11,-11.09,-1.85,-91.83,-8.22,-1.9,-88.6,Forward Fall while Standing
23:28.3,575,499,748.5,752,417,1.45,688.12,2.04,20723.74,416,376,100.28,391,10055,68261,1683,0.24,-0.05,-1.07,-1.9,4.04,-1.24,-3.44,-11.25,-2.02,-91.57,-8.28,-2.07,-88.36,Forward Fall while Standing
23:28.4,442,497,745.5,752,417,1.45,688.12,2.04,20723.74,416,401,100.28,391,10055,97990,2084,0.23,-0.05,-1.07,-2.69,-10.11,-0.88,-3.27,-10.74,-2.29,-93.09,-8.29,-2.33,-89.8,Forward Fall while Standing
23:28.5,461,496,744,752,417,1.45,688.12,2.04,20723.74,416,392,100.28,391,10055,120582,2476,0.22,-0.05,-1.05,1.04,-7.17,0.02,-3.33,-10.07,-2.09,-94.25,-8.19,-2.14,-90.88,Forward Fall while Standing
23:28.7,528,497,745.5,752,417,1.45,688.12,2.04,20723.74,416,377,100.28,391,10055,131639,2853,0.22,-0.06,-1.05,0.52,-4.05,0.55,-4.02,-10.13,-1.95,-95.01,-8.02,-2.03,-91.62,Forward Fall while Standing
23:28.8,400,494,741,752,417,1.45,688.12,2.04,20723.74,416,436,100.28,391,10055,125127,3289,0.18,-0.07,-1.06,-0.11,-15.74,-1.86,-4.31,-8.16,-1.89,-97.23,-8.16,-1.99,-93.67,Forward Fall while Standing
23:28.9,433,493,739.5,752,416,1.46,685.34,2.03,20723.74,416,397,100.28,391,10055,151664,3686,0.17,-0.07,-1.11,-0.05,-8.48,-1.68,-4.38,-7.14,-1.83,-98.55,-8.27,-1.93,-94.89,Forward Fall while Standing
23:29.0,566,494,741,752,417,1.45,688.12,2.04,20723.75,416,401,134.68,408,18138,0,0,0.14,-0.08,-1.09,-1.02,-3.61,-2.37,-4.6,-5.69,-1.89,-99.25,-8.46,-1.99,-95.51,Forward Fall while Standing
23:29.2,514,495,742.5,752,417,1.45,688.12,2.04,20723.75,416,369,134.68,408,18138,5089,369,0.14,-0.08,-1.09,-1.56,-0.24,-1.28,-4.58,-5.82,-2.01,-99.53,-8.53,-2.11,-95.78,Forward Fall while Standing
23:29.3,477,494,741,752,416,1.46,685.34,2.03,20723.75,416,397,134.68,408,18138,31626,766,0.14,-0.07,-1.07,-1.5,0.27,-1.6,-4.22,-5.66,-2.13,-99.75,-8.63,-2.21,-95.98,Forward Fall while Standing
23:29.4,434,493,739.5,752,416,1.46,685.34,2.03,20723.75,416,401,134.68,408,18138,61355,1167,0.14,-0.07,-1.08,-2.32,0.19,-2.23,-4.5,-5.82,-2.35,-99.97,-8.81,-2.44,-96.21,Forward Fall while Standing
23:29.5,474,493,739.5,752,417,1.45,688.12,2.04,20723.75,416,386,134.68,408,18138,79279,1553,0.14,-0.08,-1.08,-3.04,2.68,-2.4,-4.82,-5.82,-2.66,-99.89,-9.01,-2.75,-96.13,Forward Fall while Standing
23:29.7,522,493,739.5,752,417,1.45,688.12,2.04,20723.75,416,372,134.68,408,18138,86591,1925,0.14,-0.06,-1.09,-6.79,6.53,-3.38,-3.73,-5.47,-3.44,-99.32,-9.33,-3.45,-95.57,Forward Fall while Standing
23:29.8,528,494,741,752,417,1.45,688.12,2.04,20723.75,416,396,134.68,408,18138,112335,2321,0.15,-0.07,-1.09,-4.98,12.37,-0.83,-4.04,-6.19,-4,-98.01,-9.34,-4,-94.34,Forward Fall while Standing
23:29.9,426,493,739.5,752,416,1.46,685.34,2.03,20723.75,416,383,134.68,408,18138,127952,2704,0.18,-0.06,-1.07,-4.82,5.73,-3.05,-3.89,-8.17,-4.53,-97.54,-9.63,-4.51,-93.97,Forward Fall while Standing
23:30.0,475,492,738,752,418,1.45,690.91,2.04,20723.75,416,389,134.68,408,18138,148201,3093,0.18,-0.05,-1.08,-1.95,11.67,-1.74,-3.16,-8.07,-4.71,-96.33,-9.74,-4.65,-92.8,Forward Fall while Standing
23:30.2,517,493,739.5,752,418,1.45,690.91,2.04,20723.75,416,403,134.68,408,18138,179538,3496,0.24,-0.05,-1.09,-3.5,19.04,-2.18,-3.08,-10.55,-5.08,-94.18,-9.92,-5,-90.83,Forward Fall while Standing
23:30.3,463,492,738,752,417,1.45,688.12,2.04,20723.75,416,432,130.21,392,16954,0,0,0.27,-0.04,-1.07,-5.77,27.67,-3.26,-2.87,-12.44,-5.73,-91,-10.23,-5.61,-87.85,Forward Fall while Standing
23:30.4,700,496,744,752,417,1.45,688.12,2.04,20723.75,416,416,130.21,392,16954,4294943744,416,0.3,-0.05,-1.06,-6.2,31.32,-1.38,-3.22,-14.37,-6.44,-87.27,-10.3,-6.31,-84.36,Forward Fall while Standing
23:30.5,505,496,744,752,417,1.45,688.12,2.04,20723.75,416,385,130.21,392,16954,4294960897,801,0.4,-0.04,-1.01,-6.36,27.85,-0.46,-2.71,-20.01,-7.18,-83.99,-10.26,-7,-81.43,Forward Fall while Standing
23:30.7,588,498,747,752,416,1.46,685.34,2.03,20723.75,416,391,130.21,392,16954,15410,1192,0.43,-0.02,-0.97,-7.51,24.98,-1.82,-1.45,-22.46,-8.06,-81.09,-10.39,-7.79,-78.75,Forward Fall while Standing
23:30.8,428,497,745.5,752,417,1.45,688.12,2.04,20723.75,416,374,130.21,392,16954,24214,1566,0.49,0,-0.96,-3.24,37.27,-0.97,-0.33,-25.61,-8.39,-76.65,-10.41,-8.07,-74.61,Forward Fall while Standing
23:30.9,463,496,744,752,417,1.45,688.12,2.04,20723.75,416,359,130.21,392,16954,22023,1925,0.57,0,-0.92,-0.73,35.5,1.66,-0.68,-30.41,-8.41,-72.43,-10.1,-8.1,-70.75,Forward Fall while Standing
23:31.0,517,496,744,752,417,1.45,688.12,2.04,20723.75,416,369,130.21,392,16954,27112,2294,0.62,-0.01,-0.88,-4.04,33.92,2.98,-1.01,-33.53,-8.85,-68.44,-9.63,-8.54,-67.04,Forward Fall while Standing
23:31.2,485,496,744,752,417,1.45,688.12,2.04,20723.75,416,372,130.21,392,16954,34424,2666,0.68,-0.01,-0.82,-3.76,32.43,2.68,-0.92,-38.12,-9.25,-64.6,-9.19,-8.92,-63.55,Forward Fall while Standing
23:31.3,416,495,742.5,752,419,1.44,693.71,2.05,20723.75,416,372,130.21,392,16954,41736,3038,0.74,-0.02,-0.77,-1.06,35.91,-2.25,-1.75,-42.3,-9.32,-60.33,-9.38,-9.01,-59.61,Forward Fall while Standing
23:31.4,482,495,742.5,752,425,1.41,710.7,2.08,20723.75,416,360,130.21,392,16954,40264,3398,0.79,-0.01,-0.74,-0.93,39.87,-1.59,-1.06,-45.18,-9.36,-55.56,-9.48,-9.03,-55.15,Forward Fall while Standing
23:31.6,468,494,741,752,416,1.46,685.34,2.03,20723.77,417,323,36.77,372,1351,0,0,0.84,-0.01,-0.66,2.96,50.94,-0.14,-1.18,-50.05,-8.93,-49.54,-9.4,-8.62,-49.56,Forward Fall while Standing
23:31.7,428,493,739.5,752,413,1.48,677.05,2.02,20723.77,417,346,36.77,372,1351,4294955940,346,0.9,-0.02,-0.54,11.41,61.42,-1.89,-1.44,-57.38,-7.42,-42.05,-9.54,-7.18,-42.67,Forward Fall while Standing
23:31.8,358,491,736.5,752,418,1.45,690.91,2.04,20723.77,417,320,36.77,372,1351,4294927268,666,0.94,-0.03,-0.46,11.94,48.19,-6.68,-2.33,-62.33,-5.85,-36.23,-10.28,-5.71,-37.28,Forward Fall while Standing
23:31.9,429,490,735,752,424,1.41,707.85,2.07,20723.77,417,347,36.77,372,1351,4294916605,1013,0.99,-0.02,-0.34,6.21,25.6,-10.23,-1.5,-69.67,-4.99,-33.24,-11.48,-4.85,-34.7,Forward Fall while Standing
23:32.1,401,488,732,752,419,1.44,693.71,2.05,20723.77,417,312,36.77,372,1351,4294948413,1325,0.96,0,-0.27,1.79,43.92,-5.98,-0.41,-72.64,-4.69,-27.96,-12.13,-4.52,-29.74,Forward Fall while Standing
23:32.2,394,487,730.5,752,436,1.35,742.76,2.13,20723.77,417,403,36.77,372,1351,12454,1728,0.98,0.07,-0.29,-0.4,71.93,3.9,3.56,-71.51,-4.67,-19.14,-11.54,-4.34,-21.24,Forward Fall while Standing
23:32.3,507,487,730.5,752,438,1.34,748.72,2.14,20723.77,417,621,36.77,372,1351,4879,2349,0.96,-0.06,-0.05,-7.74,49.22,15.18,-3.94,-83.89,-5.57,-13.24,-9.55,-5.5,-16.07,Forward Fall while Standing
23:32.4,452,487,730.5,752,427,1.4,716.44,2.09,20723.77,417,823,36.77,372,1351,26848,3172,0.97,-0.09,0.07,-16.67,31.41,5.46,-5.86,-81.87,-7.58,-9.56,-8.76,-7.51,-12.46,Forward Fall while Standing
23:32.6,531,487,730.5,752,425,1.41,710.7,2.08,20723.77,417,306,36.77,372,1351,54948,3478,0.91,-0.01,0.04,-38.37,-10.94,-5.11,-1.3,-86.07,-12.31,-11.18,-9.3,-11.87,-14.18,Forward Fall while Standing
23:32.7,543,488,732,752,404,1.53,652.67,1.97,20723.77,417,303,36.77,372,1351,81221,3781,0.96,-0.04,0.17,-10.76,-2.37,-16.47,-3.17,-77.95,-13.59,-11.73,-11.28,-13.17,-14.38,Forward Fall while Standing
23:32.8,590,490,735,752,413,1.48,677.05,2.02,20724.01,421,347,83.99,412,7054,0,0,1.02,-0.04,0.03,-25.97,-13.61,20.38,-2.82,-85.64,-16.77,-13.68,-8.63,-16.21,-16.56,Forward Fall while Standing
23:32.9,627,492,738,752,415,1.47,682.57,2.03,20724.01,421,379,83.99,412,7054,12569,379,1.05,-0.13,0.04,-7.73,-4.41,8.76,-7.4,-81.23,-17.67,-14.49,-7.43,-17.26,-17.16,Forward Fall while Standing
23:33.1,553,492,738,752,416,1.46,685.34,2.03,20724.01,421,401,83.99,412,7054,42298,780,0.97,-0.14,-0.04,-2.8,4.67,-6.84,-8.93,-79.72,-17.95,-14.16,-8.19,-17.59,-16.78,Forward Fall while Standing
23:33.2,536,493,739.5,752,415,1.47,682.57,2.03,20724.01,421,421,83.99,412,7054,22931,1201,1.03,-0.12,0,-17.92,3.05,3.54,-7.3,-81.69,-20.12,-14.02,-7.65,-19.61,-16.73,Forward Fall while Standing
23:33.3,511,493,739.5,752,416,1.46,685.34,2.03,20724.01,421,411,83.99,412,7054,4294962540,1612,0.96,-0.13,0.03,-7.41,1.72,1.95,-8.22,-80.64,-20.99,-14.06,-7.3,-20.48,-16.72,Forward Fall while Standing
23:33.4,525,494,741,752,416,1.46,685.34,2.03,20724.01,421,399,83.99,412,7054,23373,2011,0.99,-0.13,0.03,-4.98,12.3,8.25,-7.94,-80.8,-21.55,-12.77,-6.17,-21,-15.49,Forward Fall while Standing
23:33.6,477,493,739.5,752,416,1.46,685.34,2.03,20724.01,421,424,83.99,412,7054,6541,2435,1,-0.16,0.06,0.65,21.99,1.95,-9.77,-78.69,-21.4,-10.27,-5.83,-20.93,-13.01,Forward Fall while Standing
23:33.7,422,493,739.5,752,416,1.46,685.34,2.03,20724.01,421,731,83.99,412,7054,16614,3166,1.02,-0.18,0.06,-7.69,-4.06,-2.33,-10.44,-77.93,-22.29,-11.03,-6.02,-21.81,-13.71,Forward Fall while Standing
23:33.8,472,492,738,752,416,1.46,685.34,2.03,20724.01,421,442,83.99,412,7054,15370,3608,1.03,-0.19,0.08,-14.02,-15.38,9.41,-10.81,-77.37,-23.98,-13.22,-4.74,-23.46,-15.79,Forward Fall while Standing
23:33.9,619,494,741,752,416,1.46,685.34,2.03,20724.01,421,329,83.99,412,7054,4294959835,3937,1.02,-0.21,0.06,-3.51,-6.62,1.14,-12.16,-76.38,-24.36,-14.32,-4.49,-23.87,-16.8,Forward Fall while Standing
23:34.1,480,494,741,752,416,1.46,685.34,2.03,20723.73,415,397,43.67,433,1906,0,0,0.92,-0.18,0.07,1,2.15,-1.63,-11.72,-76.55,-24.16,-14.3,-4.6,-23.67,-16.79,Forward Fall while Standing
23:34.2,486,494,741,752,415,1.47,682.57,2.03,20723.73,415,468,43.67,433,1906,22416,468,1,-0.2,0,-0.94,-1.81,-0.06,-11.71,-77.29,-24.21,-14.77,-4.5,-23.71,-17.28,Forward Fall while Standing
23:34.3,541,494,741,752,416,1.46,685.34,2.03,20723.73,415,469,43.67,433,1906,45769,937,0.97,-0.2,0.03,-4.45,5.22,0,-12.44,-76.45,-24.7,-14.37,-4.4,-24.21,-16.85,Forward Fall while Standing
23:34.4,650,496,744,752,416,1.46,685.34,2.03,20723.73,415,472,43.67,433,1906,71945,1409,0.98,-0.21,-0.01,-3.37,2.95,-0.41,-12.85,-76.14,-25.06,-14.25,-4.36,-24.57,-16.72,Forward Fall while Standing
23:38.5,548,548,822,548,415,1.47,682.57,2.03,0,0,483,0,0,0,4294913261,1033,0.99,-0.11,0.12,2.9,11.01,-14.47,-6.82,-79.32,0.97,1.97,-4.17,0.66,-1.28,Sitting
23:38.6,482,515,772.5,548,414,1.47,679.8,2.02,0,0,721,0,0,0,4294908814,1754,1.01,-0.1,0.13,3.29,-7.29,-5.84,-6.33,-79.05,1.45,0.82,-4.8,1.14,-2.37,Sitting
23:38.7,502,510,765,548,414,1.47,679.8,2.02,0,0,767,0,0,0,4294907279,2521,0.95,-0.05,0.08,2.34,-4.47,-6.63,-3.66,-82.94,1.8,0.03,-5.52,1.59,-3.29,Sitting
23:38.8,416,487,730.5,548,415,1.47,682.57,2.03,0,0,732,0,0,0,4294918815,3253,0.99,-0.05,0.08,11.03,2.69,-9.24,-3.54,-83,3.23,0.11,-6.56,2.96,-3.21,Sitting
23:39.0,491,487,730.5,548,415,1.47,682.57,2.03,0,0,436,0,0,0,4294912303,3689,1.04,-0.04,0.08,4.23,18.37,-4.86,-3.04,-83.36,3.82,2.12,-7.06,3.54,-1.3,Sitting
23:39.1,390,471,706.5,548,416,1.46,685.34,2.03,0,0,286,0,0,0,4294928563,3975,1.1,-0.07,0.17,-15.72,2.11,-13.34,-4.06,-79.18,1.94,2.14,-8.61,1.7,-1.12,Sitting
23:39.2,392,460,690,548,420,1.44,696.52,2.05,0,0,285,0,0,0,4294944252,4260,0.95,0,0.14,-13.32,-8.93,-15.27,-0.84,-80.18,0.38,0.8,-10.38,0.33,-2.44,Sitting
23:39.3,492,464,696,548,418,1.45,690.91,2.04,0,0,288,0,0,0,4294961660,4548,0.9,0.04,0.15,-11.91,-8.55,8.85,1.88,-78.57,-1.03,-0.51,-9.19,-0.91,-3.63,Sitting
23:39.5,494,467,700.5,548,416,1.46,685.34,2.03,20723.73,415,296,40.55,484,1643,0,0,1,-0.04,0.16,-4.37,-1.56,7.72,-2.7,-79.09,-1.5,-0.95,-8.13,-1.55,-4.07,Sitting
23:39.6,566,477,715.5,566,416,1.46,685.34,2.03,20723.73,415,311,40.55,484,1643,31185,311,1.04,-0.04,0.05,-3.19,-0.6,-1.18,-2.96,-84.64,-1.82,-1.27,-8.18,-1.87,-4.6,Sitting
23:39.7,504,479,718.5,566,416,1.46,685.34,2.03,20723.73,415,391,40.55,484,1643,52994,702,1,-0.05,0.09,-10.88,-13.37,5.24,-3.41,-82.33,-3.11,-3.19,-7.42,-3.13,-6.36,Sitting
23:39.8,537,484,726,566,416,1.46,685.34,2.03,20723.73,415,370,40.55,484,1643,58822,1072,1.01,-0.07,0.1,-3.96,-5.95,0.6,-4.69,-81.5,-3.54,-4.18,-7.25,-3.59,-7.28,Sitting
23:40.0,502,485,727.5,566,416,1.46,685.34,2.03,20723.73,415,397,40.55,484,1643,85359,1469,1.01,-0.04,0.05,1.04,1.18,-2.66,-2.99,-84.87,-3.34,-4.29,-7.48,-3.33,-7.51,Sitting
23:40.1,448,483,724.5,566,415,1.47,682.57,2.03,20723.73,415,405,40.55,484,1643,52776,1874,1.03,-0.07,0.04,1.44,-0.64,0.61,-4.63,-83.89,-3.09,-4.62,-7.31,-3.15,-7.79,Sitting
23:40.2,536,486,729,566,415,1.47,682.57,2.03,20723.73,415,436,40.55,484,1643,46264,2310,1,-0.07,0.03,-1.27,6.86,-3.44,-4.81,-83.81,-3.18,-4.01,-7.64,-3.24,-7.2,Sitting
23:40.3,489,486,729,566,416,1.46,685.34,2.03,20723.73,415,397,40.55,484,1643,72801,2707,0.99,-0.05,0.04,-3.55,2.89,-0.08,-3.37,-84.68,-3.55,-3.9,-7.55,-3.54,-7.13,Sitting
23:40.5,511,488,732,566,416,1.46,685.34,2.03,20723.73,415,396,40.55,484,1643,98545,3103,1.03,-0.06,0.07,-3.23,1.97,4.97,-3.63,-83.66,-3.88,-3.9,-6.83,-3.87,-7.09,Sitting
23:40.6,473,487,730.5,566,415,1.47,682.57,2.03,20723.73,415,415,40.55,484,1643,74162,3518,1.03,-0.08,0.06,-0.17,-1.83,2.81,-4.85,-83.05,-3.83,-4.38,-6.38,-3.87,-7.53,Sitting
23:40.7,437,484,726,566,415,1.47,682.57,2.03,20723.73,415,414,69.96,393,4894,0,0,1.02,-0.07,0.06,-1.03,0.66,-2.83,-4.53,-83.34,-3.89,-4.55,-6.64,-3.92,-7.7,Sitting
23:40.8,522,486,729,566,416,1.46,685.34,2.03,20723.73,415,402,69.96,393,4894,30532,402,1.01,-0.08,0.04,-1.79,-0.79,1.72,-5.11,-83.45,-4.04,-4.89,-6.33,-4.09,-8.03,Sitting
23:41.0,481,486,729,566,416,1.46,685.34,2.03,20723.73,415,379,69.96,393,4894,43101,781,1.04,-0.1,0.03,-2.76,3.31,-4.02,-5.86,-82.92,-4.32,-4.73,-6.73,-4.38,-7.86,Sitting
23:41.1,507,487,730.5,566,416,1.46,685.34,2.03,20723.73,415,400,69.96,393,4894,72029,1181,1.01,-0.06,0.04,-4.4,5.78,-10.2,-4.24,-84.1,-4.8,-4.26,-7.91,-4.78,-7.45,Sitting
23:41.2,496,487,730.5,566,416,1.46,685.34,2.03,20723.73,415,385,69.96,393,4894,89182,1566,1.02,-0.04,0.05,-8.19,-4.69,-2.95,-3.06,-84.62,-5.75,-5.09,-8.18,-5.64,-8.27,Sitting
23:41.3,326,480,720,566,415,1.47,682.57,2.03,20723.73,415,388,69.96,393,4894,108654,1954,1,-0.05,0.08,-0.64,-5.97,-2.79,-3.57,-83.12,-5.76,-6.09,-8.43,-5.67,-9.17,Sitting
23:41.5,496,481,721.5,566,416,1.46,685.34,2.03,20723.73,415,429,69.96,393,4894,96087,2383,1.01,-0.05,0.04,-1.19,-2.06,3.12,-3.66,-84.63,-5.84,-6.6,-7.94,-5.75,-9.72,Sitting
23:41.6,526,483,724.5,566,416,1.46,685.34,2.03,20723.73,415,412,69.96,393,4894,69223,2795,1.02,-0.08,0.02,-0.98,2.85,3.34,-4.98,-83.86,-5.89,-6.49,-7.42,-5.86,-9.59,Sitting
23:41.7,524,484,726,566,416,1.46,685.34,2.03,20723.73,415,400,69.96,393,4894,98151,3195,1.02,-0.08,0.03,-2.18,3.77,-1.37,-4.96,-83.8,-6.1,-6.27,-7.5,-6.05,-9.37,Sitting
23:41.8,464,484,726,566,416,1.46,685.34,2.03,20723.73,415,404,69.96,393,4894,130295,3599,1.01,-0.07,0.04,-4.72,4.21,-2.03,-4.7,-83.78,-6.62,-5.99,-7.65,-6.54,-9.1,Sitting
23:42.0,433,482,723,566,416,1.46,685.34,2.03,20723.73,415,408,100.07,400,10014,0,0,1.01,-0.07,0.07,-3.6,-1.97,1.3,-4.36,-83.02,-6.99,-6.48,-7.39,-6.89,-9.55,Sitting
23:42.1,454,481,721.5,566,416,1.46,685.34,2.03,20723.73,415,382,100.07,400,10014,14852,382,1.01,-0.07,0.05,2.1,4.27,-1.63,-4.45,-83.62,-6.66,-6.2,-7.5,-6.57,-9.3,Sitting
23:42.2,590,484,726,590,417,1.45,688.12,2.04,20723.73,415,394,100.07,400,10014,39016,776,1.01,-0.08,0.04,-1.27,-2.37,2.12,-4.94,-83.52,-6.75,-6.75,-7.13,-6.68,-9.82,Sitting
23:42.3,474,484,726,590,416,1.46,685.34,2.03,20723.73,415,404,100.07,400,10014,71160,1180,1.02,-0.08,0.05,1.96,6.05,-3.19,-5.24,-83.12,-6.43,-6.24,-7.43,-6.39,-9.32,Sitting
23:42.5,447,483,724.5,590,416,1.46,685.34,2.03,20723.73,415,409,100.07,400,10014,41833,1589,1.01,-0.08,0.03,-4.21,-2,1.32,-5.33,-83.4,-6.89,-6.74,-7.17,-6.82,-9.8,Sitting
23:42.6,497,483,724.5,590,416,1.46,685.34,2.03,20723.73,415,422,100.07,400,10014,23309,2011,1.01,-0.08,0.03,-5.1,0.16,-1.34,-4.84,-83.9,-7.45,-6.97,-7.24,-7.35,-10.04,Sitting
23:42.7,991,498,747,991,417,1.45,688.12,2.04,20723.73,415,342,100.07,400,10014,9201,2353,1.02,-0.08,0.05,-2.46,1.24,-0.85,-4.82,-83.42,-7.69,-7.06,-7.25,-7.58,-10.12,Sitting
23:42.8,534,499,748.5,991,416,1.46,685.34,2.03,20723.73,415,395,100.07,400,10014,34154,2748,0.99,-0.08,0.04,-4.44,-1.34,1.44,-5.11,-83.32,-8.18,-7.48,-6.97,-8.06,-10.52,Sitting
23:43.0,502,499,748.5,991,416,1.46,685.34,2.03,20723.73,415,412,100.07,400,10014,7290,3160,1.01,-0.1,0.04,0.1,-0.97,1.47,-6.18,-82.37,-8.1,-7.85,-6.68,-8.02,-10.83,Sitting
23:43.1,452,498,747,991,416,1.46,685.34,2.03,20723.73,415,400,100.07,400,10014,36218,3560,1,-0.1,0.02,-2.32,-4.08,0.84,-6.05,-82.82,-8.32,-8.61,-6.48,-8.23,-11.58,Sitting
23:43.2,491,497,745.5,991,417,1.45,688.12,2.04,20723.74,416,408,24.64,396,606,0,0,1.04,-0.1,0.01,0.36,1.27,5.88,-5.81,-83.18,-8.2,-8.7,-5.65,-8.11,-11.68,Sitting
23:43.3,549,499,748.5,991,416,1.46,685.34,2.03,20723.74,416,425,24.64,396,606,4294951313,425,1.02,-0.12,0.01,1.21,2.82,-4.07,-7.48,-81.5,-7.98,-8.6,-6.06,-7.96,-11.52,Sitting
23:43.5,479,498,747,991,416,1.46,685.34,2.03,20723.74,416,398,24.64,396,606,11349,823,1.01,-0.11,0.03,-5.56,-0.79,-2.7,-6.87,-81.92,-8.6,-8.95,-6.3,-8.53,-11.87,Sitting
23:43.6,481,498,747,991,416,1.46,685.34,2.03,20723.74,416,449,24.64,396,606,16342,1272,1.01,-0.09,0.03,-1.58,3.36,-1.26,-5.91,-82.86,-8.73,-8.78,-6.36,-8.62,-11.74,Sitting
23:43.7,450,497,745.5,991,416,1.46,685.34,2.03,20723.74,416,379,24.64,396,606,28911,1651,1.02,-0.1,0.04,-2.98,-4.16,-0.16,-6.4,-82.24,-9.03,-9.54,-6.28,-8.93,-12.45,Sitting
23:43.8,527,497,745.5,991,417,1.45,688.12,2.04,20723.74,416,433,24.64,396,606,19792,2084,0.99,-0.1,0.01,-3.94,-8.97,1.98,-6.48,-82.51,-9.45,-10.91,-5.93,-9.33,-13.78,Sitting
23:44.0,521,498,747,991,416,1.46,685.34,2.03,20723.74,416,418,24.64,396,606,4294965204,2502,1.03,-0.12,0,-1.17,-2.14,4.44,-7.49,-81.51,-9.53,-11.43,-5.28,-9.45,-14.24,Sitting
23:44.1,453,497,745.5,991,416,1.46,685.34,2.03,20723.74,416,455,24.64,396,606,8325,2957,1.02,-0.14,-0.02,0.08,1.46,0.13,-8.24,-80.68,-9.45,-11.5,-5.16,-9.4,-14.27,Sitting
23:44.2,431,495,742.5,991,416,1.46,685.34,2.03,20723.74,416,404,24.64,396,606,40469,3361,1.02,-0.14,-0.03,-0.41,5.94,-5.25,-8.15,-80.7,-9.43,-11.01,-5.71,-9.38,-13.8,Sitting
23:44.3,544,496,744,991,417,1.45,688.12,2.04,20723.74,416,461,24.64,396,606,56382,3822,1.01,-0.12,0.02,-3.4,3.5,-1.69,-7.6,-81.34,-9.79,-10.82,-5.83,-9.7,-13.65,Sitting
23:44.5,524,497,745.5,991,416,1.46,685.34,2.03,20723.74,416,394,89.74,421,8053,0,0,1.01,-0.12,0.02,-2.81,0.91,1.24,-7.18,-81.7,-10.07,-10.96,-5.57,-9.95,-13.79,Sitting
23:44.6,495,497,745.5,991,416,1.46,685.34,2.03,20723.74,416,401,89.74,421,8053,29729,401,1.01,-0.13,0.01,-0.95,1.49,0.89,-8.01,-80.97,-10.12,-11.02,-5.36,-10.03,-13.82,Sitting
23:44.7,438,496,744,991,416,1.46,685.34,2.03,20723.74,416,431,89.74,421,8053,18882,832,1.03,-0.12,0,-3.28,-4.42,-0.93,-7.46,-81.54,-10.46,-11.83,-5.38,-10.34,-14.62,Sitting
23:44.8,461,495,742.5,991,417,1.45,688.12,2.04,20723.74,416,474,89.74,421,8053,46950,1306,1,-0.12,-0.02,1.93,3.38,0.2,-7.5,-81.44,-10.15,-11.66,-5.26,-10.04,-14.45,Sitting
23:45.0,521,496,744,991,417,1.45,688.12,2.04,20723.74,416,389,89.74,421,8053,67199,1695,1.01,-0.14,-0.01,-1.07,0.4,2.7,-8.57,-80.42,-10.21,-11.86,-4.82,-10.15,-14.6,Sitting
23:45.1,560,497,745.5,991,416,1.46,685.34,2.03,20723.74,416,406,89.74,421,8053,35427,2101,1.02,-0.14,-0.01,-1.57,2.47,-2.7,-8.68,-80.3,-10.34,-11.8,-5.06,-10.27,-14.54,Sitting
23:45.2,429,496,744,991,416,1.46,685.34,2.03,20723.74,416,404,89.74,421,8053,67571,2505,0.99,-0.14,0.01,-5.28,2.14,-1.37,-8.53,-80.45,-10.93,-11.79,-5.13,-10.84,-14.53,Sitting
23:45.3,466,495,742.5,991,416,1.46,685.34,2.03,20723.74,416,392,89.74,421,8053,90163,2897,1.02,-0.13,0.02,-2.77,3.96,-0.35,-8.07,-80.83,-11.21,-11.54,-5.08,-11.08,-14.31,Sitting
23:45.5,531,496,744,991,417,1.45,688.12,2.04,20723.74,416,388,89.74,421,8053,109635,3285,1.01,-0.15,0.02,-3.59,0.56,-1.65,-8.86,-80.07,-11.59,-11.72,-5.18,-11.48,-14.46,Sitting
23:45.6,486,495,742.5,991,416,1.46,685.34,2.03,20723.74,416,411,89.74,421,8053,81948,3696,1.01,-0.14,0.01,-3.52,-2.6,-1.44,-8.66,-80.31,-11.96,-12.3,-5.26,-11.83,-15.02,Sitting
23:45.7,427,494,741,991,416,1.46,685.34,2.03,20723.74,416,437,87.35,413,7629,0,0,1.01,-0.14,0.01,-1.06,1.82,0.22,-8.3,-80.69,-12.03,-12.32,-5.14,-11.88,-15.06,Sitting
23:45.8,521,495,742.5,991,417,1.45,688.12,2.04,20723.74,416,438,87.35,413,7629,4294962532,438,1.01,-0.14,0.01,-3.55,0.32,-0.89,-8.48,-80.51,-12.4,-12.54,-5.15,-12.25,-15.25,Sitting
23:46.0,531,495,742.5,991,417,1.45,688.12,2.04,20723.74,416,380,87.35,413,7629,8564,818,1.01,-0.13,0.01,-2.27,0.85,-2.44,-8.08,-80.9,-12.62,-12.68,-5.36,-12.43,-15.41,Sitting
23:46.1,491,495,742.5,991,416,1.46,685.34,2.03,20723.74,416,415,87.35,413,7629,4294951477,1233,1.01,-0.13,0.01,-0.81,0.73,0.08,-7.78,-81.21,-12.65,-12.84,-5.25,-12.45,-15.58,Sitting
23:46.2,454,495,742.5,991,416,1.46,685.34,2.03,20723.74,416,413,87.35,413,7629,4294925438,1646,0.99,-0.15,-0.01,-1.82,-3.27,1.63,-8.93,-80.07,-12.8,-13.5,-4.95,-12.65,-16.16,Sitting
23:46.3,422,493,739.5,991,417,1.45,688.12,2.04,20723.74,416,476,87.35,413,7629,4294955406,2122,1,-0.15,0,-2.71,-2.1,0.12,-9.11,-79.89,-13.08,-14.02,-4.83,-12.92,-16.65,Sitting
23:46.5,530,494,741,991,416,1.46,685.34,2.03,20723.74,416,489,87.35,413,7629,4294932383,2611,1,-0.15,-0.03,-1.82,0.12,-0.08,-9.13,-79.69,-13.23,-14.25,-4.74,-13.07,-16.87,Sitting
23:46.6,525,494,741,991,416,1.46,685.34,2.03,20723.74,416,429,87.35,413,7629,4294919816,3040,1.02,-0.16,-0.02,-3.4,1.06,-1.37,-9.38,-79.56,-13.59,-14.37,-4.81,-13.42,-16.98,Sitting
23:46.7,463,494,741,991,416,1.46,685.34,2.03,20723.74,416,400,87.35,413,7629,4294948744,3440,1,-0.14,-0.01,-1.68,3.77,-1.65,-8.78,-80.2,-13.74,-14.15,-4.92,-13.54,-16.79,Sitting
23:46.8,547,495,742.5,991,417,1.45,688.12,2.04,20723.74,416,410,87.35,413,7629,4294920236,3850,1.01,-0.15,0,-2.31,0.79,-0.93,-8.9,-80.1,-13.96,-14.3,-4.94,-13.75,-16.93,Sitting
23:47.0,503,495,742.5,991,416,1.46,685.34,2.03,20723.74,416,423,20724.15,427,429490240,0,0,1.01,-0.15,-0.02,-1.11,0.74,-0.89,-8.78,-80.16,-14.02,-14.46,-4.95,-13.81,-17.09,Sitting
23:47.1,976,502,753,991,417,1.45,688.12,2.04,20723.74,416,414,20724.15,427,429490240,4294942084,414,1.02,-0.16,-0.01,-2.63,0.34,-1.08,-9.27,-79.73,-14.29,-14.67,-4.99,-14.09,-17.27,Sitting
23:47.2,554,502,753,991,417,1.45,688.12,2.04,20723.74,416,399,20724.15,427,429490240,2917,813,1.01,-0.15,-0.02,-2.3,1.32,-1.69,-9.06,-79.9,-14.51,-14.76,-5.1,-14.29,-17.36,Sitting
23:47.4,542,503,754.5,991,416,1.46,685.34,2.03,20723.74,416,417,20724.15,427,429490240,4294947494,1230,1,-0.15,0,-1.45,0.7,-0.91,-9.12,-79.88,-14.62,-14.92,-5.12,-14.4,-17.52,Sitting
23:47.5,436,502,753,991,416,1.46,685.34,2.03,20723.74,416,408,20724.15,427,429490240,4294917350,1638,1,-0.16,-0.01,-1.34,0.82,1,-9.54,-79.43,-14.72,-15.07,-4.89,-14.52,-17.65,Sitting
23:47.6,558,503,754.5,991,417,1.45,688.12,2.04,20723.74,416,400,20724.15,427,429490240,4294946278,2038,1.01,-0.16,-0.01,-2.71,-1.22,0.15,-9.7,-79.28,-15,-15.49,-4.77,-14.79,-18.04,Sitting
23:47.7,460,502,753,991,416,1.46,685.34,2.03,20723.74,416,429,20724.15,427,429490240,4294933711,2467,1.01,-0.15,-0.01,0.69,0.06,-0.86,-9.16,-79.81,-14.84,-15.73,-4.78,-14.61,-18.3,Sitting
23:47.9,424,501,751.5,991,417,1.45,688.12,2.04,20723.74,416,436,20724.15,427,429490240,4294927199,2903,1,-0.18,-0.03,-2.09,-2.31,1.99,-10.59,-78.27,-15.03,-16.28,-4.43,-14.86,-18.76,Sitting
23:48.0,594,502,753,991,417,1.45,688.12,2.04,20723.74,416,424,20724.15,427,429490240,4294910367,3327,1.02,-0.17,-0.02,-1.12,4.92,-3.58,-9.88,-79.03,-15.1,-15.91,-4.78,-14.9,-18.43,Sitting
23:48.1,424,501,751.5,991,416,1.46,685.34,2.03,20723.74,416,412,20724.15,427,429490240,4294883503,3739,1.01,-0.15,-0.01,-3.88,-0.22,-1.91,-9.07,-79.92,-15.53,-16.19,-4.93,-15.27,-18.74,Sitting
23:51.7,568,568,852,568,414,1.47,679.8,2.02,0,0,770,0,0,0,4294955012,1570,1.03,0.03,0.15,16.6,21.63,-20.56,1.09,-80.14,3.68,4.18,-4.46,3.57,0.8,Left Fall while Sitting
23:51.8,615,591,886.5,615,415,1.47,682.57,2.03,0,0,316,0,0,0,4294923796,1886,0.95,0.07,0.14,2.91,6.56,-20.78,3.62,-78.98,4.1,4.74,-6.92,4.08,1.39,Left Fall while Sitting
23:52.0,576,586,879,615,416,1.46,685.34,2.03,0,0,463,0,0,0,4294941557,2349,0.96,0.14,0.19,-0.15,12.04,-13.13,7.54,-74.77,4.15,5.96,-8.42,4.29,2.73,Left Fall while Sitting
23:52.1,509,567,850.5,615,416,1.46,685.34,2.03,0,0,745,0,0,0,4998,3094,0.95,0.15,0.21,8.91,15.69,-17.44,8.2,-73.42,5.32,7.65,-10.47,5.43,4.4,Left Fall while Sitting
23:52.2,432,540,810,615,416,1.46,685.34,2.03,0,0,724,0,0,0,4886,3818,0.92,0.19,0.18,2.38,16.02,-16.09,10.76,-72.53,5.68,9.36,-12.34,5.88,6.08,Left Fall while Sitting
23:52.3,485,530,795,615,416,1.46,685.34,2.03,0,0,739,0,0,0,26719,4557,0.92,0.23,0.24,-2.19,9.6,-6.66,12.84,-68.88,5.48,10.28,-13.05,5.77,7.12,Left Fall while Sitting
23:52.5,155,477,715.5,615,419,1.44,693.71,2.05,0,0,286,0,0,0,42979,4843,0.97,0.25,0.27,1.99,16.85,-11.92,13.57,-67.66,5.79,12.08,-14.4,6.1,8.89,Left Fall while Sitting
23:52.6,330,458,687,615,420,1.44,696.52,2.05,0,0,286,0,0,0,59239,5129,0.89,0.27,0.29,8.44,10.56,-14.61,15.53,-64.32,6.89,13.13,-16.1,7.24,10.04,Left Fall while Sitting
23:52.7,447,457,685.5,615,419,1.44,693.71,2.05,20723.75,416,290,88.2,541,7779,0,0,0.89,0.27,0.31,6.11,5.2,-10.11,15.64,-63.72,7.71,13.53,-17.25,8.03,10.44,Left Fall while Sitting
23:52.8,525,464,696,615,417,1.45,688.12,2.04,20723.75,416,297,88.2,541,7779,22673,297,0.88,0.31,0.3,17.2,-0.02,-6.15,17.87,-62.34,9.93,13.28,-17.91,10.25,10.25,Left Fall while Sitting
23:52.9,632,479,718.5,632,417,1.45,688.12,2.04,20723.75,416,345,88.2,541,7779,10626,642,0.89,0.34,0.26,7.18,11.11,-12.13,19.64,-62.68,10.89,14.4,-19.32,11.24,11.32,Left Fall while Sitting
23:53.1,620,491,736.5,632,416,1.46,685.34,2.03,20723.75,416,402,88.2,541,7779,41158,1044,0.85,0.38,0.32,7.09,11.36,-16.05,22.23,-57.91,11.85,15.57,-21.23,12.27,12.63,Left Fall while Sitting
23:53.2,417,485,727.5,632,416,1.46,685.34,2.03,20723.75,416,444,88.2,541,7779,41686,1488,0.84,0.41,0.27,5.78,5.4,-10.84,24.14,-58.35,12.64,16,-22.48,13.1,13.03,Left Fall while Sitting
23:53.3,442,482,723,632,417,1.45,688.12,2.04,20723.75,416,396,88.2,541,7779,67430,1884,0.84,0.43,0.27,4.04,2.83,-6.82,25.31,-57.25,13.22,16.1,-23.24,13.7,13.17,Left Fall while Sitting
23:53.4,579,488,732,632,416,1.46,685.34,2.03,20723.75,416,399,88.2,541,7779,95559,2283,0.84,0.43,0.32,7.58,-2.38,-6.72,25.18,-55.61,14.24,15.56,-23.98,14.67,12.71,Left Fall while Sitting
23:53.6,768,506,759,768,417,1.45,688.12,2.04,20723.75,416,484,88.2,541,7779,67671,2767,0.83,0.47,0.3,2.4,6.37,-10.27,27.46,-54.35,14.61,16.1,-25.16,15.12,13.28,Left Fall while Sitting
23:53.7,459,503,754.5,768,416,1.46,685.34,2.03,20723.75,416,417,88.2,541,7779,44952,3184,0.79,0.48,0.29,1.61,6.02,-12.85,29.06,-53.29,14.88,16.6,-26.67,15.44,13.81,Left Fall while Sitting
23:53.8,517,504,756,768,416,1.46,685.34,2.03,20723.75,416,430,88.2,541,7779,33244,3614,0.77,0.5,0.3,3.44,4.6,-12.72,30.46,-51.48,15.37,16.93,-28.15,15.98,14.19,Left Fall while Sitting
23:53.9,477,502,753,768,416,1.46,685.34,2.03,20723.74,416,413,26.83,402,719,0,0,0.75,0.52,0.29,-0.34,0.78,-4.61,32.12,-50.28,15.4,16.78,-28.62,16.07,14.09,Left Fall while Sitting
23:54.1,539,504,756,768,416,1.46,685.34,2.03,20723.74,416,492,26.83,402,719,4294947216,492,0.76,0.54,0.29,-0.87,3.5,-5.8,32.81,-49.7,15.36,16.96,-29.25,16.06,14.3,Left Fall while Sitting
23:54.2,520,505,757.5,768,415,1.47,682.57,2.03,20723.74,416,715,26.83,402,719,4294934153,1207,0.76,0.54,0.32,-0.55,7.54,-10.18,32.82,-48.82,15.36,17.66,-30.42,16.06,15,Left Fall while Sitting
23:54.3,821,519,778.5,821,415,1.47,682.57,2.03,20723.74,416,811,26.83,402,719,4294936514,2018,0.74,0.55,0.33,6.83,1.86,-10.07,33.83,-47.22,16.29,17.64,-31.59,16.99,15.04,Left Fall while Sitting
23:54.4,471,517,775.5,821,416,1.46,685.34,2.03,20723.74,416,561,26.83,402,719,4294923555,2579,0.89,0.58,0.25,6.16,-1.82,-6.18,31.58,-52.99,17.13,17.16,-32.27,17.71,14.36,Left Fall while Sitting
23:54.6,692,524,786,821,412,1.48,674.3,2.01,20723.74,416,795,26.83,402,719,4294900220,3374,0.7,0.61,0.3,6.6,-3.18,-7.66,38.12,-44.28,18.04,16.51,-33.13,18.84,14.08,Left Fall while Sitting
23:54.7,555,526,789,821,413,1.48,677.05,2.02,20723.74,416,679,26.83,402,719,4294902509,4053,0.72,0.62,0.2,8.82,-8.11,-2.97,38.91,-46.43,19.21,15.25,-33.41,20,12.78,Left Fall while Sitting
23:54.8,451,523,784.5,821,414,1.47,679.8,2.02,20723.74,416,739,26.83,402,719,4294924342,4792,0.73,0.62,0.22,1.28,0.4,-3.02,38.36,-46.49,19.44,15.04,-33.69,20.2,12.58,Left Fall while Sitting
23:54.9,418,519,778.5,821,415,1.47,682.57,2.03,20723.74,416,290,26.83,402,719,4294942906,5082,0.72,0.62,0.22,1.7,1.43,-8.25,38.86,-46.02,19.72,14.97,-34.62,20.49,12.53,Left Fall while Sitting
23:55.1,482,517,775.5,821,416,1.46,685.34,2.03,20723.74,416,293,26.83,402,719,4294963219,5375,0.7,0.64,0.22,-1.58,5.14,-12.08,40.55,-44.49,19.59,15.37,-36.04,20.43,12.97,Left Fall while Sitting
23:55.2,565,519,778.5,821,416,1.46,685.34,2.03,20723.71,414,590,40.42,596,1633,0,0,0.67,0.67,0.25,-1.16,1.1,-8.62,42.5,-41.69,19.52,15.26,-37.01,20.44,12.98,Left Fall while Sitting
23:55.3,452,517,775.5,821,415,1.47,682.57,2.03,20723.71,414,716,40.42,596,1633,4294955664,716,0.66,0.66,0.22,1.44,-1.44,-5.27,42.87,-41.91,19.77,14.82,-37.57,20.7,12.55,Left Fall while Sitting
23:55.5,430,514,771,821,416,1.46,685.34,2.03,20723.71,414,737,40.42,596,1633,7249,1453,0.67,0.68,0.22,-0.85,2.41,-8.93,43.35,-41.58,19.74,14.88,-38.59,20.68,12.62,Left Fall while Sitting
23:55.6,530,514,771,821,416,1.46,685.34,2.03,20723.71,414,741,40.42,596,1633,32042,2194,0.64,0.7,0.23,-0.89,0.73,-7.6,45.31,-39.19,19.7,14.72,-39.44,20.72,12.56,Left Fall while Sitting
23:55.7,623,518,777,821,416,1.46,685.34,2.03,20723.71,414,742,40.42,596,1633,58318,2936,0.64,0.69,0.24,-3.18,0.65,0.66,44.66,-39.76,19.37,14.55,-39.26,20.38,12.38,Left Fall while Sitting
23:55.8,487,517,775.5,821,415,1.47,682.57,2.03,20723.71,414,742,40.42,596,1633,84594,3678,0.66,0.69,0.22,-1.97,0.43,1.69,44.27,-40.64,19.2,14.35,-38.95,20.2,12.15,Left Fall while Sitting
23:55.9,416,514,771,821,415,1.47,682.57,2.03,20723.71,414,732,40.42,596,1633,96130,4410,0.67,0.68,0.23,-1.24,0.15,1.21,43.08,-41.54,19.11,14.12,-38.7,20.07,11.9,Left Fall while Sitting
23:56.1,413,511,766.5,821,415,1.47,682.57,2.03,20723.71,414,716,40.42,596,1633,84498,5126,0.67,0.69,0.23,-2.7,0.6,0.53,43.71,-40.93,18.85,13.95,-38.54,19.84,11.75,Left Fall while Sitting
23:56.2,508,511,766.5,821,417,1.45,688.12,2.04,20723.71,414,287,40.42,596,1633,101331,5413,0.67,0.68,0.22,-0.73,-0.5,-1.15,43.53,-41.5,18.82,13.64,-38.58,19.81,11.43,Left Fall while Sitting
23:56.3,648,515,772.5,821,417,1.45,688.12,2.04,20723.71,414,312,40.42,596,1633,133139,5725,0.66,0.68,0.2,-2.01,0.64,0.08,43.95,-41.5,18.64,13.47,-38.47,19.65,11.27,Left Fall while Sitting
23:56.4,391,511,766.5,821,416,1.46,685.34,2.03,20723.73,415,727,117.21,645,13737,0,0,0.67,0.68,0.23,-4.47,3.45,0.11,43.26,-41.44,18.16,13.64,-38.36,19.17,11.44,Left Fall while Sitting
23:56.6,345,507,760.5,821,416,1.46,685.34,2.03,20723.73,415,550,117.21,645,13737,4294942116,550,0.67,0.68,0.22,0.27,-0.05,-2.53,43.4,-41.44,18.27,13.39,-38.58,19.27,11.19,Left Fall while Sitting
23:56.7,573,509,763.5,821,416,1.46,685.34,2.03,20723.73,415,642,117.21,645,13737,4294961064,1192,0.66,0.68,0.22,-1.7,0.69,-3.89,43.84,-41.13,18.12,13.22,-38.97,19.15,11.05,Left Fall while Sitting
23:56.8,654,512,768,821,415,1.47,682.57,2.03,20723.73,415,714,117.21,645,13737,4294946572,1906,0.65,0.69,0.23,-2.68,2.69,-1.69,44.42,-40.14,17.86,13.31,-39.09,18.92,11.17,Left Fall while Sitting
23:56.9,432,510,765,821,415,1.47,682.57,2.03,20723.73,415,736,117.21,645,13737,4294963980,2642,0.66,0.68,0.22,-1.78,0.73,-0.2,44.02,-40.82,17.7,13.15,-39.01,18.76,10.99,Left Fall while Sitting
23:57.1,328,506,759,821,415,1.47,682.57,2.03,20723.73,415,726,117.21,645,13737,4294966768,3368,0.66,0.68,0.23,-2.78,3.74,-4.57,43.66,-41.03,17.42,13.37,-39.49,18.47,11.19,Left Fall while Sitting
23:57.2,502,506,759,821,415,1.47,682.57,2.03,20723.73,415,737,117.21,645,13737,18353,4105,0.64,0.69,0.23,-1.71,2.07,-2.85,44.78,-39.82,17.28,13.38,-39.75,18.38,11.25,Left Fall while Sitting
23:57.3,602,508,762,821,415,1.47,682.57,2.03,20723.73,415,741,117.21,645,13737,43146,4846,0.66,0.69,0.23,-1.76,0.92,-1.81,43.92,-40.76,17.13,13.24,-39.87,18.2,11.08,Left Fall while Sitting
23:57.4,456,507,760.5,821,415,1.47,682.57,2.03,20723.73,415,741,117.21,645,13737,67939,5587,0.65,0.7,0.24,-2.42,2.02,-2.84,44.62,-39.86,16.9,13.24,-40.13,18.01,11.12,Left Fall while Sitting
23:57.6,285,502,753,821,415,1.47,682.57,2.03,20723.73,415,727,117.21,645,13737,72180,6314,0.64,0.69,0.24,-1.61,1.02,-1.82,44.76,-39.43,16.77,13.12,-40.26,17.89,11.02,Left Fall while Sitting
23:57.7,562,504,756,821,416,1.46,685.34,2.03,20723.72,415,725,85.74,703,7350,0,0,0.66,0.69,0.25,-3.82,1.67,-2.63,44.02,-40.12,16.36,13.08,-40.49,17.47,10.95,Left Fall while Sitting
23:57.8,730,508,762,821,415,1.47,682.57,2.03,20723.72,415,736,85.74,703,7350,17408,736,0.64,0.71,0.24,-1.34,0.52,-2.73,45.49,-38.94,16.26,12.9,-40.73,17.43,10.82,Left Fall while Sitting
23:58.0,542,509,763.5,821,415,1.47,682.57,2.03,20723.72,415,742,85.74,703,7350,43684,1478,0.62,0.7,0.24,-0.4,-0.35,-0.41,45.55,-38.64,16.28,12.6,-40.68,17.45,10.55,Left Fall while Sitting
23:58.1,278,504,756,821,415,1.47,682.57,2.03,20723.72,415,735,85.74,703,7350,59621,2213,0.65,0.69,0.23,-0.69,-0.01,-0.27,44.6,-40.01,16.27,12.35,-40.62,17.4,10.26,Left Fall while Sitting
23:58.2,573,506,759,821,415,1.47,682.57,2.03,20723.72,415,736,85.74,703,7350,77029,2949,0.64,0.71,0.23,-1.65,1.7,-2.92,45.67,-38.98,16.13,12.31,-40.88,17.31,10.26,Left Fall while Sitting
23:58.3,527,506,759,821,415,1.47,682.57,2.03,20723.72,415,740,85.74,703,7350,100341,3689,0.64,0.7,0.22,-1.69,0.17,-0.73,45.12,-39.67,15.99,12.08,-40.87,17.15,10.01,Left Fall while Sitting
23:58.4,590,508,762,821,415,1.47,682.57,2.03,20723.72,415,700,85.74,703,7350,131589,4389,0.64,0.7,0.24,-2.73,2.62,-1.9,45.16,-39.18,15.72,12.16,-41.01,16.9,10.11,Left Fall while Sitting
23:58.6,351,505,757.5,821,415,1.47,682.57,2.03,20723.72,415,727,85.74,703,7350,135830,5116,0.64,0.7,0.25,-1.38,-1.02,0.99,44.8,-39.33,15.62,11.78,-40.79,16.78,9.74,Left Fall while Sitting
23:58.7,305,501,751.5,821,415,1.47,682.57,2.03,20723.72,415,732,85.74,703,7350,147366,5848,0.65,0.69,0.23,-1.31,2.63,-1.9,44.61,-40.04,15.52,11.86,-40.93,16.68,9.79,Left Fall while Sitting
23:58.8,416,500,750,821,415,1.47,682.57,2.03,20723.72,415,728,85.74,703,7350,153062,6576,0.64,0.71,0.23,-2.67,1.69,-5.41,45.53,-39.13,15.26,11.82,-41.51,16.47,9.79,Left Fall while Sitting
23:58.9,828,505,757.5,828,415,1.47,682.57,2.03,20723.72,415,744,135.02,732,18230,0,0,0.63,0.7,0.23,-1.82,1.27,-2.23,45.59,-39,15.1,11.73,-41.69,16.32,9.7,Left Fall while Sitting
23:59.1,642,508,762,828,415,1.47,682.57,2.03,20723.72,415,743,135.02,732,18230,27761,743,0.62,0.69,0.25,-3.43,4.6,-2.13,45.53,-38.49,14.75,12.06,-41.85,15.98,10.03,Left Fall while Sitting
23:59.2,315,504,756,828,414,1.47,679.8,2.02,20723.72,415,745,135.02,732,18230,58498,1488,0.63,0.71,0.23,-2.31,-0.08,-2.05,46.02,-38.57,14.53,11.8,-42.01,15.79,9.78,Left Fall while Sitting
23:59.3,294,501,751.5,828,415,1.47,682.57,2.03,20723.72,415,743,135.02,732,18230,86259,2231,0.62,0.71,0.24,-2.6,1.08,-1.1,46.35,-38.12,14.27,11.68,-42.05,15.56,9.69,Left Fall while Sitting
23:59.4,583,502,753,828,414,1.47,679.8,2.02,20723.72,415,747,135.02,732,18230,54444,2978,0.62,0.72,0.24,-1.66,1.85,-1.74,46.38,-37.99,14.14,11.66,-42.17,15.43,9.68,Left Fall while Sitting
23:59.6,617,504,756,828,415,1.47,682.57,2.03,20723.72,415,305,135.02,732,18230,81933,3283,0.62,0.71,0.25,-2.37,0.82,-2.47,46.14,-37.77,13.91,11.52,-42.38,15.2,9.54,Left Fall while Sitting
23:59.7,470,504,756,828,415,1.47,682.57,2.03,20723.72,415,674,135.02,732,18230,77457,3957,0.62,0.71,0.26,-1.86,0.76,-1.58,46.07,-37.63,13.75,11.36,-42.48,15.04,9.4,Left Fall while Sitting
23:59.8,306,501,751.5,828,415,1.47,682.57,2.03,20723.72,415,730,135.02,732,18230,86069,4687,0.62,0.71,0.22,-1.11,0.64,-1.63,46.46,-38.39,13.68,11.19,-42.58,14.99,9.21,Left Fall while Sitting
23:59.9,474,500,750,828,415,1.47,682.57,2.03,20723.72,415,745,135.02,732,18230,116806,5432,0.62,0.71,0.25,-2.47,2.68,-3.92,46.2,-37.78,13.44,11.28,-42.98,14.75,9.31,Left Fall while Sitting
24:00.1,678,503,754.5,828,415,1.47,682.57,2.03,20723.72,415,746,135.02,732,18230,149034,6178,0.61,0.72,0.24,-2.48,0.16,-0.65,46.9,-37.3,13.2,11.05,-42.96,14.54,9.11,Left Fall while Sitting
24:00.2,559,504,756,828,414,1.47,679.8,2.02,20723.71,414,736,129.01,691,16643,0,0,0.64,0.72,0.24,-1.63,0.11,0.52,45.72,-38.68,13.06,10.81,-42.8,14.37,8.83,Left Fall while Sitting
24:00.3,366,502,753,828,414,1.47,679.8,2.02,20723.71,414,742,129.01,691,16643,26276,742,0.62,0.72,0.25,-1.89,0.5,-5.7,46.48,-37.6,12.9,10.63,-43.4,14.24,8.7,Left Fall while Sitting
24:00.4,273,498,747,828,414,1.47,679.8,2.02,20723.71,414,297,129.01,691,16643,48949,1039,0.58,0.71,0.24,-1.65,0.85,-4.63,47.83,-36.29,12.76,10.48,-43.88,14.17,8.61,Left Fall while Sitting
24:00.6,539,499,748.5,828,415,1.47,682.57,2.03,20723.71,414,740,129.01,691,16643,72261,1779,0.6,0.72,0.23,-1.82,1.86,0.01,47.71,-36.77,12.61,10.47,-43.78,14.01,8.58,Left Fall while Sitting
24:00.7,768,503,754.5,828,415,1.47,682.57,2.03,20723.71,414,740,129.01,691,16643,95573,2519,0.62,0.72,0.25,-2.68,1.65,0.07,46.88,-37.31,12.34,10.42,-43.68,13.72,8.51,Left Fall while Sitting
24:00.8,496,503,754.5,828,414,1.47,679.8,2.02,20723.71,414,735,129.01,691,16643,111510,3254,0.61,0.72,0.23,-1.73,1.63,-1.81,47.22,-37.28,12.2,10.38,-43.8,13.6,8.47,Left Fall while Sitting
24:00.9,304,500,750,828,415,1.47,682.57,2.03,20723.71,414,598,129.01,691,16643,141434,3852,0.6,0.73,0.23,-0.82,0.05,-2.02,47.69,-36.78,12.16,10.13,-43.96,13.58,8.25,Left Fall while Sitting
24:01.1,994,506,759,994,415,1.47,682.57,2.03,20723.71,414,726,129.01,691,16643,144222,4578,0.59,0.73,0.27,-6.28,-8.57,15.39,48.03,-35.35,11.45,8.81,-41.94,12.91,7.04,Left Fall while Sitting
24:01.2,696,509,763.5,994,414,1.47,679.8,2.02,20723.71,414,732,129.01,691,16643,155758,5310,0.67,0.69,0.19,0.27,-12.89,18.85,44.22,-41.56,11.55,6.95,-39.48,12.86,5.01,Left Fall while Sitting
24:01.3,659,511,766.5,994,414,1.47,679.8,2.02,20723.71,414,732,129.01,691,16643,167294,6042,0.69,0.65,0.21,-5.34,-7.6,15.66,41.78,-43.31,10.95,5.75,-37.42,12.19,3.78,Left Fall while Sitting
24:01.4,340,509,763.5,994,414,1.47,679.8,2.02,20723.7,414,287,135.69,632,18411,0,0,0.7,0.63,0.21,-2.71,-14.18,23.44,39.98,-45.16,10.69,3.74,-34.42,11.86,1.78,Left Fall while Sitting
24:01.6,304,506,759,994,416,1.46,685.34,2.03,20723.7,414,291,135.69,632,18411,19145,291,0.78,0.59,0.17,-6.34,-14.37,29.84,36.03,-50.13,9.97,1.69,-30.59,11.01,-0.38,Left Fall while Sitting
24:01.7,579,507,760.5,994,415,1.47,682.57,2.03,20723.7,414,338,135.69,632,18411,2317,629,0.82,0.51,0.13,-14.66,-10.24,34.67,31.09,-55.62,8.2,0.16,-26.16,9.12,-2.07,Left Fall while Sitting
24:01.8,996,513,769.5,996,415,1.47,682.57,2.03,20723.7,414,730,135.69,632,18411,10929,1359,0.82,0.46,0.16,-10.15,-4.83,31.62,28.36,-57.66,7,-0.69,-22.11,7.86,-2.97,Left Fall while Sitting
24:01.9,415,512,768,996,415,1.47,682.57,2.03,20723.7,414,300,135.69,632,18411,35393,1659,0.9,0.4,0.13,-13.99,-9.98,31.8,23.22,-63.4,5.33,-2.19,-18.03,6.04,-4.64,Left Fall while Sitting
24:02.1,352,510,765,996,415,1.47,682.57,2.03,20723.7,414,735,135.69,632,18411,51330,2394,0.9,0.31,0.15,-13.52,-0.6,27.18,18.19,-67.61,3.71,-2.51,-14.54,4.29,-5.12,Left Fall while Sitting
24:02.2,422,509,763.5,996,415,1.47,682.57,2.03,20723.7,414,733,135.69,632,18411,64331,3127,0.95,0.26,0.14,-10.73,-5.91,31.49,14.34,-71.27,2.43,-3.51,-10.47,2.9,-6.22,Left Fall while Sitting
24:02.3,596,510,765,996,415,1.47,682.57,2.03,20723.7,414,575,135.69,632,18411,67276,3702,1.01,0.17,0.17,-15.71,-15.02,32.22,8.83,-75.2,0.53,-5.64,-6.34,0.86,-8.42,Left Fall while Sitting
24:02.4,521,510,765,996,415,1.47,682.57,2.03,20723.7,414,681,135.69,632,18411,72285,4383,1.03,0.09,0.1,-7.26,-12.46,19.82,4.26,-81.15,-0.31,-7.44,-3.77,-0.12,-10.39,Left Fall while Sitting
24:02.6,261,507,760.5,996,414,1.47,679.8,2.02,20723.7,414,728,135.69,632,18411,77981,5111,1.02,0.07,0.05,-7.24,8.21,9.08,3.42,-83.42,-1.13,-6.67,-2.55,-0.95,-9.74,Left Fall while Sitting
24:02.7,345,505,757.5,996,415,1.47,682.57,2.03,20723.72,415,689,96.93,580,9394,0,0,1.01,0.05,0.1,-11.4,3.61,11.74,2.23,-81.92,-2.47,-6.48,-1,-2.28,-9.49,Left Fall while Sitting
24:02.8,449,505,757.5,996,415,1.47,682.57,2.03,20723.72,415,722,96.93,580,9394,4294964292,722,0.97,0.03,0.15,-8.9,6.81,6.35,0.92,-79.64,-3.52,-5.87,-0.1,-3.34,-8.82,Left Fall while Sitting
24:02.9,1001,510,765,1001,385,1.66,603.45,1.88,20723.72,415,0,96.93,580,9394,4294964292,722,1.02,0.02,0.13,-10.34,-15.06,3.44,0.33,-81.27,-4.74,-8,0.43,-4.54,-10.93,Left Fall while Sitting
24:03.1,1001,515,772.5,1001,351,1.91,522.32,1.72,20723.72,415,0,96.93,580,9394,4294964292,722,1.07,0.01,0.09,-2.49,-11.85,1.92,0.08,-83.43,-4.98,-9.73,0.76,-4.78,-12.68,Left Fall while Sitting
24:03.2,1000,521,781.5,1001,338,2.03,493.43,1.65,20723.72,415,0,96.93,580,9394,4294964292,722,0.94,-0.05,0.07,-2.14,-5.95,7.69,-3.71,-83.14,-5.18,-10.74,1.83,-5.12,-13.63,Left Fall while Sitting
24:03.3,782,523,784.5,1001,337,2.04,491.25,1.65,20723.72,415,9,96.93,580,9394,4294964373,731,1.09,-0.04,0,-8.11,-2.67,17.12,-2.84,-86.15,-6.12,-11.32,4.07,-5.99,-14.31,Left Fall while Sitting
24:03.4,763,526,789,1001,339,2.02,495.61,1.66,20723.72,415,41,96.93,580,9394,4294966054,772,1,-0.12,0.12,-0.83,3.84,-7.34,-7.66,-78.73,-6.16,-11.09,3.25,-6.22,-13.79,Left Fall while Sitting
24:03.6,309,524,786,1001,340,2.01,497.8,1.66,20723.72,415,76,96.93,580,9394,4534,848,1.02,-0.06,0.04,-13.7,-5.08,0.32,-4.15,-84.11,-7.8,-11.97,3.39,-7.66,-14.86,Left Fall while Sitting
24:03.7,102,519,778.5,1001,343,1.98,504.41,1.68,20723.72,415,95,96.93,580,9394,13559,943,1.03,-0.05,0.07,-4.89,-2.21,-0.8,-3.25,-83.75,-8.34,-12.5,3.38,-8.14,-15.35,Left Fall while Sitting
24:03.8,176,516,774,1001,345,1.97,508.85,1.69,20723.72,415,103,96.93,580,9394,24168,1046,1.02,-0.07,0.06,0.32,2.88,-2.42,-4.7,-82.93,-8.23,-12.39,3.18,-8.09,-15.21,Left Fall while Sitting
24:03.9,496,516,774,1001,347,1.95,513.31,1.7,20724.02,354,111,60.4,115,3647,0,0,1.01,-0.07,0.04,0.31,-3.82,2.19,-4.55,-83.8,-8.13,-13.11,3.55,-7.98,-15.94,Left Fall while Sitting
24:04.1,345,514,771,1001,350,1.92,520.06,1.71,20724.02,354,117,60.4,115,3647,13689,117,1.02,-0.08,0.05,-2.44,-12.68,4.14,-5.3,-82.96,-8.36,-14.95,4.17,-8.24,-17.67,Left Fall while Sitting
24:04.2,167,510,765,1001,352,1.91,524.59,1.72,20724.02,354,123,60.4,115,3647,28818,240,1,-0.08,0.02,3.37,0.61,-5.41,-5.23,-83.64,-7.87,-15.12,3.59,-7.76,-17.86,Left Fall while Sitting
24:04.3,111,505,757.5,1001,354,1.89,529.15,1.73,20724.02,354,131,60.4,115,3647,45979,371,1.01,-0.09,-0.01,-1.62,1.92,1.61,-5.6,-83.39,-8,-15.13,3.89,-7.9,-17.86,Left Fall while Sitting
24:11.3,363,363,544.5,363,419,1.44,693.71,2.05,0,0,217,0,0,0,4294930402,434,0.99,-0.15,-0.04,-6.7,5.61,-6.37,-9.08,-79.6,0.01,1.15,-1.89,-0.35,-2.08,Right Fall while Sitting
24:11.4,305,334,501,363,419,1.44,693.71,2.05,0,0,217,0,0,0,4294911955,651,1.06,-0.13,-0.03,-5.56,-1,-2.98,-7.46,-81.32,-0.61,0.78,-2.16,-0.88,-2.5,Right Fall while Sitting
24:11.5,503,390,585,503,420,1.44,696.52,2.05,0,0,216,0,0,0,4294893075,867,0.99,-0.12,-0.05,-3.14,10.13,-9.88,-7.37,-81.1,-0.93,1.78,-3.28,-1.19,-1.53,Right Fall while Sitting
24:11.6,720,472,708,720,420,1.44,696.52,2.05,0,0,214,0,0,0,4294873335,1081,1,-0.07,-0.03,-8.08,14.59,-13.37,-4.49,-84.11,-1.86,3.34,-4.84,-1.97,-0.15,Right Fall while Sitting
24:11.8,996,577,865.5,996,419,1.44,693.71,2.05,0,0,208,0,0,0,4294851063,1289,1.2,-0.06,-0.17,5.37,-18.88,1.49,-3.55,-79.86,-1.12,0.75,-4.56,-1.22,-2.47,Right Fall while Sitting
24:11.9,509,566,849,996,417,1.45,688.12,2.04,0,0,210,0,0,0,4294829627,1499,0.98,-0.09,0.01,-6.71,3.15,0.37,-5.57,-83.41,-1.89,0.9,-4.41,-2.03,-2.48,Right Fall while Sitting
24:12.0,432,546,819,996,418,1.45,690.91,2.04,0,0,208,0,0,0,4294807355,1707,0.98,-0.08,-0.06,-0.07,11.67,7.11,-5.06,-82.78,-1.83,2.09,-3.44,-1.96,-1.31,Right Fall while Sitting
24:12.1,335,520,780,996,418,1.45,690.91,2.04,0,0,208,0,0,0,4294785083,1915,1.02,-0.12,-0.03,-12.78,0.21,19.43,-7.26,-81.59,-3.33,1.87,-0.95,-3.49,-1.47,Right Fall while Sitting
24:12.3,417,508,762,996,418,1.45,690.91,2.04,20723.79,418,208,20723.81,212,429476288,0,0,1.02,-0.16,0.02,-8.26,2.69,14.31,-9.72,-79.22,-4.29,1.95,0.94,-4.51,-1.29,Right Fall while Sitting
24:12.4,648,522,783,996,419,1.44,693.71,2.05,20723.79,418,209,20723.81,212,429476288,4294945441,209,0.98,-0.2,-0.02,-1.54,-4.82,17.9,-12.05,-76.89,-4.42,1.09,3.31,-4.72,-2.03,Right Fall while Sitting
24:12.5,471,518,777,996,419,1.44,693.71,2.05,20723.79,418,208,20723.81,212,429476288,4294923169,417,1.01,-0.24,-0.03,1.76,-9.35,16.23,-14.09,-74.83,-4.12,-0.35,5.47,-4.52,-3.33,Right Fall while Sitting
24:12.6,406,508,762,996,419,1.44,693.71,2.05,20723.79,418,208,20723.81,212,429476288,4294900897,625,0.99,-0.28,-0.07,-0.66,-0.83,10.34,-16.25,-72.28,-4.13,-0.71,6.88,-4.62,-3.58,Right Fall while Sitting
24:12.8,654,519,778.5,996,420,1.44,696.52,2.05,20723.79,418,211,20723.81,212,429476288,4294879882,836,0.97,-0.3,-0.04,-0.16,3.38,6.36,-17.89,-70.91,-4.08,-0.54,7.79,-4.64,-3.35,Right Fall while Sitting
24:12.9,498,518,777,996,420,1.44,696.52,2.05,20723.79,418,211,20723.81,212,429476288,4294858867,1047,0.97,-0.33,-0.09,-3.36,-2.21,10.64,-19.37,-68.97,-4.44,-1.07,9.24,-5.04,-3.79,Right Fall while Sitting
24:13.0,345,506,759,996,420,1.44,696.52,2.05,20723.79,418,209,20723.81,212,429476288,4294837012,1256,0.95,-0.34,-0.03,-3.58,3.47,13.47,-20.57,-68.35,-4.82,-0.89,11.05,-5.45,-3.58,Right Fall while Sitting
24:13.1,628,514,771,996,421,1.43,699.34,2.06,20723.79,418,211,20723.81,212,429476288,4294815997,1467,0.96,-0.38,-0.06,-5.27,-0.73,15.05,-22.03,-66.72,-5.43,-1.24,13.08,-6.09,-3.86,Right Fall while Sitting
24:13.3,447,510,765,996,422,1.42,702.16,2.06,20723.79,418,213,20723.81,212,429476288,4294795830,1680,0.95,-0.41,-0.07,-1.18,-1.11,14.15,-24.06,-64.58,-5.5,-1.63,14.98,-6.25,-4.15,Right Fall while Sitting
24:13.4,326,500,750,996,422,1.42,702.16,2.06,20723.79,418,211,20723.81,212,429476288,4294774815,1891,0.92,-0.45,-0.06,0.05,-1.66,11.86,-26.65,-62.12,-5.43,-2.1,16.6,-6.28,-4.5,Right Fall while Sitting
24:13.5,696,510,765,996,422,1.42,702.16,2.06,20723.83,420,210,20723.79,210,429475328,0,0,0.88,-0.46,-0.08,-1.31,-3.37,14.29,-28.19,-60.33,-5.52,-2.77,18.48,-6.43,-5.07,Right Fall while Sitting
24:13.7,539,511,766.5,996,422,1.42,702.16,2.06,20723.83,420,210,20723.79,210,429475328,4294945860,210,0.91,-0.51,-0.09,-1.65,-3.44,15.98,-29.89,-58.65,-5.66,-3.47,20.63,-6.63,-5.67,Right Fall while Sitting
24:13.8,293,501,751.5,996,423,1.42,705,2.07,20723.83,420,212,20723.79,210,429475328,4294925268,422,0.89,-0.53,-0.05,-1.18,3.21,9.01,-31.42,-57.45,-5.74,-3.31,21.88,-6.77,-5.48,Right Fall while Sitting
24:13.9,634,507,760.5,996,423,1.42,705,2.07,20723.83,420,211,20723.79,210,429475328,4294904253,633,0.87,-0.55,-0.07,0.08,1.26,6.57,-32.96,-55.78,-5.66,-3.41,22.81,-6.75,-5.5,Right Fall while Sitting
24:14.0,618,512,768,996,423,1.42,705,2.07,20723.83,420,214,20723.79,210,429475328,4294884513,847,0.86,-0.56,-0.09,-3.27,0.64,6.99,-33.44,-55.12,-6,-3.58,23.8,-7.1,-5.64,Right Fall while Sitting
24:14.2,322,504,756,996,422,1.42,702.16,2.06,20723.83,420,212,20723.79,210,429475328,4294863921,1059,0.86,-0.59,-0.07,-3.34,2.03,6.18,-34.9,-53.79,-6.35,-3.58,24.68,-7.5,-5.59,Right Fall while Sitting
24:14.3,629,509,763.5,996,423,1.42,705,2.07,20723.83,420,209,20723.79,210,429475328,4294842066,1268,0.82,-0.6,-0.04,-2.98,5.56,5.84,-36.58,-52.32,-6.66,-3.12,25.53,-7.86,-5.09,Right Fall while Sitting
24:14.4,536,510,765,996,423,1.42,705,2.07,20723.83,420,210,20723.79,210,429475328,4294820630,1478,0.84,-0.61,-0.06,-0.07,0.02,4.06,-36.58,-52.25,-6.6,-3.38,26.14,-7.8,-5.33,Right Fall while Sitting
24:14.5,346,504,756,996,422,1.42,702.16,2.06,20723.83,420,207,20723.79,210,429475328,4294797943,1685,0.83,-0.62,-0.08,-0.98,0.34,4.15,-37.28,-51.39,-6.65,-3.59,26.77,-7.88,-5.5,Right Fall while Sitting
24:14.7,695,511,766.5,996,423,1.42,705,2.07,20723.83,420,204,20723.79,210,429475328,4294774023,1889,0.79,-0.63,-0.05,-4.26,1.8,6.44,-38.91,-49.95,-7.12,-3.61,27.69,-8.4,-5.47,Right Fall while Sitting
24:14.8,636,515,772.5,996,421,1.43,699.34,2.06,20723.87,422,202,20723.78,209,429474944,0,0,0.8,-0.63,-0.08,-0.57,1.76,5.27,-38.69,-49.93,-7.13,-3.65,28.45,-8.39,-5.5,Right Fall while Sitting
24:14.9,375,510,765,996,419,1.44,693.71,2.05,20723.87,422,199,20723.78,209,429474944,4294941361,199,0.71,-0.66,0.01,-0.67,0.33,4.14,-43.61,-45.37,-7.14,-3.86,29.08,-8.6,-5.52,Right Fall while Sitting
24:15.0,505,510,765,996,419,1.44,693.71,2.05,20723.87,422,202,20723.78,209,429474944,4294916629,401,0.79,-0.65,-0.07,-2.08,3.64,5.85,-40.08,-48.65,-7.33,-3.65,29.92,-8.64,-5.45,Right Fall while Sitting
24:15.2,700,516,774,996,419,1.44,693.71,2.05,20723.87,422,200,20723.78,209,429474944,4294891093,601,0.79,-0.68,-0.05,-0.97,6.05,9.3,-41.35,-47.5,-7.39,-3.13,31.2,-8.74,-4.91,Right Fall while Sitting
24:15.3,318,510,765,996,419,1.44,693.71,2.05,20723.87,422,197,20723.78,209,429474944,4294864366,798,0.79,-0.7,-0.06,0.65,4.95,5.12,-42.34,-46.48,-7.23,-2.76,31.95,-8.64,-4.51,Right Fall while Sitting
24:15.4,501,510,765,996,419,1.44,693.71,2.05,20723.87,422,197,20723.78,209,429474944,4294837639,995,0.75,-0.7,-0.05,-1.35,4.94,5,-43.5,-45.38,-7.33,-2.39,32.69,-8.78,-4.11,Right Fall while Sitting
24:15.6,683,515,772.5,996,419,1.44,693.71,2.05,20723.87,422,198,20723.78,209,429474944,4294811307,1193,0.74,-0.72,0.01,-2.53,5.2,6.86,-44.85,-44.15,-7.58,-1.98,33.66,-9.07,-3.67,Right Fall while Sitting
24:15.7,326,509,763.5,996,418,1.45,690.91,2.04,20723.87,422,196,20723.78,209,429474944,4294784187,1389,0.73,-0.72,-0.03,-5.02,5.92,8.08,-45.34,-43.62,-8.15,-1.48,34.79,-9.64,-3.17,Right Fall while Sitting
24:15.8,435,507,760.5,996,418,1.45,690.91,2.04,20723.87,422,194,20723.78,209,429474944,4294756287,1583,0.72,-0.73,-0.01,-3.44,-0.63,3.5,-45.83,-43.17,-8.52,-1.82,35.33,-10.01,-3.47,Right Fall while Sitting
24:15.9,686,512,768,996,418,1.45,690.91,2.04,20723.87,422,198,20723.78,209,429474944,4294729955,1781,0.71,-0.74,-0.05,-1.31,-0.89,1.77,-46.32,-42.53,-8.61,-2.19,35.66,-10.12,-3.8,Right Fall while Sitting
24:16.1,305,507,760.5,996,418,1.45,690.91,2.04,20723.79,418,196,20723.66,197,429470272,0,0,0.7,-0.75,-0.05,-3.33,2.25,4.34,-47.42,-41.45,-8.96,-2.15,36.3,-10.5,-3.73,Right Fall while Sitting
24:16.2,448,505,757.5,996,418,1.45,690.91,2.04,20723.79,418,200,20723.66,197,429470272,4294941760,200,0.69,-0.75,-0.03,-5.41,0.85,4.69,-47.99,-40.96,-9.57,-2.3,37,-11.11,-3.85,Right Fall while Sitting
24:16.3,680,509,763.5,996,419,1.44,693.71,2.05,20723.79,418,196,20723.66,197,429470272,4294914640,396,0.69,-0.75,-0.01,-0.77,-0.03,0.33,-48.21,-40.78,-9.6,-2.56,37.14,-11.15,-4.09,Right Fall while Sitting
24:16.4,359,506,759,996,419,1.44,693.71,2.05,20723.79,418,197,20723.66,197,429470272,4294887913,593,0.69,-0.78,-0.04,1.63,2.02,1.29,-48.76,-40.14,-9.32,-2.56,37.4,-10.9,-4.06,Right Fall while Sitting
24:16.6,342,502,753,996,419,1.44,693.71,2.05,20723.79,418,198,20723.66,197,429470272,4294861581,791,0.68,-0.77,-0.04,-2.93,1.92,-0.75,-49.21,-39.71,-9.62,-2.57,37.41,-11.21,-4.06,Right Fall while Sitting
24:16.7,692,506,759,996,420,1.44,696.52,2.05,20723.79,418,199,20723.66,197,429470272,4294835646,990,0.67,-0.76,-0.03,-1.87,3.24,1.63,-49.07,-39.87,-9.79,-2.41,37.72,-11.36,-3.91,Right Fall while Sitting
24:16.8,367,503,754.5,996,420,1.44,696.52,2.05,20723.79,418,199,20723.66,197,429470272,4294809711,1189,0.69,-0.79,-0.03,-1.79,3.91,0.34,-49.54,-39.42,-9.95,-2.17,37.86,-11.53,-3.66,Right Fall while Sitting
24:17.0,462,502,753,996,421,1.43,699.34,2.06,20723.79,418,201,20723.66,197,429470272,4294784576,1390,0.69,-0.77,-0.01,-2.92,0.07,-2.97,-49.01,-39.98,-10.25,-2.41,37.58,-11.8,-3.92,Right Fall while Sitting
24:17.1,668,506,759,996,421,1.43,699.34,2.06,20723.79,418,197,20723.66,197,429470272,4294757849,1587,0.67,-0.76,-0.03,-2.15,2.7,0.25,-49.2,-39.75,-10.45,-2.32,37.72,-12,-3.82,Right Fall while Sitting
24:17.2,349,503,754.5,996,420,1.44,696.52,2.05,20723.79,418,197,20723.66,197,429470272,4294731122,1784,0.69,-0.79,-0.04,-4.32,1.62,0.56,-49.05,-39.87,-10.93,-2.37,37.89,-12.45,-3.87,Right Fall while Sitting
24:17.3,462,502,753,996,421,1.43,699.34,2.06,20723.81,419,198,20723.67,198,429470464,0,0,0.67,-0.76,-0.02,-3.13,0.12,-1.39,-48.95,-40.03,-11.25,-2.61,37.81,-12.76,-4.11,Right Fall while Sitting
24:17.5,697,506,759,996,422,1.42,702.16,2.06,20723.81,419,199,20723.67,198,429470464,4294941361,199,0.69,-0.78,-0.04,-0.9,1.58,-0.5,-49.11,-39.8,-11.29,-2.66,37.85,-12.81,-4.15,Right Fall while Sitting
24:17.6,335,502,753,996,421,1.43,699.34,2.06,20723.81,419,199,20723.67,198,429470464,4294915426,398,0.68,-0.78,-0.04,-3.75,1.66,-2.43,-49.69,-39.24,-11.7,-2.7,37.64,-13.22,-4.17,Right Fall while Sitting
24:17.7,443,501,751.5,996,422,1.42,702.16,2.06,20723.81,419,204,20723.67,198,429470464,4294891506,602,0.68,-0.77,-0.02,-0.89,0.17,-3.69,-48.9,-40.07,-11.74,-2.94,37.27,-13.23,-4.42,Right Fall while Sitting
24:17.8,677,504,756,996,423,1.42,705,2.07,20723.81,419,199,20723.67,198,429470464,4294865571,801,0.69,-0.77,-0.03,-1.59,2.12,-3.37,-48.65,-40.29,-11.87,-2.92,36.94,-13.35,-4.42,Right Fall while Sitting
24:18.0,322,501,751.5,996,423,1.42,705,2.07,20723.81,419,200,20723.67,198,429470464,4294840035,1001,0.68,-0.75,-0.02,-2.51,2.18,-1.95,-48.28,-40.7,-12.12,-2.9,36.79,-13.57,-4.41,Right Fall while Sitting
24:18.1,469,500,750,996,423,1.42,705,2.07,20723.81,419,200,20723.67,198,429470464,4294814499,1201,0.69,-0.76,-0.04,0.66,-0.79,-2.19,-48.2,-40.71,-11.97,-3.26,36.61,-13.41,-4.76,Right Fall while Sitting
24:18.2,639,503,754.5,996,424,1.41,707.85,2.07,20723.81,419,201,20723.67,198,429470464,4294789364,1402,0.69,-0.77,-0.03,-4.79,-0.02,0.98,-48.55,-40.39,-12.51,-3.52,36.84,-13.95,-4.99,Right Fall while Sitting
24:18.4,262,499,748.5,996,424,1.41,707.85,2.07,20723.81,419,200,20723.67,198,429470464,4294763828,1602,0.69,-0.77,-0.02,-2.5,2.65,1.81,-48.46,-40.51,-12.76,-3.43,37.17,-14.18,-4.92,Right Fall while Sitting
24:18.5,622,501,751.5,996,424,1.41,707.85,2.07,20723.81,419,199,20723.67,198,429470464,4294737893,1801,0.68,-0.78,-0.02,-2.08,-1.66,-3.67,-49.58,-39.4,-12.95,-3.9,36.81,-14.41,-5.32,Right Fall while Sitting
24:18.6,516,501,751.5,996,424,1.41,707.85,2.07,20723.88,423,198,20723.69,199,429471168,0,0,0.71,-0.77,-0.03,-1.03,-0.23,-8.72,-47.91,-41.04,-13.01,-4.18,35.81,-14.4,-5.65,Right Fall while Sitting
24:18.7,285,497,745.5,996,423,1.42,705,2.07,20723.88,423,201,20723.69,199,429471168,4294942161,201,0.74,-0.76,-0.01,2.61,1.46,-22.24,-46.29,-42.7,-12.6,-4.25,33.06,-13.95,-5.78,Right Fall while Sitting
24:18.9,532,498,747,996,424,1.41,707.85,2.07,20723.88,423,198,20723.69,199,429471168,4294915829,399,0.75,-0.7,-0.04,1.89,4.35,-27.39,-43.73,-45.2,-12.29,-3.95,29.69,-13.55,-5.6,Right Fall while Sitting
24:19.0,521,498,747,996,424,1.41,707.85,2.07,20723.88,423,199,20723.69,199,429471168,4294889894,598,0.78,-0.66,-0.01,2.11,8.07,-25.02,-40.75,-48.24,-11.95,-3.17,26.58,-13.1,-4.97,Right Fall while Sitting
24:19.1,142,493,739.5,996,424,1.41,707.85,2.07,20723.88,423,197,20723.69,199,429471168,4294863167,795,0.8,-0.61,0.01,-2.35,10.67,-15.74,-37.98,-51.01,-12.18,-2.07,24.69,-13.21,-4.03,Right Fall while Sitting
24:19.2,593,494,741,996,424,1.41,707.85,2.07,20723.88,423,199,20723.69,199,429471168,4294837232,994,0.84,-0.59,0.05,0.27,6.95,-18.55,-35.52,-53.36,-12.07,-1.44,22.41,-13.01,-3.51,Right Fall while Sitting
24:19.4,457,494,741,996,424,1.41,707.85,2.07,20723.88,423,197,20723.69,199,429471168,4294810505,1191,0.85,-0.56,0.05,0.82,1.94,-22.31,-34.02,-54.83,-11.89,-1.44,19.68,-12.78,-3.58,Right Fall while Sitting
24:19.5,301,491,736.5,996,424,1.41,707.85,2.07,20723.88,423,196,20723.69,199,429471168,4294783385,1387,0.89,-0.53,0.03,4.75,-2.82,-28.32,-31.24,-57.7,-11.21,-2.06,16.16,-12.01,-4.29,Right Fall while Sitting
24:19.6,662,493,739.5,996,424,1.41,707.85,2.07,20723.88,423,199,20723.69,199,429471168,4294757450,1586,0.88,-0.46,0.06,1.13,-4.03,-30.97,-28.15,-60.56,-11,-2.83,12.29,-11.68,-5.14,Right Fall while Sitting
24:19.8,439,493,739.5,996,423,1.42,705,2.07,20723.88,423,192,20723.69,199,429471168,4294728778,1778,0.94,-0.38,0.01,1.62,0.05,-28.75,-22.5,-66.49,-10.72,-3.08,8.74,-11.19,-5.62,Right Fall while Sitting
24:19.9,317,490,735,996,423,1.42,705,2.07,20723.89,423,194,20723.66,197,429470080,0,0,0.99,-0.34,0.03,-6.49,12.46,-28.44,-19.34,-69.58,-11.47,-1.76,5.26,-11.78,-4.48,Right Fall while Sitting
24:20.0,742,494,741,996,423,1.42,705,2.07,20723.89,423,191,20723.66,197,429470080,4294938241,191,1.01,-0.23,0.05,-8.06,10.9,-27.06,-13.64,-75.09,-12.42,-0.63,1.92,-12.47,-3.61,Right Fall while Sitting
24:20.1,532,494,741,996,422,1.42,702.16,2.06,20723.89,423,190,20723.66,197,429470080,4294908805,381,0.98,-0.22,0.11,-0.49,1.34,-32.96,-12.87,-74.49,-12.41,-0.72,-2.2,-12.43,-3.67,Right Fall while Sitting
