Datetime, ECGRaw , AvgECG , ampECG , MAX , GSRRaw , Resistance , GSR(kohm) , SCL , GSRRMS , GSRMAV , EMGRaw , EMGRMS , EMGMAV , EMGVAR , EMGSSI , IEMG , AccX , AccY, AccZ , GyroX , GyroY , GyroZ , Aroll , Apitch , Groll , Gpitch, Gyaw , Combroll , Combpitch,Features
25:50.1,760,677,1015.5,880,447,1.29,776.04,2.18,54.97,446,295,146.79,295,21547,172503,2361,1.01,0.1,0.07,-2.98,4.31,-0.13,5.23,-81.28,-2.31,-1.35,-0.16,-2.01,-4.54,Standing
25:50.2,866,688,1032,880,447,1.29,776.04,2.18,54.97,446,295,146.79,295,21547,193992,2656,1.01,0.1,0.1,-3.44,2.12,-1.75,5.25,-80.45,-2.6,-1.33,-0.26,-2.29,-4.5,Standing
25:50.3,816,694,1041,880,447,1.29,776.04,2.18,57.36,447,295,146.79,295,21547,0,0,1,0.1,0.09,-2.19,-0.92,-3.14,5.09,-80.96,-2.76,-1.62,-0.49,-2.45,-4.79,Standing
25:50.4,771,698,1047,880,447,1.29,776.04,2.18,57.36,447,295,146.79,295,21547,21489,295,0.99,0.1,0.09,-1.34,-1.11,-2.24,5.07,-80.75,-2.84,-1.93,-0.63,-2.52,-5.08,Standing
25:50.5,759,701,1051.5,880,448,1.28,779.13,2.19,57.36,447,295,146.79,295,21547,42978,590,1,0.1,0.06,-3.28,0.62,-0.92,5.16,-81.81,-3.11,-2.07,-0.64,-2.78,-5.26,Standing
25:50.6,873,709,1063.5,880,447,1.29,776.04,2.18,57.36,447,295,146.79,295,21547,64467,885,1.02,0.1,0.07,-3.78,1.19,-2.46,5.06,-81.59,-3.43,-2.15,-0.81,-3.09,-5.32,Standing
25:50.7,764,711,1066.5,880,447,1.29,776.04,2.18,57.36,447,295,146.79,295,21547,85956,1180,1.01,0.09,0.08,-2.62,0.3,-2.07,4.76,-81.26,-3.63,-2.32,-0.94,-3.3,-5.47,Standing
25:50.8,811,715,1072.5,880,447,1.29,776.04,2.18,57.36,447,296,146.79,295,21547,108036,1476,1,0.1,0.09,-1.15,-0.07,-0.71,5.17,-80.77,-3.69,-2.52,-0.93,-3.34,-5.65,Standing
25:50.9,862,721,1081.5,880,447,1.29,776.04,2.18,57.36,447,295,146.79,295,21547,129525,1771,1.01,0.11,0.05,-1.25,-2.44,-0.93,5.55,-81.68,-3.76,-2.97,-0.94,-3.39,-6.12,Standing
25:51.0,788,724,1086,880,447,1.29,776.04,2.18,57.36,447,296,146.79,295,21547,151605,2067,1,0.11,0.05,-1.2,1.05,-1.24,5.59,-81.53,-3.83,-3.06,-0.99,-3.45,-6.2,Standing
25:51.0,710,723,1084.5,880,447,1.29,776.04,2.18,57.36,447,296,146.79,295,21547,173685,2363,1,0.11,0.06,-2.53,1.89,-1.6,5.74,-81.11,-4.02,-3.07,-1.07,-3.63,-6.19,Standing
25:51.2,808,726,1089,880,447,1.29,776.04,2.18,57.36,447,296,146.79,295,21547,195765,2659,1,0.1,0.07,-2.57,2.33,-1.05,5.32,-81.16,-4.22,-3.04,-1.09,-3.84,-6.16,Standing
25:51.2,740,727,1090.5,880,447,1.29,776.04,2.18,57.36,447,298,148,295,21902,0,0,1.01,0.1,0.08,-3.97,1.11,-0.37,5.33,-80.89,-4.56,-3.13,-1.05,-4.16,-6.24,Standing
25:51.3,677,725,1087.5,880,447,1.29,776.04,2.18,57.36,447,298,148,295,21902,23268,298,1,0.11,0.06,-4.36,-2.61,-2,5.39,-81.44,-4.94,-3.59,-1.17,-4.52,-6.7,Standing
25:51.4,685,724,1086,880,447,1.29,776.04,2.18,57.36,447,298,148,295,21902,46536,596,0.99,0.11,0.07,-2.79,1.77,-0.73,5.64,-81.05,-5.16,-3.61,-1.17,-4.73,-6.71,Standing
25:51.5,678,722,1083,880,447,1.29,776.04,2.18,57.36,447,298,148,295,21902,69804,894,0.99,0.1,0.08,-3.17,1.74,-0.3,5.36,-81.07,-5.42,-3.64,-1.12,-4.98,-6.73,Standing
25:51.6,780,724,1086,880,447,1.29,776.04,2.18,57.36,447,301,148,295,21902,94869,1195,1,0.1,0.07,-3.53,-0.38,-0.08,5.04,-81.62,-5.71,-3.87,-1.05,-5.28,-6.98,Standing
25:51.7,766,725,1087.5,880,447,1.29,776.04,2.18,57.36,447,469,148,295,21902,118222,1664,1.03,0.1,0.07,-3.25,3.48,0.83,4.72,-81.75,-5.98,-3.73,-0.89,-5.55,-6.85,Standing
25:51.8,718,725,1087.5,880,447,1.29,776.04,2.18,57.36,447,742,148,295,21902,144498,2406,1.02,0.09,0.08,-2.57,2.02,-2.51,4.53,-81.46,-6.18,-3.72,-1.06,-5.75,-6.83,Standing
25:51.9,811,727,1090.5,880,447,1.29,776.04,2.18,57.36,447,780,148,295,21902,163074,3186,0.99,0.09,0.08,1.13,1.08,-2.57,4.84,-81.24,-6.01,-3.82,-1.24,-5.58,-6.91,Standing
25:52.0,767,728,1092,880,447,1.29,776.04,2.18,57.36,447,782,148,295,21902,184774,3968,0.99,0.1,0.06,1.59,-0.61,0.2,5.13,-81.63,-5.8,-4.08,-1.14,-5.36,-7.18,Standing
25:52.1,755,729,1093.5,880,447,1.29,776.04,2.18,57.36,447,781,148,295,21902,204911,4749,1.01,0.1,0.06,-2.52,2.9,1.63,5.09,-81.91,-5.99,-3.99,-0.9,-5.55,-7.1,Standing
25:52.2,848,732,1098,880,448,1.28,779.13,2.19,57.36,447,781,150.01,553,22503,0,0,1.02,0.09,0.1,-5.04,6.06,0.22,4.64,-80.86,-6.44,-3.58,-0.8,-5.99,-6.68,Standing
25:52.3,847,735,1102.5,880,448,1.28,779.13,2.19,57.36,447,778,150.01,553,22503,15460,778,1.02,0.09,0.1,-1.96,3.06,-1.95,4.58,-80.64,-6.58,-3.48,-0.92,-6.13,-6.57,Standing
25:52.4,806,737,1105.5,880,447,1.29,776.04,2.18,57.36,447,777,150.01,553,22503,29365,1555,0.99,0.09,0.11,1.38,0.5,-2.57,4.51,-80.4,-6.38,-3.63,-1.09,-5.95,-6.7,Standing
25:52.5,772,738,1107,880,447,1.29,776.04,2.18,57.36,447,776,150.01,553,22503,41717,2331,0.99,0.1,0.07,1.2,0.69,0.07,5.08,-81.47,-6.21,-3.76,-1.01,-5.76,-6.87,Standing
25:52.6,775,738,1107,880,447,1.29,776.04,2.18,57.36,447,775,150.01,553,22503,52518,3106,1.01,0.09,0.06,-0.98,2.52,0.59,4.6,-82.1,-6.25,-3.71,-0.87,-5.82,-6.84,Standing
25:52.7,699,738,1107,880,447,1.29,776.04,2.18,57.36,447,779,150.01,553,22503,69535,3885,1,0.09,0.08,-3.63,-0.1,0.18,4.6,-81.62,-6.55,-3.92,-0.78,-6.11,-7.02,Standing
25:52.8,733,737,1105.5,880,447,1.29,776.04,2.18,57.36,447,778,150.01,553,22503,84995,4663,1.01,0.1,0.1,-2.81,1.67,0.21,5.03,-80.42,-6.78,-3.95,-0.67,-6.31,-7.01,Standing
25:52.9,740,737,1105.5,880,447,1.29,776.04,2.18,57.36,447,780,150.01,553,22503,103571,5443,1.01,0.09,0.09,-0.5,0.59,-1.63,4.71,-80.96,-6.77,-4.09,-0.76,-6.31,-7.16,Standing
25:53.0,661,736,1104,880,447,1.29,776.04,2.18,57.36,447,774,150.01,553,22503,112823,6217,1,0.09,0.08,0.55,1.21,-2.65,4.56,-81.64,-6.66,-4.17,-0.94,-6.22,-7.27,Standing
25:53.1,787,737,1105.5,880,447,1.29,776.04,2.18,57.36,447,774,150.01,553,22503,122075,6991,0.99,0.09,0.07,-0.42,3.43,-0.24,4.48,-81.87,-6.65,-4.02,-0.89,-6.2,-7.14,Standing
25:53.2,661,735,1102.5,880,447,1.29,776.04,2.18,57.36,447,777,116.61,776,13597,0,0,1.01,0.09,0.07,-2.33,0.98,-0.74,4.61,-81.91,-6.82,-4.12,-0.88,-6.37,-7.24,Standing
25:53.3,666,734,1101,880,447,1.29,776.04,2.18,57.36,447,770,116.61,776,13597,3076,770,1,0.09,0.08,-3.09,0.56,-2.21,4.75,-81.56,-7.07,-4.27,-1.02,-6.6,-7.36,Standing
25:53.4,669,733,1099.5,880,447,1.29,776.04,2.18,57.36,447,776,116.61,776,13597,15428,1546,1,0.09,0.09,-2.34,2.29,-1.93,4.48,-81.18,-7.25,-4.24,-1.14,-6.78,-7.31,Standing
25:53.5,578,730,1095,880,447,1.29,776.04,2.18,57.36,447,776,116.61,776,13597,27780,2322,1,0.09,0.07,-1.41,-0.01,-1.56,4.68,-81.65,-7.34,-4.44,-1.21,-6.86,-7.52,Standing
25:53.6,717,729,1093.5,880,447,1.29,776.04,2.18,57.36,447,768,116.61,776,13597,27780,3090,1,0.09,0.06,-1.38,0.18,-1.48,4.54,-82.3,-7.42,-4.62,-1.28,-6.94,-7.72,Standing
25:53.7,624,727,1090.5,880,447,1.29,776.04,2.18,57.36,447,778,116.61,776,13597,43240,3868,1,0.09,0.06,-2.12,1.72,-0.99,4.37,-82.55,-7.57,-4.64,-1.3,-7.1,-7.76,Standing
25:53.8,676,727,1090.5,880,447,1.29,776.04,2.18,57.36,447,773,116.61,776,13597,50945,4641,1.01,0.08,0.07,-2.56,3.12,-1.39,4.11,-82.4,-7.77,-4.53,-1.36,-7.3,-7.65,Standing
25:53.9,781,727,1090.5,880,447,1.29,776.04,2.18,57.36,447,682,116.61,776,13597,57317,5323,1,0.09,0.1,-1.54,2.19,-1.45,4.26,-80.91,-7.87,-4.51,-1.43,-7.39,-7.57,Standing
25:54.0,696,727,1090.5,880,447,1.29,776.04,2.18,57.36,447,309,116.61,776,13597,87262,5632,1,0.09,0.1,-0.04,0.91,-1.14,4.83,-80.64,-7.82,-4.62,-1.46,-7.31,-7.66,Standing
25:54.1,685,726,1089,880,446,1.29,772.96,2.18,57.36,447,302,116.61,776,13597,112930,5934,1,0.09,0.08,-0.6,1.76,-0.47,4.57,-81.53,-7.82,-4.65,-1.43,-7.33,-7.72,Standing
25:54.2,776,727,1090.5,880,447,1.29,776.04,2.18,55.78,446,301,117.47,623,13798,0,0,1,0.1,0.08,-2.06,1.53,-0.85,4.97,-81.19,-7.97,-4.69,-1.44,-7.45,-7.75,Standing
25:54.3,802,728,1092,880,447,1.29,776.04,2.18,55.78,446,300,117.47,623,13798,24464,300,1,0.1,0.07,-2.55,2.95,-0.69,5.19,-81.31,-8.17,-4.6,-1.43,-7.63,-7.67,Standing
25:54.4,751,729,1093.5,880,447,1.29,776.04,2.18,55.78,446,299,117.47,623,13798,48329,599,1,0.09,0.09,-3.42,4.66,-1.04,4.63,-80.93,-8.45,-4.33,-1.45,-7.93,-7.4,Standing
25:54.5,721,728,1092,880,446,1.29,772.96,2.18,55.78,446,298,117.47,623,13798,71597,897,1,0.09,0.11,-3.16,1.05,-2.21,4.44,-80.27,-8.71,-4.43,-1.59,-8.19,-7.46,Standing
25:54.6,726,728,1092,880,447,1.29,776.04,2.18,55.78,446,297,117.47,623,13798,94270,1194,1,0.09,0.11,-0.74,1.97,-0.43,4.53,-80.45,-8.73,-4.43,-1.56,-8.2,-7.47,Standing
25:54.7,776,729,1093.5,880,447,1.29,776.04,2.18,55.78,446,296,117.47,623,13798,116350,1490,1.01,0.08,0.1,-0.79,-0.71,-0.75,4.03,-81.26,-8.75,-4.7,-1.55,-8.24,-7.76,Standing
25:54.8,593,727,1090.5,880,447,1.29,776.04,2.18,55.78,446,296,117.47,623,13798,138430,1786,1,0.09,0.08,-0.34,-0.27,-1.43,4.58,-81.62,-8.73,-4.93,-1.62,-8.2,-8,Standing
25:54.9,654,726,1089,880,447,1.29,776.04,2.18,55.78,446,296,117.47,623,13798,160510,2082,1,0.09,0.08,-1.98,1.86,-1.03,4.69,-81.36,-8.87,-4.94,-1.64,-8.33,-8,Standing
25:55.0,774,727,1090.5,880,447,1.29,776.04,2.18,55.78,446,296,117.47,623,13798,182590,2378,1,0.09,0.11,-2.34,2.18,-1.56,4.5,-80.53,-9.05,-4.92,-1.72,-8.51,-7.95,Standing
25:55.1,741,727,1090.5,880,446,1.29,772.96,2.18,55.78,446,296,117.47,623,13798,204670,2674,1,0.09,0.11,-1.28,0.34,-1.28,4.33,-80.62,-9.12,-5.09,-1.77,-8.59,-8.11,Standing
25:55.2,656,726,1089,880,447,1.29,776.04,2.18,54.97,446,295,150.38,296,22614,0,0,1,0.09,0.1,-1.74,-1.15,-2.27,4.59,-80.76,-9.24,-5.4,-1.91,-8.69,-8.41,Standing
25:55.3,669,725,1087.5,880,447,1.29,776.04,2.18,54.97,446,295,150.38,296,22614,21489,295,1,0.1,0.1,-2.73,1.07,-0.59,4.88,-80.68,-9.46,-5.49,-1.89,-8.88,-8.5,Standing
25:55.4,714,725,1087.5,880,446,1.29,772.96,2.18,54.97,446,295,150.38,296,22614,42978,590,1.01,0.09,0.09,-3.52,-0.44,-1.17,4.65,-81.11,-9.75,-5.73,-1.93,-9.17,-8.75,Standing
25:55.5,721,725,1087.5,880,446,1.29,772.96,2.18,54.97,446,295,150.38,296,22614,64467,885,1,0.09,0.1,-3.96,-0.26,-1.4,4.8,-80.49,-10.08,-5.96,-1.99,-9.49,-8.94,Standing
25:55.6,631,724,1086,880,446,1.29,772.96,2.18,54.97,446,295,150.38,296,22614,85956,1180,1,0.09,0.1,-2.53,0.72,-0.83,4.77,-80.63,-10.28,-6.09,-1.99,-9.68,-9.07,Standing
25:55.7,768,724,1086,880,447,1.29,776.04,2.18,54.97,446,295,150.38,296,22614,107445,1475,1.01,0.09,0.07,-2.22,0.11,-1.49,4.63,-81.92,-10.45,-6.27,-2.06,-9.84,-9.3,Standing
25:55.8,693,724,1086,880,447,1.29,776.04,2.18,54.97,446,295,150.38,296,22614,128934,1770,1,0.09,0.07,-1.9,1.36,-0.63,4.6,-81.87,-10.58,-6.34,-2.05,-9.97,-9.36,Standing
25:55.9,675,723,1084.5,880,447,1.29,776.04,2.18,54.97,446,295,150.38,296,22614,150423,2065,1,0.1,0.1,-3.33,2.11,-0.67,5.16,-80.39,-10.86,-6.33,-2.04,-10.22,-9.29,Standing
25:56.0,711,723,1084.5,880,446,1.29,772.96,2.18,54.97,446,295,150.38,296,22614,171912,2360,1,0.1,0.11,-2.83,0.8,-1.06,4.95,-79.98,-11.08,-6.45,-2.06,-10.44,-9.39,Standing
25:56.1,671,722,1083,880,446,1.29,772.96,2.18,54.97,446,295,150.38,296,22614,193401,2655,1.01,0.09,0.09,-1.1,0.44,-2,4.61,-80.95,-11.14,-6.6,-2.18,-10.51,-9.57,Standing
25:56.2,778,723,1084.5,880,448,1.28,779.13,2.19,53.33,446,295,146.59,295,21488,0,0,0.99,0.1,0.08,-0.02,-0.4,-1.04,5.06,-81.14,-11.09,-6.84,-2.21,-10.44,-9.81,Standing
26:00.8,515,515,772.5,515,447,1.29,776.04,2.18,0,0,296,0,0,0,44753,593,0.96,0.29,0.08,0.32,0.02,-12.63,15.67,-68.62,2.45,0.13,-95.73,-1.32,-79.1,Left Fall while Standing
26:00.9,998,756,1134,998,447,1.29,776.04,2.18,0,0,296,0,0,0,66833,889,0.93,0.38,0.07,-6.27,-0.03,-12.36,20.97,-64.3,1.09,0.13,-98.41,-2.21,-78.81,Left Fall while Standing
26:01.0,998,837,1255.5,998,448,1.28,779.13,2.19,0,0,296,0,0,0,88913,1185,0.89,0.36,0.08,-6.26,-1.31,-10.16,20.07,-63.83,-0.05,-0.11,-100.26,-2.88,-78.74,Left Fall while Standing
26:01.1,1000,877,1315.5,1000,448,1.28,779.13,2.19,0,0,295,0,0,0,110402,1480,0.94,0.42,0.08,4.38,-3.91,-13.29,22.62,-61.92,0.76,-0.83,-102.72,-1.58,-79.11,Left Fall while Standing
26:01.2,513,804,1206,1000,447,1.29,776.04,2.18,0,0,295,0,0,0,131891,1775,0.92,0.43,0.05,-2.47,-2.17,-11.72,24.1,-62,0.31,-1.23,-104.86,-1.51,-79.16,Left Fall while Standing
26:01.3,508,755,1132.5,1000,446,1.29,772.96,2.18,0,0,295,0,0,0,153380,2070,0.88,0.48,0.06,3.67,0.17,-12.68,26.68,-58.52,0.97,-1.2,-107.15,-0.29,-78.72,Left Fall while Standing
26:01.4,814,763,1144.5,1000,446,1.29,772.96,2.18,0,0,296,0,0,0,175460,2366,0.85,0.46,0.08,2.29,-0.99,-14.1,26.19,-57.55,1.39,-1.38,-109.71,0.65,-78.47,Left Fall while Standing
26:01.5,703,756,1134,1000,447,1.29,776.04,2.18,0,0,295,0,0,0,196949,2661,0.81,0.51,0.05,14.26,-11.86,-18.83,30.55,-55.45,3.94,-3.5,-113.08,3.74,-80.09,Left Fall while Standing
26:01.6,752,755,1132.5,1000,446,1.29,772.96,2.18,56.58,447,295,147.79,295,21842,0,0,0.81,0.52,-0.07,9.21,-17.28,-17.43,35.18,-60.48,5.6,-6.63,-116.23,6.01,-82.76,Left Fall while Standing
26:01.7,730,753,1129.5,1000,447,1.29,776.04,2.18,56.58,447,295,147.79,295,21842,21489,295,1.11,0.69,-0.26,-15.65,-36.7,-27.66,38.78,-68.77,2.71,-13.42,-121.35,3.83,-89.14,Left Fall while Standing
26:01.8,698,748,1122,1000,447,1.29,776.04,2.18,56.58,447,295,147.79,295,21842,42978,590,0.65,1.14,-0.28,-77.6,-36.24,-46.85,72.16,-37.23,-11.88,-20.23,-130.16,-9.1,-94.77,Left Fall while Standing
26:01.9,811,753,1129.5,1000,447,1.29,776.04,2.18,56.58,447,295,147.79,295,21842,64467,885,0.71,0.66,-0.27,-95.14,-8.56,-25.31,55.98,-61.59,-30.05,-21.87,-134.99,-25.61,-95.71,Left Fall while Standing
26:02.0,748,752,1128,1000,446,1.29,772.96,2.18,56.58,447,295,147.79,295,21842,85956,1180,0.26,0.8,0.45,-65.77,-10.41,-16.51,48.32,-12.03,-42.68,-23.87,-138.16,-36.51,-96,Left Fall while Standing
26:02.1,754,753,1129.5,1000,447,1.29,776.04,2.18,56.58,447,295,147.79,295,21842,107445,1475,0.5,0.78,0.44,-12.58,14.23,-8.91,39.72,-22.53,-45.07,-21.16,-139.85,-37.33,-91.88,Left Fall while Standing
26:02.2,463,733,1099.5,1000,424,1.41,707.85,2.07,56.58,447,302,147.79,295,21842,133113,1777,0.44,0.79,0.33,-1.63,6.38,10.91,45.72,-21.28,-45.38,-19.96,-137.79,-35.97,-89.28,Left Fall while Standing
26:02.3,544,721,1081.5,1000,412,1.48,674.3,2.01,56.58,447,308,147.79,295,21842,162441,2085,0.55,0.79,0.34,-10.3,13.42,4.45,41.57,-25.8,-47.3,-17.45,-136.96,-36.3,-85.56,Left Fall while Standing
26:02.4,511,709,1063.5,1000,434,1.36,736.84,2.12,56.58,447,301,147.79,295,21842,187506,2386,0.44,0.78,0.4,-21.01,8.41,-1.9,42.89,-20.38,-51.27,-15.86,-137.32,-38.61,-82.69,Left Fall while Standing
26:02.5,741,711,1066.5,1000,443,1.31,763.79,2.17,56.58,447,300,147.79,295,21842,211970,2686,0.42,0.75,0.55,-17.16,-0.64,10.74,37.75,-18.01,-54.5,-15.98,-135.3,-40.24,-81.52,Left Fall while Standing
26:02.6,963,724,1086,1000,447,1.29,776.04,2.18,20724.22,439,299,153.57,298,23582,0,0,0.49,0.72,0.56,-7.39,7.68,-0.77,34.42,-21.06,-55.89,-14.53,-135.44,-40.11,-78.89,Left Fall while Standing
26:02.7,846,730,1095,1000,447,1.29,776.04,2.18,20724.22,439,298,153.57,298,23582,23268,298,0.36,0.64,0.5,-11.43,18.46,-0.97,36.39,-17.67,-58.03,-11.08,-135.62,-40.68,-74.29,Left Fall while Standing
26:02.8,990,742,1113,1000,448,1.28,779.13,2.19,20724.22,439,298,153.57,298,23582,46536,596,0.35,0.6,0.69,-11.68,13.18,0.05,29.94,-15.01,-60.23,-8.59,-135.61,-41.43,-70.66,Left Fall while Standing
26:02.9,836,747,1120.5,1000,447,1.29,776.04,2.18,20724.22,439,297,153.57,298,23582,69209,893,0.37,0.62,0.65,8.63,8.37,-6.5,31.38,-16.33,-58.61,-7.01,-136.84,-38.38,-68.03,Left Fall while Standing
26:03.0,777,748,1122,1000,447,1.29,776.04,2.18,20724.22,439,297,153.57,298,23582,91882,1190,0.3,0.65,0.62,24.93,17.79,-13.17,35.3,-13.38,-54.02,-3.74,-139.26,-32.41,-63.73,Left Fall while Standing
26:03.1,930,755,1132.5,1000,448,1.28,779.13,2.19,20724.22,439,296,153.57,298,23582,113962,1486,0.17,0.77,0.56,12.99,19.01,-14.02,46.84,-7.2,-51.59,-0.19,-141.88,-28.45,-59.12,Left Fall while Standing
26:03.2,769,756,1134,1000,447,1.29,776.04,2.18,20724.22,439,296,153.57,298,23582,136042,1782,0.12,0.81,0.55,23.03,24.84,-11.72,50.38,-5.09,-47.26,4.48,-144.08,-22.63,-53.46,Left Fall while Standing
26:03.3,833,759,1138.5,1000,448,1.28,779.13,2.19,20724.22,439,295,153.57,298,23582,157531,2077,0.04,0.77,0.52,13.19,4.05,-11.35,54.12,-1.85,-44.81,5.24,-146.2,-18.69,-51.69,Left Fall while Standing
26:03.4,759,759,1138.5,1000,447,1.29,776.04,2.18,20724.22,439,295,153.57,298,23582,179020,2372,0.06,0.8,0.53,18.7,0.8,-0.28,53.1,-2.76,-41.37,5.38,-146.25,-13.88,-50.57,Left Fall while Standing
26:03.5,742,758,1137,1000,448,1.28,779.13,2.19,20724.22,439,295,153.57,298,23582,200509,2667,0.03,0.85,0.43,-0.84,-3.1,3.73,61.1,-1.52,-41.52,4.82,-145.57,-12.53,-50.14,Left Fall while Standing
26:03.6,672,755,1132.5,1000,447,1.29,776.04,2.18,59.66,447,295,148.99,296,22198,0,0,0.05,0.87,0.42,5.36,-1.42,-0.92,61.88,-2.09,-40.55,4.56,-145.74,-10.09,-49.43,Left Fall while Standing
26:03.7,647,752,1128,1000,447,1.29,776.04,2.18,59.66,447,295,148.99,296,22198,21489,295,0.05,0.86,0.45,-0.7,2.87,-3,59.67,-2.19,-40.68,5.09,-146.29,-8.82,-47.97,Left Fall while Standing
26:03.8,818,754,1131,1000,448,1.28,779.13,2.19,59.66,447,296,148.99,296,22198,43569,591,0.03,0.84,0.44,-3.22,3.8,-1.64,60.72,-1.32,-41.27,5.79,-146.59,-8.01,-46.35,Left Fall while Standing
26:03.9,752,754,1131,1000,447,1.29,776.04,2.18,59.66,447,296,148.99,296,22198,65649,887,0.06,0.84,0.41,-2.07,-0.65,-1.63,60.88,-2.77,-41.65,5.67,-146.89,-7,-45.6,Left Fall while Standing
26:04.0,667,751,1126.5,1000,448,1.28,779.13,2.19,59.66,447,296,148.99,296,22198,87729,1183,0.03,0.84,0.46,-1.42,2.52,-1.52,59.78,-1.33,-41.9,6.12,-147.16,-5.92,-44.27,Left Fall while Standing
26:04.1,735,751,1126.5,1000,447,1.29,776.04,2.18,59.66,447,296,148.99,296,22198,109809,1479,0.06,0.87,0.45,-0.04,-1.16,0.18,59.77,-2.6,-41.91,5.91,-147.13,-4.61,-43.64,Left Fall while Standing
26:04.2,647,748,1122,1000,448,1.28,779.13,2.19,59.66,447,296,148.99,296,22198,131889,1775,0.02,0.87,0.44,2.34,-2.94,-1.4,61.75,-0.95,-41.49,5.38,-147.38,-2.87,-43.3,Left Fall while Standing
26:04.3,752,748,1122,1000,447,1.29,776.04,2.18,59.66,447,297,148.99,296,22198,154562,2072,0.07,0.86,0.44,-1.6,1.5,-1.14,59.37,-3.14,-41.78,5.65,-147.58,-1.91,-42.24,Left Fall while Standing
26:04.4,842,750,1125,1000,448,1.28,779.13,2.19,59.66,447,297,148.99,296,22198,177235,2369,0.06,0.85,0.43,2,0.86,-0.74,60.11,-2.85,-41.42,5.81,-147.72,-0.31,-41.3,Left Fall while Standing
26:04.5,726,750,1125,1000,447,1.29,776.04,2.18,59.66,447,296,148.99,296,22198,199315,2665,0.15,0.85,0.4,2.75,3.96,-1.61,57.15,-6.66,-40.92,6.52,-148.01,1.32,-39.91,Left Fall while Standing
26:04.6,812,751,1126.5,1000,447,1.29,776.04,2.18,59.66,447,296,148.79,296,22138,0,0,0.03,0.84,0.4,-1.63,-0.39,2.13,62.91,-1.34,-41.21,6.45,-147.63,2.27,-39.2,Left Fall while Standing
26:04.7,766,752,1128,1000,447,1.29,776.04,2.18,59.66,447,297,148.79,296,22138,22673,297,0.03,0.84,0.45,0.11,-1.98,1.6,60.2,-1.39,-41.19,6.09,-147.34,3.45,-38.8,Left Fall while Standing
26:04.8,564,747,1120.5,1000,437,1.34,745.73,2.14,59.66,447,302,148.79,296,22138,48341,599,0.05,0.85,0.43,1.16,0.6,-0.45,60.51,-2.03,-40.99,6.2,-147.42,4.79,-37.96,Left Fall while Standing
26:04.9,509,741,1111.5,1000,443,1.31,763.79,2.17,59.66,447,300,148.79,296,22138,72805,899,0.04,0.85,0.44,-1.33,0.89,0.1,60.92,-1.66,-41.22,6.35,-147.4,5.68,-37.08,Left Fall while Standing
26:05.0,698,740,1110,1000,446,1.29,772.96,2.18,59.66,447,299,148.79,296,22138,96670,1198,0.03,0.84,0.48,0.19,0.84,0.83,58.78,-1.41,-41.19,6.5,-147.25,6.78,-36.22,Left Fall while Standing
26:05.1,967,745,1117.5,1000,447,1.29,776.04,2.18,59.66,447,299,148.79,296,22138,120535,1497,0.04,0.85,0.46,1.18,0.92,-0.62,59.83,-1.62,-40.98,6.67,-147.36,8.04,-35.37,Left Fall while Standing
26:05.2,721,745,1117.5,1000,447,1.29,776.04,2.18,59.66,447,299,148.79,296,22138,144400,1796,0.03,0.86,0.44,0.17,-0.62,-1.21,61.42,-1.15,-40.95,6.56,-147.58,9.14,-34.79,Left Fall while Standing
26:05.3,777,746,1119,1000,447,1.29,776.04,2.18,59.66,447,300,148.79,296,22138,168864,2096,0.03,0.84,0.46,-2.7,0.43,1.75,59.89,-1.3,-41.43,6.63,-147.27,9.68,-34.05,Left Fall while Standing
26:05.4,670,744,1116,1000,448,1.28,779.13,2.19,59.66,447,300,148.79,296,22138,193328,2396,0.05,0.85,0.45,4.41,-0.39,0.5,59.56,-2.18,-40.65,6.56,-147.18,11.45,-33.48,Left Fall while Standing
26:05.5,772,745,1117.5,1000,447,1.29,776.04,2.18,59.66,447,300,148.79,296,22138,217792,2696,0.02,0.85,0.42,1.62,0.61,-0.18,62.59,-0.99,-40.36,6.67,-147.21,12.75,-32.72,Left Fall while Standing
26:05.6,629,742,1113,1000,448,1.28,779.13,2.19,45.28,445,300,155.64,299,24224,0,0,-0.01,0.84,0.44,-7.95,-12.04,9.12,62.15,0.25,-41.77,4.53,-145.59,12.35,-34.16,Left Fall while Standing
26:05.7,807,743,1114.5,1000,447,1.29,776.04,2.18,45.28,445,301,155.64,299,24224,25065,301,0.16,0.84,0.45,6.83,-3.33,-1.2,54.33,-6.85,-40.54,3.93,-145.8,14.4,-34.21,Left Fall while Standing
26:05.8,727,743,1114.5,1000,447,1.29,776.04,2.18,45.28,445,301,155.64,299,24224,50130,602,0.05,0.87,0.43,3.32,-0.65,-3.4,60.84,-2.19,-39.94,3.81,-146.42,15.92,-33.68,Left Fall while Standing
26:05.9,876,746,1119,1000,448,1.28,779.13,2.19,45.28,445,302,155.64,299,24224,75798,904,0.08,0.87,0.43,-4.56,1.97,1.64,59.45,-3.38,-40.76,4.16,-146.12,15.98,-32.73,Left Fall while Standing
26:06.0,792,747,1120.5,1000,447,1.29,776.04,2.18,45.28,445,302,155.64,299,24224,101466,1206,0.1,0.83,0.47,0.26,-6.39,11.27,55.36,-4.43,-40.72,3,-144.07,16.82,-33.3,Left Fall while Standing
26:06.1,837,748,1122,1000,448,1.28,779.13,2.19,45.28,445,303,155.64,299,24224,127739,1509,0.16,0.86,0.43,16.89,-21.08,23.06,55.45,-7.16,-37.62,-0.86,-139.85,20.62,-36.56,Left Fall while Standing
26:06.2,763,748,1122,1000,447,1.29,776.04,2.18,45.28,445,305,155.64,299,24224,155228,1814,0.24,0.85,0.36,2.22,-10.47,22.68,54.95,-11.06,-37.21,-2.81,-135.63,21.71,-37.96,Left Fall while Standing
26:06.3,760,749,1123.5,1000,447,1.29,776.04,2.18,45.28,445,310,155.64,299,24224,185792,2124,0.32,0.84,0.4,-9.94,-10.46,22.33,49.53,-14.42,-39.05,-4.74,-131.5,20.46,-39.38,Left Fall while Standing
26:06.4,685,748,1122,1000,447,1.29,776.04,2.18,45.28,445,553,155.64,299,24224,163921,2677,0.38,0.75,0.39,-9.23,-22.85,20.66,44.29,-18.54,-40.78,-9.01,-127.63,19.25,-43.15,Left Fall while Standing
26:06.5,846,749,1123.5,1000,447,1.29,776.04,2.18,45.28,445,721,155.64,299,24224,159474,3398,0.47,0.69,0.44,7.33,-23.31,18.68,37.2,-22.81,-39.4,-13.4,-124.12,20.96,-47.04,Left Fall while Standing
26:06.6,801,750,1125,1000,447,1.29,776.04,2.18,58.14,447,783,135.18,418,18272,0,0,0.59,0.75,0.32,7.93,-13.55,9.73,39.61,-28.95,-37.93,-15.92,-122.31,22.78,-49.15,Left Fall while Standing
26:06.7,782,751,1126.5,1000,448,1.28,779.13,2.19,58.14,447,778,135.18,418,18272,15460,778,0.6,0.74,0.33,-2.18,-12.53,9.64,38.39,-29.23,-38.33,-18.25,-120.52,22.69,-51.04,Left Fall while Standing
26:06.8,933,754,1131,1000,447,1.29,776.04,2.18,58.14,447,773,135.18,418,18272,23165,1551,0.6,0.74,0.27,9.33,-16.2,10.86,40.56,-30.48,-36.61,-21.23,-118.52,24.73,-53.55,Left Fall while Standing
26:06.9,999,758,1137,1000,447,1.29,776.04,2.18,58.14,447,769,135.18,418,18272,24702,2320,0.7,0.68,0.21,14.9,-11.63,20.88,36.43,-38.28,-33.89,-23.36,-114.7,27.64,-55.33,Left Fall while Standing
26:07.0,998,761,1141.5,1000,447,1.29,776.04,2.18,58.14,447,773,135.18,418,18272,32407,3093,0.69,0.69,0.18,4.75,-14.27,20.42,38.17,-38.69,-33.01,-26,-110.92,28.71,-57.58,Left Fall while Standing
26:07.1,679,760,1140,1000,447,1.29,776.04,2.18,58.14,447,767,135.18,418,18272,30872,3860,0.83,0.54,0.1,18.4,-9.81,27.26,30.25,-52.49,-29.57,-27.83,-105.82,32.11,-59.28,Left Fall while Standing
26:07.2,833,761,1141.5,1000,447,1.29,776.04,2.18,58.14,447,773,135.18,418,18272,38577,4633,0.93,0.48,0.01,-1.98,-8.93,12.22,26.97,-62.31,-29.94,-29.5,-103.54,31.65,-60.98,Left Fall while Standing
26:07.3,720,761,1141.5,1000,447,1.29,776.04,2.18,58.14,447,783,135.18,418,18272,61842,5416,0.85,0.51,0.1,12.52,-8.27,15.67,28.03,-54.4,-27.58,-31.06,-100.59,33.88,-62.37,Left Fall while Standing
26:07.4,799,761,1141.5,1000,447,1.29,776.04,2.18,58.14,447,775,135.18,418,18272,72643,6191,0.87,0.47,0,35.64,-10.26,25.2,28.55,-61.64,-20.96,-32.97,-95.91,40.27,-64.22,Left Fall while Standing
26:07.5,639,759,1138.5,1000,447,1.29,776.04,2.18,58.14,447,779,135.18,418,18272,89660,6970,1,0.35,-0.14,41.53,-22.2,50.1,22.29,-77.79,-13.23,-37.09,-86.59,47.48,-68.54,Left Fall while Standing
26:07.6,673,758,1137,1000,447,1.29,776.04,2.18,57.36,447,778,102.53,774,10511,0,0,1.05,0.17,-0.29,18.74,0.26,46.07,12.73,-96.57,-9.71,-37.05,-77.93,50.24,-69.05,Left Fall while Standing
26:07.7,559,755,1132.5,1000,447,1.29,776.04,2.18,57.36,447,338,102.53,774,10511,4294950468,338,1.12,0,-0.25,5.47,10.08,35.49,-0.19,-102.28,-8.71,-35.2,-71.43,50.21,-67.91,Left Fall while Standing
26:07.8,737,755,1132.5,1000,446,1.29,772.96,2.18,57.36,447,301,102.53,774,10511,8237,639,1.05,-0.07,-0.16,0.32,9.83,19.26,-4.74,-94.48,-8.65,-33.4,-67.91,49.17,-66.68,Left Fall while Standing
26:07.9,607,753,1129.5,1000,446,1.29,772.96,2.18,57.36,447,299,102.53,774,10511,32102,938,1.06,-0.13,-0.11,-10.46,22.96,2.19,-7.74,-88.9,-10.55,-29.22,-67.51,46.17,-63.03,Left Fall while Standing
26:08.0,734,753,1129.5,1000,446,1.29,772.96,2.18,57.36,447,299,102.53,774,10511,55967,1237,1.03,-0.1,-0.03,-3.22,13.47,-1.46,-5.44,-86.2,-11.14,-26.76,-67.78,44.56,-61.07,Left Fall while Standing
26:08.1,592,750,1125,1000,446,1.29,772.96,2.18,57.36,447,345,102.53,774,10511,43920,1582,1,-0.07,-0.03,-1.14,9.07,-9.37,-4.34,-87.39,-11.35,-25.09,-69.5,43.37,-59.97,Left Fall while Standing
26:08.2,590,748,1122,1000,446,1.29,772.96,2.18,57.36,447,459,102.53,774,10511,57993,2041,1,-0.04,-0.02,-8.75,7.68,-4.5,-2.16,-88.82,-12.96,-23.67,-70.33,40.88,-59.16,Left Fall while Standing
26:08.3,553,746,1119,1000,447,1.29,776.04,2.18,57.36,447,451,102.53,774,10511,64786,2492,0.92,0.03,0.05,-2.29,-5.25,-4.16,1.74,-85.15,-13.38,-24.64,-71.09,39.69,-60.62,Left Fall while Standing
26:08.4,711,745,1117.5,1000,446,1.29,772.96,2.18,57.36,447,306,102.53,774,10511,92886,2798,1.04,0.02,0.01,3.53,1.47,2.98,0.86,-88.39,-12.73,-24.37,-70.54,39.55,-60.91,Left Fall while Standing
26:08.5,660,744,1116,1000,447,1.29,776.04,2.18,57.36,447,299,102.53,774,10511,116751,3097,1.01,0,0.02,14.19,4.16,4.68,0.16,-88.86,-10.18,-23.62,-69.7,41.26,-60.74,Left Fall while Standing
26:08.6,699,744,1116,1000,446,1.29,772.96,2.18,50.74,446,298,118.33,339,14000,0,0,1.02,-0.01,0.03,28.67,10.54,8.82,-0.28,-87.83,-4.93,-21.69,-68.09,45.57,-59.39,Left Fall while Standing
26:08.7,836,745,1117.5,1000,446,1.29,772.96,2.18,50.74,446,297,118.33,339,14000,22673,297,1,-0.08,0.01,27.06,1.28,3.66,-4.72,-84.93,0.02,-21.46,-67.42,49.42,-59.67,Left Fall while Standing
26:08.8,838,746,1119,1000,446,1.29,772.96,2.18,50.74,446,297,118.33,339,14000,45346,594,1.05,-0.18,0.04,28.8,-10.3,7.99,-9.41,-77.97,5.23,-23.32,-65.97,53.35,-61.86,Left Fall while Standing
26:08.9,702,745,1117.5,1000,446,1.29,772.96,2.18,50.74,446,296,118.33,339,14000,67426,890,0.98,-0.1,0.04,31.21,-16.03,0.4,-5.37,-81.87,11,-26.29,-65.9,57.83,-65.17,Left Fall while Standing
26:09.0,751,745,1117.5,1000,446,1.29,772.96,2.18,50.74,446,296,118.33,339,14000,89506,1186,1.05,-0.06,0,16.09,-3.98,-7.66,-3.36,-86.71,13.98,-27.02,-67.31,59.53,-66.32,Left Fall while Standing
26:09.1,716,745,1117.5,1000,446,1.29,772.96,2.18,50.74,446,296,118.33,339,14000,111586,1482,1.02,-0.05,0,-2.67,9.68,-3.03,-2.85,-87.44,13.49,-25.23,-67.87,57.8,-64.99,Left Fall while Standing
26:09.2,745,745,1117.5,1000,446,1.29,772.96,2.18,50.74,446,296,118.33,339,14000,133666,1778,1.01,-0.11,0.04,-3.77,16.16,5.29,-6.17,-81.1,12.79,-22.23,-66.89,55.83,-62.37,Left Fall while Standing
26:09.3,629,744,1116,1000,447,1.29,776.04,2.18,50.74,446,296,118.33,339,14000,155746,2074,1.01,-0.06,0.09,7.9,7.44,-2.01,-3.05,-81.85,14.24,-20.86,-67.26,56.08,-61.41,Left Fall while Standing
26:09.4,592,742,1113,1000,446,1.29,772.96,2.18,50.74,446,296,118.33,339,14000,177826,2370,1.05,-0.03,0.09,-3.36,12.99,-11.92,-1.53,-83.39,13.63,-18.49,-69.43,54.33,-59.54,Left Fall while Standing
26:09.5,675,741,1111.5,1000,447,1.29,776.04,2.18,50.74,446,297,118.33,339,14000,200499,2667,1.05,-0.18,0.04,28.8,-10.3,7.99,-9.41,-77.97,5.23,-23.32,-65.97,53.35,-61.86,Left Fall while Standing
26:09.6,674,740,1110,1000,446,1.29,772.96,2.18,49.86,446,298,149.59,296,22375,0,0,0.98,-0.1,0.04,31.21,-16.03,0.4,-5.37,-81.87,11,-26.29,-65.9,57.83,-65.17,Left Fall while Standing
26:09.7,637,739,1108.5,1000,446,1.29,772.96,2.18,49.86,446,298,149.59,296,22375,23268,298,1.05,-0.06,0,16.09,-3.98,-7.66,-3.36,-86.71,13.98,-27.02,-67.31,59.53,-66.32,Left Fall while Standing
26:09.8,744,739,1108.5,1000,446,1.29,772.96,2.18,49.86,446,298,149.59,296,22375,46536,596,1.02,-0.05,0,-2.67,9.68,-3.03,-2.85,-87.44,13.49,-25.23,-67.87,57.8,-64.99,Left Fall while Standing
26:09.9,661,738,1107,1000,446,1.29,772.96,2.18,49.86,446,298,149.59,296,22375,69804,894,1.01,-0.11,0.04,-3.77,16.16,5.29,-6.17,-81.1,12.79,-22.23,-66.89,55.83,-62.37,Left Fall while Standing
26:10.0,742,738,1107,1000,446,1.29,772.96,2.18,49.86,446,298,149.59,296,22375,93072,1192,1.01,-0.06,0.09,7.9,7.44,-2.01,-3.05,-81.85,14.24,-20.86,-67.26,56.08,-61.41,Left Fall while Standing
26:12.7,0,0,0,0,446,1.29,772.96,2.18,0,0,300,0,0,0,50132,602,1.02,-0.06,0.08,-0.54,-1.26,0.84,-2.91,-82.4,-4.09,-9.56,6.37,-6.39,-93.69,Right Fall while Standing
26:12.8,361,180,270,361,447,1.29,776.04,2.18,0,0,300,0,0,0,74596,902,1.01,-0.05,0.08,0.41,-1.13,0.72,-2.88,-82.68,-4.01,-9.8,6.53,-6.23,-93.71,Right Fall while Standing
26:12.9,613,324,486,613,447,1.29,776.04,2.18,0,0,297,0,0,0,97269,1199,1.02,-0.05,0.08,1.15,-2.01,-0.94,-2.58,-82.57,-3.8,-10.16,6.36,-5.96,-93.83,Right Fall while Standing
26:13.0,672,411,616.5,672,447,1.29,776.04,2.18,0,0,297,0,0,0,119942,1496,1.02,-0.04,0.07,1.29,-0.61,-0.88,-2.3,-83.47,-3.57,-10.27,6.2,-5.66,-93.73,Right Fall while Standing
26:13.1,734,476,714,734,448,1.28,779.13,2.19,0,0,297,0,0,0,142615,1793,1.02,-0.04,0.07,0.57,-0.91,0.69,-2.34,-83.59,-3.46,-10.43,6.32,-5.49,-93.69,Right Fall while Standing
26:13.2,626,501,751.5,734,448,1.28,779.13,2.19,0,0,297,0,0,0,165288,2090,1.02,-0.06,0.07,-0.57,0.8,3.38,-2.93,-82.82,-3.57,-10.29,6.92,-5.54,-93.34,Right Fall while Standing
26:13.3,647,521,781.5,734,447,1.29,776.04,2.18,0,0,297,0,0,0,187961,2387,0.99,-0.05,0.08,-3.85,1.58,6.2,-2.78,-82.38,-4.26,-10.01,8.03,-6.16,-92.84,Right Fall while Standing
26:13.4,691,543,814.5,734,447,1.29,776.04,2.18,0,0,298,0,0,0,211229,2685,1.03,-0.11,0.08,-4.17,1.09,9.44,-5.55,-79.84,-5,-9.82,9.72,-6.88,-92.39,Right Fall while Standing
26:13.5,774,568,852,774,447,1.29,776.04,2.18,58.14,447,298,153.13,298,23448,0,0,1.03,-0.12,0.09,-7.99,2.07,7.09,-6.32,-78.54,-6.42,-9.45,10.98,-8.26,-91.75,Right Fall while Standing
26:13.6,849,596,894,849,448,1.28,779.13,2.19,58.14,447,297,153.13,298,23448,22673,297,1.01,-0.15,0.1,-3.65,1.38,2.95,-7.55,-75.97,-7.08,-9.2,11.51,-8.89,-91.19,Right Fall while Standing
26:13.7,884,622,933,884,447,1.29,776.04,2.18,58.14,447,296,153.13,298,23448,44753,593,1.01,-0.17,0.1,-3.65,2.52,3.62,-8.59,-74.99,-7.74,-8.74,12.17,-9.53,-90.42,Right Fall while Standing
26:13.8,823,639,958.5,884,447,1.29,776.04,2.18,58.14,447,297,153.13,298,23448,67426,890,0.99,-0.18,0.12,-5.44,2.13,3.85,-9.35,-72.96,-8.71,-8.36,12.86,-10.48,-89.7,Right Fall while Standing
26:13.9,781,650,975,884,447,1.29,776.04,2.18,58.14,447,297,153.13,298,23448,90099,1187,1,-0.18,0.08,-8.17,-3.84,2.52,-9.71,-74.89,-10.19,-9.06,13.31,-11.92,-90.09,Right Fall while Standing
26:14.0,941,671,1006.5,941,447,1.29,776.04,2.18,58.14,447,296,153.13,298,23448,112179,1483,1.01,-0.18,0.12,-9.49,-4.33,7.59,-8.89,-73.43,-11.94,-9.86,14.71,-13.57,-90.53,Right Fall while Standing
26:14.1,825,681,1021.5,941,447,1.29,776.04,2.18,58.14,447,296,153.13,298,23448,134259,1779,1.05,-0.19,0.09,1.66,-1.26,12.35,-9.56,-75.17,-11.64,-10.09,16.96,-13.19,-90.45,Right Fall while Standing
26:14.2,961,698,1047,961,447,1.29,776.04,2.18,58.14,447,296,153.13,298,23448,156339,2075,0.99,-0.24,0.07,-11.07,-1.86,5.8,-12.79,-72.56,-13.68,-10.43,18.02,-15.18,-90.43,Right Fall while Standing
26:14.3,857,708,1062,961,447,1.29,776.04,2.18,58.14,447,296,153.13,298,23448,178419,2371,0.96,-0.29,0.1,-3.18,3.88,11.06,-15.23,-68.25,-14.27,-9.7,20.09,-15.76,-89.27,Right Fall while Standing
26:14.4,972,722,1083,972,448,1.28,779.13,2.19,58.14,447,296,153.13,298,23448,200499,2667,0.94,-0.34,0.13,-6.85,2.94,13.91,-17.85,-63.46,-15.52,-9.16,22.64,-17.03,-88.23,Right Fall while Standing
26:14.5,864,730,1095,972,447,1.29,776.04,2.18,58.14,447,296,149.19,296,22256,0,0,0.92,-0.33,0.08,-10.14,-0.59,12.4,-18.24,-65.97,-17.38,-9.27,24.91,-18.88,-87.89,Right Fall while Standing
26:14.6,870,737,1105.5,972,447,1.29,776.04,2.18,58.14,447,296,149.19,296,22256,22080,296,0.95,-0.43,0.04,11.66,-4.06,15.85,-23.73,-63.67,-15.2,-10.03,27.87,-16.84,-88.15,Right Fall while Standing
26:14.7,794,739,1108.5,972,448,1.28,779.13,2.19,58.14,447,296,149.19,296,22256,44160,592,0.93,-0.42,0.05,-4.54,-2.42,10.18,-23.35,-63.11,-16.04,-10.48,29.76,-17.8,-88.09,Right Fall while Standing
26:14.8,846,744,1116,972,447,1.29,776.04,2.18,58.14,447,296,149.19,296,22256,66240,888,0.72,-0.5,0.29,-6.1,2.31,22.73,-26.23,-42.42,-17.17,-10.05,33.97,-19.07,-86.76,Right Fall while Standing
26:14.9,734,744,1116,972,447,1.29,776.04,2.18,58.14,447,295,149.19,296,22256,87729,1183,0.87,-0.55,0.09,2.42,-5.31,20.28,-29.52,-53.65,-16.72,-11.04,37.72,-18.84,-87.06,Right Fall while Standing
26:15.0,972,753,1129.5,972,447,1.29,776.04,2.18,58.14,447,296,149.19,296,22256,109809,1479,0.75,-0.62,0.12,4.36,-3.83,31.65,-35.72,-45.49,-15.92,-11.74,43.58,-18.39,-86.92,Right Fall while Standing
26:15.1,905,759,1138.5,972,447,1.29,776.04,2.18,58.14,447,296,149.19,296,22256,131889,1775,0.79,-0.76,0.1,-12.33,-0.06,39.41,-40.67,-42.55,-18.2,-11.76,50.87,-21.07,-86.04,Right Fall while Standing
26:15.2,989,768,1152,989,448,1.28,779.13,2.19,58.14,447,298,149.19,296,22256,155157,2073,0.64,-0.65,0.03,-20.62,-5.05,34.41,-44.03,-43.4,-22.05,-12.7,57.3,-25.31,-86.12,Right Fall while Standing
26:15.3,979,776,1164,989,447,1.29,776.04,2.18,58.14,447,298,149.19,296,22256,178425,2371,0.6,-0.86,0.06,-10.11,-13.54,33.88,-52.22,-33.27,-23.93,-15.22,63.6,-27.69,-87.53,Right Fall while Standing
26:15.4,836,778,1167,989,447,1.29,776.04,2.18,58.14,447,298,149.19,296,22256,201693,2669,0.46,-0.92,0.03,3.49,-13.28,26.98,-62.13,-25.96,-23.27,-17.73,68.7,-27.73,-88.76,Right Fall while Standing
26:15.5,907,783,1174.5,989,446,1.29,772.96,2.18,57.36,447,299,150.18,296,22554,0,0,0.32,-0.91,0.06,-12.1,-8.22,22.43,-67.42,-18.45,-25.53,-19.26,72.87,-30.73,-88.85,Right Fall while Standing
26:15.6,777,782,1173,989,446,1.29,772.96,2.18,57.36,447,295,150.18,296,22554,21489,295,0.35,-0.97,0.03,-5.58,15.9,28.02,-68.82,-19.08,-26.56,-16.3,78.09,-32.51,-84.56,Right Fall while Standing
26:15.7,726,780,1170,989,446,1.29,772.96,2.18,57.36,447,295,150.18,296,22554,42978,590,0.29,-0.98,-0.01,6.6,-18.18,6.55,-73.48,-16.88,-25.33,-19.68,79.3,-32.12,-86.52,Right Fall while Standing
26:15.8,711,778,1167,989,446,1.29,772.96,2.18,57.36,447,296,150.18,296,22554,65058,886,0.23,-0.88,-0.11,-13.69,-5.81,14.61,-82.42,-16.38,-27.88,-20.76,82.02,-35.62,-86.17,Right Fall while Standing
26:15.9,704,776,1164,989,447,1.29,776.04,2.18,57.36,447,296,150.18,296,22554,87138,1182,0.23,-1.11,-0.14,-11.06,-10.8,5.01,-85.03,-13.54,-29.96,-22.79,82.96,-38.65,-86.71,Right Fall while Standing
26:16.0,612,771,1156.5,989,447,1.29,776.04,2.18,57.36,447,298,150.18,296,22554,110406,1480,0.23,-1.03,-0.1,5.84,-12.19,11.16,-82.54,-14.09,-28.86,-25.09,85.06,-38.45,-87.5,Right Fall while Standing
26:16.1,753,771,1156.5,989,447,1.29,776.04,2.18,57.36,447,298,150.18,296,22554,133674,1778,0.2,-0.92,-0.11,-0.78,-2.19,1.51,-84.34,-13.93,-29.01,-25.49,85.34,-39.51,-86.43,Right Fall while Standing
26:16.2,763,770,1155,989,446,1.29,772.96,2.18,57.36,447,299,150.18,296,22554,157539,2077,0.16,-1.08,-0.12,1.25,6.8,3.38,-87.71,-9.32,-28.77,-24.22,85.97,-40.25,-83.64,Right Fall while Standing
26:16.3,806,771,1156.5,989,447,1.29,776.04,2.18,57.36,447,301,150.18,296,22554,182604,2378,0.16,-1.04,-0.12,2.22,0.22,2.03,-87.4,-10.07,-28.37,-24.18,86.35,-40.79,-82.13,Right Fall while Standing
26:16.4,750,771,1156.5,989,446,1.29,772.96,2.18,57.36,447,300,150.18,296,22554,207068,2678,0.17,-0.99,-0.13,-1.52,-7.26,-0.94,-87.49,-11.11,-28.64,-25.51,86.17,-42,-82.02,Right Fall while Standing
26:16.5,595,766,1149,989,447,1.29,776.04,2.18,52.48,446,299,151.96,297,23092,0,0,0.16,-1.02,-0.11,-0.65,3.62,2.93,-87.02,-10.03,-28.77,-24.83,86.72,-43.02,-79.91,Right Fall while Standing
26:16.6,506,760,1140,989,447,1.29,776.04,2.18,52.48,446,298,151.96,297,23092,23268,298,0.16,-0.99,-0.12,-4.92,2.83,1.65,-87.46,-10.38,-29.68,-24.31,87.03,-44.8,-78.01,Right Fall while Standing
26:16.7,782,760,1140,989,446,1.29,772.96,2.18,52.48,446,298,151.96,297,23092,46536,596,0.12,-1.01,-0.13,-0.75,-1.23,0.95,-90.77,-7.76,-29.82,-24.54,87.2,-45.85,-76.83,Right Fall while Standing
26:16.8,697,759,1138.5,989,446,1.29,772.96,2.18,52.48,446,298,151.96,297,23092,69804,894,0.16,-1.01,-0.12,-1.14,-3.34,0.6,-87.75,-10.34,-30.03,-25.16,87.31,-46.9,-76.1,Right Fall while Standing
26:16.9,679,757,1135.5,989,447,1.29,776.04,2.18,52.48,446,298,151.96,297,23092,93072,1192,0.15,-1,-0.13,-2.28,-2.54,1.06,-89,-9.57,-30.45,-25.63,87.51,-48.15,-75.23,Right Fall while Standing
26:17.0,681,755,1132.5,989,446,1.29,772.96,2.18,52.48,446,297,151.96,297,23092,115745,1489,0.12,-1.01,-0.15,-2.62,-1.69,2.38,-91.73,-7.97,-30.93,-25.94,87.95,-49.5,-74.19,Right Fall while Standing
26:17.1,633,752,1128,989,446,1.29,772.96,2.18,52.48,446,297,151.96,297,23092,138418,1786,0.15,-0.99,-0.13,-2.72,0.55,1.82,-88.77,-9.81,-31.44,-25.84,88.29,-50.78,-72.81,Right Fall while Standing
26:17.2,638,750,1125,989,446,1.29,772.96,2.18,52.48,446,296,151.96,297,23092,160498,2082,0.15,-1.02,-0.14,-1.87,-0.51,-0.01,-89.53,-9.58,-31.78,-25.93,88.28,-51.89,-71.63,Right Fall while Standing
26:17.3,629,747,1120.5,989,446,1.29,772.96,2.18,52.48,446,296,151.96,297,23092,182578,2378,0.15,-1,-0.17,-0.65,-1.83,-1.75,-91.16,-10.08,-31.9,-26.27,87.96,-52.79,-70.74,Right Fall while Standing
26:17.4,609,744,1116,989,447,1.29,776.04,2.18,52.48,446,296,151.96,297,23092,204658,2674,0.13,-1.01,-0.14,-0.43,-3.45,-6.03,-90.9,-8.42,-31.98,-26.92,86.83,-53.64,-70.12,Right Fall while Standing
26:17.5,748,745,1117.5,989,446,1.29,772.96,2.18,50.74,446,297,150.77,297,22732,0,0,0.14,-1,-0.16,-2.05,-1.09,-4.81,-91.12,-9.43,-32.36,-27.12,85.93,-54.76,-69.11,Right Fall while Standing
26:17.6,665,743,1114.5,989,446,1.29,772.96,2.18,50.74,446,297,150.77,297,22732,22673,297,0.18,-1.01,-0.16,0.57,-6.03,-7.24,-88.64,-12.23,-32.26,-28.24,84.59,-55.33,-69.06,Right Fall while Standing
26:17.7,625,741,1111.5,989,447,1.29,776.04,2.18,50.74,446,297,150.77,297,22732,45346,594,0.2,-1.01,-0.16,-1.35,-2.47,-8.12,-87.92,-13.14,-32.51,-28.7,83.07,-56.23,-68.4,Right Fall while Standing
26:17.8,724,740,1110,989,446,1.29,772.96,2.18,50.74,446,297,150.77,297,22732,68019,891,0.2,-0.99,-0.18,-2.05,2.37,-1.98,-88.55,-13.8,-32.89,-28.25,82.7,-57.26,-66.87,Right Fall while Standing
26:17.9,600,738,1107,989,446,1.29,772.96,2.18,50.74,446,297,150.77,297,22732,90692,1188,0.23,-0.99,-0.15,-2.51,5.46,-3.01,-85.79,-15.06,-33.36,-27.23,82.14,-58.29,-64.84,Right Fall while Standing
26:18.0,689,737,1105.5,989,447,1.29,776.04,2.18,50.74,446,297,150.77,297,22732,113365,1485,0.24,-1,-0.16,-0.68,3.62,-6.96,-84.92,-16.17,-33.49,-26.56,80.85,-58.94,-63.21,Right Fall while Standing
26:18.1,621,735,1102.5,989,446,1.29,772.96,2.18,50.74,446,297,150.77,297,22732,136038,1782,0.26,-0.99,-0.19,-0.94,1.1,-6.17,-86.32,-17.8,-33.66,-26.36,79.71,-59.66,-62.1,Right Fall while Standing
26:18.2,552,731,1096.5,989,447,1.29,776.04,2.18,50.74,446,297,150.77,297,22732,158711,2079,0.28,-0.98,-0.16,-9.32,1.5,-2.64,-82.76,-19.18,-35.4,-26.08,79.22,-61.83,-60.96,Right Fall while Standing
26:18.3,655,730,1095,989,446,1.29,772.96,2.18,50.74,446,296,150.77,297,22732,180791,2375,0.38,-0.97,-0.25,-7.58,-6.25,-9.54,-82.42,-28.08,-36.81,-27.24,77.44,-63.62,-61.45,Right Fall while Standing
26:18.4,654,729,1093.5,989,447,1.29,776.04,2.18,50.74,446,296,150.77,297,22732,202871,2671,0.34,-0.97,-0.25,-5.67,-9.25,-13.43,-84.47,-25.43,-37.87,-28.96,74.95,-65.07,-62.41,Right Fall while Standing
26:18.5,704,728,1092,989,446,1.29,772.96,2.18,51.62,446,296,149.98,296,22494,0,0,0.38,-0.95,-0.3,-4.43,-5.2,-19.85,-84.87,-30.08,-38.7,-29.94,71.21,-66.29,-62.72,Right Fall while Standing
26:18.6,673,727,1090.5,989,446,1.29,772.96,2.18,51.62,446,296,149.98,296,22494,22080,296,0.45,-0.89,-0.3,6.38,-3.78,-32.04,-80.01,-37.24,-37.5,-30.65,65.19,-65.39,-62.91,Right Fall while Standing
26:18.7,590,725,1087.5,989,447,1.29,776.04,2.18,51.62,446,296,149.98,296,22494,44160,592,0.54,-0.85,-0.27,-8.8,-2.83,-35.69,-72.24,-43.16,-39.16,-31.18,58.48,-67.14,-63.04,Right Fall while Standing
26:18.8,657,724,1086,989,447,1.29,776.04,2.18,51.62,446,297,149.98,296,22494,66833,889,0.61,-0.78,-0.27,-3.98,-0.07,-44.24,-66.45,-50.62,-39.9,-31.2,50.21,-67.86,-62.8,Right Fall while Standing
26:18.9,515,721,1081.5,989,447,1.29,776.04,2.18,51.62,446,298,149.98,296,22494,90101,1187,0.7,-0.69,-0.27,-13.59,15.91,-30.99,-57.78,-58.79,-42.44,-28.22,44.41,-70.15,-59.81,Right Fall while Standing
26:19.0,685,720,1080,989,447,1.29,776.04,2.18,51.62,446,298,149.98,296,22494,113369,1485,0.83,-0.59,-0.26,-12.82,22.19,-34.33,-45.9,-67.94,-44.88,-24.01,37.89,-72.05,-55.84,Right Fall while Standing
26:19.1,588,718,1077,989,447,1.29,776.04,2.18,51.62,446,298,149.98,296,22494,136637,1783,0.88,-0.49,-0.18,-7.75,19.35,-38.07,-35.08,-70.74,-46.34,-20.35,30.69,-72.74,-52.55,Right Fall while Standing
26:19.2,670,717,1075.5,989,447,1.29,776.04,2.18,51.62,446,298,149.98,296,22494,159905,2081,0.95,-0.37,-0.2,6.71,14.66,-40.46,-26.47,-79.32,-45.07,-17.58,23.05,-70.58,-50.37,Right Fall while Standing
26:19.3,651,716,1074,989,447,1.29,776.04,2.18,51.62,446,297,149.98,296,22494,182578,2378,-0.09,-0.03,-0.17,-2.53,7.06,0.4,-156.85,145.23,-45.54,-16.27,23.12,-72.76,-45.17,Right Fall while Standing
26:19.4,792,717,1075.5,989,447,1.29,776.04,2.18,51.62,446,297,149.98,296,22494,205251,2675,0.95,-0.17,-0.08,-30.2,10.48,-33.6,-10.71,-84.71,-51.16,-14.32,16.87,-77.03,-44.05,Right Fall while Standing
26:19.5,661,717,1075.5,989,447,1.29,776.04,2.18,55.78,446,297,150.97,297,22791,0,0,0.99,-0.13,-0.11,-3.46,6.13,-9.66,-8.64,-88.8,-51.82,-13.15,15.03,-76.3,-43.81,Right Fall while Standing
26:19.6,602,715,1072.5,989,447,1.29,776.04,2.18,55.78,446,296,150.97,297,22791,22080,296,1.02,-0.11,-0.07,-7.88,0.51,-2.53,-6.54,-87.66,-53.28,-13.06,14.57,-76.34,-44.59,Right Fall while Standing
26:19.7,610,713,1069.5,989,447,1.29,776.04,2.18,55.78,446,296,150.97,297,22791,44160,592,1.02,-0.12,-0.06,0.85,-7,2.72,-7.18,-86.84,-53.12,-14.35,15.07,-74.8,-46.71,Right Fall while Standing
26:19.8,622,712,1068,989,446,1.29,772.96,2.18,55.78,446,296,150.97,297,22791,66240,888,1.03,-0.18,-0.1,4.27,-8.73,2.92,-11.17,-85.68,-52.34,-15.95,15.6,-72.76,-49.05,Right Fall while Standing
26:19.9,906,715,1072.5,989,448,1.28,779.13,2.19,55.78,446,296,150.97,297,22791,88320,1184,1,-0.13,-0.12,14.09,-4.03,4.52,-8.35,-89.75,-49.73,-16.7,16.44,-68.92,-50.6,Right Fall while Standing
26:20.0,669,714,1071,989,446,1.29,772.96,2.18,55.78,446,295,150.97,297,22791,109809,1479,1.02,-0.13,-0.13,0.45,3.41,-0.03,-8.15,-89.9,-49.65,-16.06,16.43,-67.62,-50.76,Right Fall while Standing
26:20.1,878,716,1074,989,447,1.29,776.04,2.18,55.78,446,296,150.97,297,22791,131889,1775,1,-0.17,-0.09,7.86,1.56,4.37,-10.29,-85.57,-48.21,-15.78,17.23,-65.07,-51.18,Right Fall while Standing
26:20.2,759,717,1075.5,989,447,1.29,776.04,2.18,55.78,446,295,150.97,297,22791,153378,2070,1.02,-0.16,-0.11,0.25,1.35,-5.22,-10.15,-87.24,-48.17,-15.53,16.28,-63.92,-51.66,Right Fall while Standing
26:20.3,870,719,1078.5,989,448,1.28,779.13,2.19,55.78,446,296,150.97,297,22791,175458,2366,1.03,-0.19,-0.08,-6.86,10.72,-2.75,-11.4,-84.09,-49.44,-13.54,15.77,-64.12,-50.35,Right Fall while Standing
26:20.4,843,720,1080,989,447,1.29,776.04,2.18,55.78,446,297,150.97,297,22791,198131,2663,1.01,-0.16,-0.07,-0.05,6.43,-2.12,-9.56,-84.77,-49.45,-12.33,15.37,-63.04,-49.86,Right Fall while Standing
26:20.5,750,721,1081.5,989,448,1.28,779.13,2.19,57.36,447,298,148.79,296,22138,0,0,1.02,-0.13,-0.05,0.21,3.24,-0.65,-7.65,-85.8,-49.41,-11.74,15.25,-61.9,-49.99,Right Fall while Standing
26:20.6,875,723,1084.5,989,447,1.29,776.04,2.18,57.36,447,296,148.79,296,22138,22080,296,1.01,-0.08,-0.06,-9.93,-5.05,-5.13,-4.94,-88.85,-51.24,-12.66,14.31,-62.55,-51.68,Right Fall while Standing
26:20.7,766,723,1084.5,989,446,1.29,772.96,2.18,57.36,447,297,148.79,296,22138,44753,593,1.04,-0.08,-0.04,-15.82,-10.47,-3.54,-4.71,-87.95,-54.14,-14.58,13.66,-64.23,-54.28,Right Fall while Standing
26:20.8,843,725,1087.5,989,447,1.29,776.04,2.18,57.36,447,298,148.79,296,22138,68021,891,0.99,-0.06,-0.03,-4.17,-0.25,-5.72,-3.37,-88.38,-54.91,-14.63,12.6,-63.77,-55.01,Right Fall while Standing
26:20.9,788,726,1089,989,446,1.29,772.96,2.18,57.36,447,328,148.79,296,22138,44533,1219,1,-0.05,-0.08,5.17,6.81,-7.28,-3.29,-91.69,-53.97,-13.39,11.27,-61.64,-54.53,Right Fall while Standing
26:21.0,690,725,1087.5,989,447,1.29,776.04,2.18,57.36,447,336,148.79,296,22138,26357,1555,1.02,-0.07,-0.05,7.76,2.05,-0.76,-3.88,-88.9,-52.55,-13.01,11.14,-59.1,-54.85,Right Fall while Standing
26:21.1,439,722,1083,989,429,1.38,722.22,2.1,57.36,447,794,148.79,296,22138,1433,2349,1.02,-0.07,-0.05,4.67,-0.54,1.68,-3.87,-89.34,-51.71,-13.11,11.44,-57.16,-55.64,Right Fall while Standing
26:21.2,501,719,1078.5,989,388,1.64,611.02,1.9,57.36,447,771,148.79,296,22138,6050,3120,1.02,-0.06,-0.05,3.54,-0.94,0.98,-3.42,-89.44,-51.07,-13.28,11.62,-55.47,-56.48,Right Fall while Standing
26:21.3,0,711,1066.5,989,368,1.78,561.83,1.8,57.36,447,791,148.79,296,22138,4294943667,3911,1.01,-0.05,-0.06,0.67,-0.01,-1.28,-2.84,-90.94,-50.95,-13.28,11.38,-54.29,-57.17,Right Fall while Standing
26:21.4,506,709,1063.5,989,361,1.83,545.32,1.76,57.36,447,781,148.79,296,22138,4294963804,4692,1.01,-0.06,-0.04,1.4,1.06,1.71,-3.42,-89.05,-50.7,-13.09,11.7,-53.03,-57.62,Right Fall while Standing
26:21.5,0,701,1051.5,989,358,1.86,538.35,1.75,46.7,413,775,27.02,546,729,0,0,1.03,-0.07,-0.04,0.64,1.94,-0.32,-4.01,-88.37,-50.58,-12.74,11.64,-51.93,-57.89,Right Fall while Standing
26:21.6,0,693,1039.5,989,357,1.87,536.04,1.74,46.7,413,775,27.02,546,729,10801,775,1.03,-0.06,-0.03,2.44,1.21,-0.41,-3.69,-88.23,-50.14,-12.52,11.57,-50.53,-58.28,Right Fall while Standing
26:21.7,0,685,1027.5,989,356,1.87,533.73,1.74,46.7,413,774,27.02,546,729,20053,1549,1.02,-0.06,-0.02,4.94,-0.48,0.2,-3.45,-87.9,-49.22,-12.61,11.6,-48.69,-58.96,Right Fall while Standing
26:21.8,0,678,1017,989,356,1.87,533.73,1.74,46.7,413,775,27.02,546,729,30854,2324,1.02,-0.05,-0.02,2.64,-0.87,0.96,-3.03,-88.36,-48.74,-12.77,11.78,-47.31,-59.71,Right Fall while Standing
26:21.9,0,670,1005,989,357,1.87,536.04,1.74,46.7,413,773,27.02,546,729,38559,3097,1.03,-0.07,-0.02,0.94,-1.64,1.47,-3.98,-87.29,-48.57,-13.07,12.05,-46.27,-60.55,Right Fall while Standing
26:22.0,0,663,994.5,989,356,1.87,533.73,1.74,46.7,413,775,27.02,546,729,49360,3872,1.04,-0.07,-0.01,2.74,-1.13,0.29,-3.62,-86.81,-48.06,-13.28,12.1,-44.92,-61.28,Right Fall while Standing
26:22.1,0,656,984,989,356,1.87,533.73,1.74,46.7,413,773,27.02,546,729,57065,4645,1.02,-0.06,-0.03,-0.92,1.01,0.52,-3.44,-88.6,-48.23,-13.09,12.2,-44.26,-61.64,Right Fall while Standing
26:22.2,0,649,973.5,989,356,1.87,533.73,1.74,46.7,413,773,27.02,546,729,64770,5418,1.02,-0.06,-0.03,0.22,0.11,0.96,-3.36,-88.44,-48.19,-13.07,12.37,-43.4,-62.16,Right Fall while Standing
26:27.7,438,438,657,438,361,1.83,545.32,1.76,0,0,775,0,0,0,40346,1562,1.01,-0.02,-0.07,5.77,-2.92,4.13,-1.68,-84.03,1.41,-1.09,0.9,1.29,-4.41,Forward Fall while Standing
26:27.8,453,445,667.5,453,360,1.84,542.99,1.76,0,0,774,0,0,0,49598,2336,1.03,-0.03,-0.04,0.79,0.92,4.6,-1.98,-85.65,1.54,-1.2,1.42,1.4,-4.57,Forward Fall while Standing
26:27.9,475,455,682.5,475,360,1.84,542.99,1.76,0,0,778,0,0,0,65058,3114,1.04,-0.03,-0.06,-0.05,-2.01,2.95,-2.4,-84.77,1.59,-1.58,1.78,1.43,-4.91,Forward Fall while Standing
26:28.0,501,466,699,501,360,1.84,542.99,1.76,0,0,776,0,0,0,77410,3890,1.06,-0.05,-0.05,0.31,-2.68,-1.08,-3.36,-84.56,1.68,-2.04,1.75,1.48,-5.34,Forward Fall while Standing
26:28.1,546,482,723,546,361,1.83,545.32,1.76,0,0,782,0,0,0,99110,4672,1.01,-0.03,-0.01,-0.73,17.1,0.28,-2.17,-86.71,1.66,-0.56,1.86,1.51,-4.01,Forward Fall while Standing
26:28.2,519,488,732,546,361,1.83,545.32,1.76,0,0,779,0,0,0,116127,5451,1.05,-0.05,-0.01,-3.67,1.86,-7.15,-3.38,-85.59,1.36,-0.57,1.24,1.17,-3.97,Forward Fall while Standing
26:28.3,554,498,747,554,361,1.83,545.32,1.76,0,0,775,0,0,0,126928,6226,1.03,-0.01,-0.01,-1.68,3.02,-4.6,-1.27,-87.57,1.25,-0.47,0.87,1.15,-3.96,Forward Fall while Standing
26:28.4,581,508,762,581,361,1.83,545.32,1.76,0,0,779,0,0,0,143945,7005,0.99,0,-0.07,-4.51,0.52,-5.26,-0.5,-84.24,0.86,-0.62,0.43,0.81,-3.96,Forward Fall while Standing
26:28.5,565,514,771,581,361,1.83,545.32,1.76,20724.28,360,781,128.09,778,16407,0,0,1.02,-0.01,0.03,3.12,-1.8,1.33,-1.14,-86.58,1.22,-0.99,0.64,1.13,-4.41,Forward Fall while Standing
26:28.6,582,521,781.5,582,360,1.84,542.99,1.76,20724.28,360,777,128.09,778,16407,13905,777,1.04,-0.03,-0.02,-4.94,-18.83,-2.22,-2.39,-86.33,0.79,-3.05,0.49,0.66,-6.38,Forward Fall while Standing
26:28.7,539,523,784.5,582,360,1.84,542.99,1.76,20724.28,360,778,128.09,778,16407,29365,1555,1.02,0,-0.06,-3.9,-12.6,-3.47,-0.81,-85,0.45,-4.53,0.22,0.4,-7.75,Forward Fall while Standing
26:28.8,484,519,778.5,582,360,1.84,542.99,1.76,20724.28,360,776,128.09,778,16407,41717,2331,0.98,0.01,-0.08,-0.73,-8.25,1.08,-0.04,-83.74,0.43,-5.55,0.41,0.42,-8.68,Forward Fall while Standing
26:28.9,419,512,768,582,361,1.83,545.32,1.76,20724.28,360,780,128.09,778,16407,60293,3111,1.02,-0.01,-0.07,-5.47,-6.56,-2.34,-1.09,-84.4,-0.05,-6.4,0.26,-0.09,-9.52,Forward Fall while Standing
26:29.0,440,506,759,582,362,1.83,547.66,1.77,20724.28,360,776,128.09,778,16407,72645,3887,0,0,0,-0.01,-0.01,-0.01,-35.84,36.84,0,-6.6,0.34,-1.43,-4.86,Forward Fall while Standing
26:29.1,448,502,753,582,361,1.83,545.32,1.76,20724.28,360,774,128.09,778,16407,81897,4661,1.04,-0.03,-0.08,3.7,-11.03,-3.92,-2,-84.03,0.43,-7.92,0.02,0.34,-10.96,Forward Fall while Standing
26:29.2,524,504,756,582,363,1.82,550,1.77,20724.28,360,776,128.09,778,16407,94249,5437,1.03,-0.01,-0.17,-1.69,-15.77,-4.59,-1.12,-78.98,0.32,-9.69,-0.36,0.26,-12.47,Forward Fall while Standing
26:29.3,558,507,760.5,582,362,1.83,547.66,1.77,20724.28,360,777,128.09,778,16407,108154,6214,1.02,0,-0.17,2.03,-9.58,-1.61,-0.69,-79.01,0.58,-10.86,-0.44,0.53,-13.59,Forward Fall while Standing
26:29.4,534,508,762,582,363,1.82,550,1.77,20724.28,360,773,128.09,778,16407,115859,6987,1.01,-0.01,-0.19,2.63,-5.86,-1.34,-0.87,-77.53,0.9,-11.65,-0.5,0.83,-14.29,Forward Fall while Standing
26:29.5,589,513,769.5,589,362,1.83,547.66,1.77,20724.29,361,777,113.91,776,12975,0,0,1,-0.01,-0.2,1.4,-9.6,-2.18,-1.14,-77.07,1.1,-12.8,-0.64,1.01,-15.37,Forward Fall while Standing
26:29.6,609,517,775.5,609,362,1.83,547.66,1.77,20724.29,361,775,113.91,776,12975,10801,775,1.02,0.01,-0.24,0.08,-9.05,-4.58,-0.15,-75.15,1.16,-13.91,-1.02,1.11,-16.36,Forward Fall while Standing
26:29.7,550,519,778.5,609,362,1.83,547.66,1.77,20724.29,361,781,113.91,776,12975,30938,1556,0.99,-0.01,-0.23,1.28,-9.26,-5.62,-0.88,-75.38,1.35,-15.04,-1.5,1.26,-17.45,Forward Fall while Standing
26:29.8,519,519,778.5,609,362,1.83,547.66,1.77,20724.29,361,769,113.91,776,12975,32475,2325,0.98,0,-0.24,2.34,-8,-0.21,-0.57,-74.7,1.64,-16.04,-1.44,1.55,-18.39,Forward Fall while Standing
26:29.9,540,520,780,609,362,1.83,547.66,1.77,20724.29,361,779,113.91,776,12975,49492,3104,1,0,-0.27,4.4,-11.71,-2.83,-0.74,-73.13,2.13,-17.41,-1.65,2.02,-19.64,Forward Fall while Standing
26:30.0,469,518,777,609,361,1.83,545.32,1.76,20724.29,361,777,113.91,776,12975,63397,3881,1,0.01,-0.3,2.51,-16.37,-6.22,-0.22,-72.02,2.44,-19.25,-2.19,2.33,-21.36,Forward Fall while Standing
26:30.1,388,512,768,609,361,1.83,545.32,1.76,20724.29,361,778,113.91,776,12975,78857,4659,0.99,0,-0.31,4.93,-17.98,-3.47,-0.76,-71.33,2.99,-21.25,-2.46,2.84,-23.25,Forward Fall while Standing
26:30.2,437,510,765,609,361,1.83,545.32,1.76,20724.29,361,779,113.91,776,12975,95874,5438,0.98,0.01,-0.36,5.66,-13.44,-1.47,-0.29,-68.43,3.62,-22.81,-2.53,3.46,-24.63,Forward Fall while Standing
26:30.3,506,509,763.5,609,362,1.83,547.66,1.77,20724.29,361,778,113.91,776,12975,111334,6216,0.99,0.01,-0.38,3.66,-8.84,0.27,-0.11,-67.45,4.04,-23.9,-2.42,3.88,-25.64,Forward Fall while Standing
26:30.4,708,516,774,708,362,1.83,547.66,1.77,20724.29,361,781,113.91,776,12975,131471,6997,0.99,0,-0.41,1.95,-8.23,-2.17,-0.79,-66.05,4.29,-24.91,-2.56,4.09,-26.56,Forward Fall while Standing
26:30.5,547,518,777,708,361,1.83,545.32,1.76,20724.3,361,778,121.21,777,14692,0,0,0.98,0,-0.42,0.67,-12.49,-3.89,-0.47,-65.29,4.41,-26.36,-2.87,4.22,-27.92,Forward Fall while Standing
26:30.6,500,517,775.5,708,361,1.83,545.32,1.76,20724.3,361,781,121.21,777,14692,20137,781,0.94,0.01,-0.43,-2.35,-14.37,-2.48,0.1,-63.91,4.24,-28,-3.03,4.07,-29.44,Forward Fall while Standing
26:30.7,510,517,775.5,708,361,1.83,545.32,1.76,20724.3,361,778,121.21,777,14692,35597,1559,0.94,-0.01,-0.43,1.21,-17.16,0.76,-1.03,-63.91,4.41,-29.92,-2.88,4.2,-31.28,Forward Fall while Standing
26:30.8,470,515,772.5,708,360,1.84,542.99,1.76,20724.3,361,778,121.21,777,14692,51057,2337,0.94,0,-0.5,-1.27,-18.3,0.6,-0.59,-60.29,4.34,-31.97,-2.74,4.14,-33.1,Forward Fall while Standing
26:30.9,535,516,774,708,361,1.83,545.32,1.76,20724.3,361,775,121.21,777,14692,61858,3112,0.93,0,-0.49,0.5,-18.26,-2.02,-0.43,-60.6,4.45,-33.99,-2.86,4.25,-35.06,Forward Fall while Standing
26:31.0,559,517,775.5,708,360,1.84,542.99,1.76,20724.3,361,782,121.21,777,14692,83558,3894,0.91,0,-0.53,-1.37,-15.43,-2.71,-0.85,-58.51,4.37,-35.75,-3.06,4.16,-36.66,Forward Fall while Standing
26:31.1,520,517,775.5,708,361,1.83,545.32,1.76,20724.3,361,776,121.21,777,14692,95910,4670,0.89,-0.01,-0.55,1.86,-12.17,-1.24,-1.17,-56.56,4.61,-37.17,-3.1,4.38,-37.94,Forward Fall while Standing
26:31.2,579,519,778.5,708,360,1.84,542.99,1.76,20724.3,361,779,121.21,777,14692,112927,5449,0.89,-0.01,-0.6,3.5,-13.4,-1.84,-1.02,-54.73,5.01,-38.71,-3.21,4.77,-39.35,Forward Fall while Standing
26:31.3,517,519,778.5,708,360,1.84,542.99,1.76,20724.3,361,776,121.21,777,14692,125279,6225,0.87,0,-0.62,-4.12,-14.36,0.27,-0.79,-52.98,4.65,-40.38,-3.1,4.43,-40.88,Forward Fall while Standing
26:31.4,471,517,775.5,708,360,1.84,542.99,1.76,20724.3,361,832,121.21,777,14692,96607,7057,1.22,0.07,-0.95,-14.43,-8.18,1.18,1.92,-50.39,3.26,-41.4,-2.9,3.21,-41.76,Forward Fall while Standing
26:31.5,345,513,769.5,708,359,1.85,540.66,1.75,20724.27,360,304,111.12,736,12347,0,0,0.83,-0.02,-0.53,-4.16,-11.02,1.04,-1.67,-55.53,2.91,-42.67,-2.72,2.73,-43.19,Forward Fall while Standing
26:31.6,346,509,763.5,708,359,1.85,540.66,1.75,20724.27,360,795,111.12,736,12347,4294943961,795,0.85,0,-0.63,6.26,-4.12,-1.18,-0.54,-51.93,3.61,-43.3,-2.76,3.44,-43.64,Forward Fall while Standing
26:31.7,258,503,754.5,708,361,1.83,545.32,1.76,20724.27,360,784,111.12,736,12347,1497,1579,0.82,0.01,-0.68,3.29,3,-0.27,-0.26,-48.68,3.99,-43.2,-2.71,3.82,-43.42,Forward Fall while Standing
26:31.8,339,499,748.5,708,360,1.84,542.99,1.76,20724.27,360,783,111.12,736,12347,24762,2362,0.81,0,-0.66,-2.07,0.22,2.34,-0.7,-49.39,3.84,-43.37,-2.4,3.66,-43.61,Forward Fall while Standing
26:31.9,322,495,742.5,708,360,1.84,542.99,1.76,20724.27,360,779,111.12,736,12347,41779,3141,0.84,-0.02,-0.67,1.99,2.44,4.01,-1.91,-49.87,4.1,-43.33,-1.91,3.86,-43.59,Forward Fall while Standing
26:32.0,362,492,738,708,360,1.84,542.99,1.76,20724.27,360,778,111.12,736,12347,57239,3919,0.83,-0.01,-0.67,-0.98,-1.36,1.02,-1.26,-49.29,4.06,-43.66,-1.73,3.84,-43.89,Forward Fall while Standing
26:32.1,449,491,736.5,708,360,1.84,542.99,1.76,20724.27,360,774,111.12,736,12347,66491,4693,0.82,-0.01,-0.67,-1.95,-1.88,-0.76,-1.26,-49.2,3.92,-44.05,-1.73,3.71,-44.26,Forward Fall while Standing
26:32.2,476,490,735,708,360,1.84,542.99,1.76,20724.27,360,778,111.12,736,12347,81951,5471,0.81,-0.02,-0.65,-1.98,0.76,-2.49,-1.9,-49.71,3.77,-44.18,-1.9,3.55,-44.4,Forward Fall while Standing
26:32.3,441,489,733.5,708,360,1.84,542.99,1.76,20724.27,360,779,111.12,736,12347,98968,6250,0.82,-0.03,-0.67,-2.02,0.74,-1.34,-2.46,-49.05,3.63,-44.3,-1.96,3.38,-44.49,Forward Fall while Standing
26:32.4,493,489,733.5,708,360,1.84,542.99,1.76,20724.27,360,777,111.12,736,12347,112873,7027,0.84,-0.02,-0.68,-1.89,1.84,-1.07,-1.44,-49.46,3.5,-44.32,-1.98,3.3,-44.52,Forward Fall while Standing
26:32.5,502,490,735,708,361,1.83,545.32,1.76,20724.27,360,776,111.9,780,12521,0,0,0.84,-0.01,-0.67,-2.85,-0.88,-2.13,-1.28,-49.65,3.27,-44.61,-2.12,3.08,-44.81,Forward Fall while Standing
26:32.6,506,490,735,708,361,1.83,545.32,1.76,20724.27,360,784,111.9,780,12521,24832,784,0.84,0,-0.66,-2.02,-0.28,-2.5,-0.53,-50.31,3.12,-44.83,-2.29,2.98,-45.05,Forward Fall while Standing
26:32.7,501,490,735,708,361,1.83,545.32,1.76,20724.27,360,777,111.9,780,12521,38737,1561,0.81,-0.01,-0.66,-2.01,0.18,-2.21,-1.13,-49.18,2.98,-45.02,-2.43,2.81,-45.18,Forward Fall while Standing
26:32.8,567,492,738,708,362,1.83,547.66,1.77,20724.27,360,775,111.9,780,12521,49538,2336,0.82,-0.01,-0.69,-0.69,2.22,-2.21,-0.96,-48.52,2.96,-44.99,-2.57,2.81,-45.13,Forward Fall while Standing
26:32.9,584,493,739.5,708,361,1.83,545.32,1.76,20724.27,360,776,111.9,780,12521,61890,3112,0.82,-0.01,-0.71,-3.17,11.54,-2.95,-1.21,-47.63,2.7,-44.04,-2.79,2.55,-44.18,Forward Fall while Standing
26:33.0,491,493,739.5,708,361,1.83,545.32,1.76,20724.27,360,776,111.9,780,12521,74242,3888,0.81,-0.01,-0.66,-3.45,11.07,-1.22,-1.37,-49.05,2.41,-43.12,-2.83,2.26,-43.36,Forward Fall while Standing
26:33.1,483,493,739.5,708,361,1.83,545.32,1.76,20724.27,360,775,111.9,780,12521,85043,4663,0.84,-0.01,-0.66,-1.76,10.55,0.34,-0.91,-50.17,2.29,-42.27,-2.72,2.16,-42.58,Forward Fall while Standing
26:33.2,540,494,741,708,361,1.83,545.32,1.76,20724.27,360,781,111.9,780,12521,105180,5444,0.85,0,-0.64,-4.66,10.89,-0.4,-0.37,-51.54,1.88,-41.38,-2.68,1.79,-41.79,Forward Fall while Standing
26:33.3,540,495,742.5,708,361,1.83,545.32,1.76,20724.27,360,778,111.9,780,12521,120640,6222,0.86,0,-0.61,-3.88,15.89,-0.99,-0.33,-53.26,1.54,-39.98,-2.7,1.47,-40.51,Forward Fall while Standing
26:33.4,539,495,742.5,708,361,1.83,545.32,1.76,20724.27,360,775,111.9,780,12521,131441,6997,0.89,-0.01,-0.62,-4.63,19.85,-3.76,-0.85,-53.44,1.14,-38.19,-3,1.06,-38.8,Forward Fall while Standing
26:33.5,454,495,742.5,708,361,1.83,545.32,1.76,20724.29,361,777,120.56,777,14533,0,0,0.88,0.01,-0.59,-8.27,25.21,-3.98,-0.29,-54.49,0.37,-35.89,-3.31,0.35,-36.64,Forward Fall while Standing
26:33.6,0,487,730.5,708,361,1.83,545.32,1.76,20724.29,361,783,120.56,777,14533,23265,783,0.91,0.01,-0.52,-8.08,24.92,-2.79,-0.15,-58.45,-0.39,-33.58,-3.52,-0.38,-34.57,Forward Fall while Standing
26:33.7,464,486,729,708,361,1.83,545.32,1.76,20724.29,361,771,120.56,777,14533,27882,1554,0.93,0.01,-0.52,-10.43,24.9,-1.2,0.12,-59.22,-1.37,-31.29,-3.56,-1.31,-32.41,Forward Fall while Standing
26:33.8,420,485,727.5,708,362,1.83,547.66,1.77,20724.29,361,777,120.56,777,14533,41787,2331,0.92,0.02,-0.45,-11.34,22.56,0.18,0.5,-62.54,-2.45,-29.23,-3.46,-2.33,-30.57,Forward Fall while Standing
26:33.9,505,485,727.5,708,361,1.83,545.32,1.76,20724.29,361,775,120.56,777,14533,52588,3106,0.99,0.02,-0.44,-11.73,24.54,1.06,0.26,-64.17,-3.58,-26.96,-3.27,-3.42,-28.44,Forward Fall while Standing
26:34.0,521,486,729,708,361,1.83,545.32,1.76,20724.29,361,776,120.56,777,14533,64940,3882,0.99,0.02,-0.35,-12.54,29.11,0.3,0.43,-68.84,-4.78,-24.24,-3.16,-4.57,-26.03,Forward Fall while Standing
26:34.1,461,486,729,708,361,1.83,545.32,1.76,20724.29,361,776,120.56,777,14533,77292,4658,0.97,0.01,-0.31,-10.28,25.86,-0.69,0.19,-70.92,-5.75,-21.86,-3.15,-5.51,-23.82,Forward Fall while Standing
26:34.2,515,486,729,708,361,1.83,545.32,1.76,20724.29,361,779,120.56,777,14533,94309,5437,1,0,-0.28,-7.01,25.84,1.2,-0.61,-72.6,-6.41,-19.43,-2.95,-6.17,-21.55,Forward Fall while Standing
26:34.3,616,488,732,708,362,1.83,547.66,1.77,20724.29,361,777,120.56,777,14533,108214,6214,1.01,0,-0.24,-2.97,18.2,1.5,-0.4,-75.19,-6.65,-17.81,-2.72,-6.4,-20.1,Forward Fall while Standing
26:34.4,396,487,730.5,708,361,1.83,545.32,1.76,20724.29,361,775,120.56,777,14533,119015,6989,1.03,0,-0.2,-1.07,25.02,2.71,-0.7,-77.44,-6.7,-15.5,-2.37,-6.46,-17.98,Forward Fall while Standing
26:34.5,330,484,726,708,361,1.83,545.32,1.76,20724.29,361,774,113.25,776,12825,0,0,1.01,-0.01,-0.1,-8.24,26.69,-1.34,-1.05,-82.65,-7.47,-13.01,-2.43,-7.22,-15.8,Forward Fall while Standing
26:34.6,394,483,724.5,708,361,1.83,545.32,1.76,20724.29,361,775,113.25,776,12825,10801,775,1,0,-0.07,-3.38,21.53,-8.44,-0.45,-84.31,-7.75,-11.06,-3.19,-7.46,-13.99,Forward Fall while Standing
26:34.7,375,481,721.5,708,361,1.83,545.32,1.76,20724.29,361,773,113.25,776,12825,18506,1548,1.01,0.02,-0.14,-8.62,12.24,-9.11,0.61,-80.47,-8.56,-10.03,-4.03,-8.19,-12.85,Forward Fall while Standing
26:34.8,438,481,721.5,708,361,1.83,545.32,1.76,20724.29,361,777,113.25,776,12825,32411,2325,0.97,0.03,-0.13,-13.4,-0.87,-10.11,1.16,-80.72,-9.86,-10.32,-4.97,-9.42,-13.14,Forward Fall while Standing
26:34.9,417,480,720,708,362,1.83,547.66,1.77,20724.29,361,775,113.25,776,12825,43212,3100,0.98,0.04,-0.05,-21.6,16.59,-3.3,1.86,-84.55,-11.98,-8.85,-5.22,-11.43,-11.88,Forward Fall while Standing
26:35.0,254,477,715.5,708,362,1.83,547.66,1.77,20724.29,361,783,113.25,776,12825,66477,3883,1.04,0.03,-0.01,-21.46,-5.85,-3.85,1.09,-86.59,-14.09,-9.64,-5.53,-13.49,-12.72,Forward Fall while Standing
26:35.1,708,480,720,708,363,1.82,550,1.77,20724.29,361,778,113.25,776,12825,81937,4661,1.01,0.04,-0.01,-17.44,9.92,-7.98,1.5,-86.32,-15.8,-8.84,-6.26,-15.11,-11.94,Forward Fall while Standing
26:35.2,702,483,724.5,708,363,1.82,550,1.77,20724.29,361,775,113.25,776,12825,92738,5436,0.94,0.04,0.03,-8.77,-1.78,-3.66,1.57,-85.74,-16.62,-9.22,-6.54,-15.89,-12.28,Forward Fall while Standing
26:35.3,631,485,727.5,708,363,1.82,550,1.77,20724.29,361,782,113.25,776,12825,114438,6218,0.91,0.09,-0.02,-7.05,-3.45,7.03,4.84,-82.86,-17.28,-9.77,-5.75,-16.39,-12.69,Forward Fall while Standing
26:35.4,644,487,730.5,708,365,1.8,554.71,1.78,20724.29,361,782,113.25,776,12825,136138,7000,1.02,0.03,-0.01,-13.86,22.71,2.42,1.27,-86.52,-18.61,-7.7,-5.43,-17.81,-10.85,Forward Fall while Standing
26:35.5,684,489,733.5,708,364,1.81,552.35,1.78,18.3,362,780,124.38,778,15470,0,0,1.05,0.05,0.05,-19.82,4.61,-6.31,1.93,-84.87,-20.51,-7.44,-5.98,-19.61,-10.54,Forward Fall while Standing
26:35.6,607,491,736.5,708,364,1.81,552.35,1.78,18.3,362,775,124.38,778,15470,10801,775,1,0.04,0.03,-16.57,-3.11,-10.87,1.78,-85.38,-22.11,-7.95,-6.99,-21.16,-11.05,Forward Fall while Standing
26:35.7,677,493,739.5,708,364,1.81,552.35,1.78,18.3,362,777,124.38,778,15470,24706,1552,1,0.08,0.05,-10.07,-10.55,-5.73,4.12,-82.96,-23.06,-9.21,-7.48,-21.98,-12.16,Forward Fall while Standing
26:35.8,542,494,741,708,363,1.82,550,1.77,18.3,362,775,124.38,778,15470,35507,2327,0.99,0.08,0.06,-1.91,-9.95,1.31,4.22,-82.65,-23.2,-10.4,-7.27,-22.1,-13.29,Forward Fall while Standing
26:35.9,507,494,741,708,362,1.83,547.66,1.77,18.3,362,779,124.38,778,15470,52524,3106,1.04,0.07,0.02,-0.8,-0.35,2.16,3.07,-84.58,-23.22,-10.64,-6.97,-22.17,-13.6,Forward Fall while Standing
26:36.0,569,495,742.5,708,363,1.82,550,1.77,18.3,362,783,124.38,778,15470,75789,3889,1.02,0.05,-0.01,-2.88,2.73,0.17,2.41,-85.35,-23.46,-10.57,-6.88,-22.42,-13.56,Forward Fall while Standing
26:36.1,539,495,742.5,708,363,1.82,550,1.77,18.3,362,783,124.38,778,15470,99054,4672,1.01,0.07,-0.02,-6.28,1.2,-0.08,3.45,-84.16,-24.02,-10.65,-6.81,-22.92,-13.59,Forward Fall while Standing
26:36.2,524,496,744,708,362,1.83,547.66,1.77,18.3,362,777,124.38,778,15470,112959,5449,1.04,0.05,-0.02,-3.12,-3.15,-1.88,2.09,-85.53,-24.28,-11.17,-6.92,-23.23,-14.14,Forward Fall while Standing
26:36.3,426,495,742.5,708,363,1.82,550,1.77,18.3,362,782,124.38,778,15470,134659,6231,1.03,0.06,-0.05,-1.72,-0.5,-5.15,2.75,-84.17,-24.4,-11.42,-7.35,-23.31,-14.33,Forward Fall while Standing
26:36.4,522,495,742.5,708,361,1.83,545.32,1.76,18.3,362,779,124.38,778,15470,151676,7010,1.01,0.07,-0.06,0.24,0.99,-2.86,3.16,-83.52,-24.32,-11.52,-7.56,-23.22,-14.4,Forward Fall while Standing
26:36.5,439,494,741,708,362,1.83,547.66,1.77,21.91,362,780,130.48,779,17024,0,0,1.01,0.07,-0.04,-0.87,-1.08,0.32,3.31,-83.99,-24.35,-11.83,-7.45,-23.24,-14.71,Forward Fall while Standing
26:36.6,504,495,742.5,708,361,1.83,545.32,1.76,21.91,362,778,130.48,779,17024,15460,778,1.02,0.07,-0.04,-4.02,0.35,-0.23,3.16,-84.09,-24.69,-11.99,-7.39,-23.57,-14.87,Forward Fall while Standing
26:36.7,496,495,742.5,708,361,1.83,545.32,1.76,21.91,362,776,130.48,779,17024,27812,1554,1,0.08,-0.04,-4.4,3.25,-0.4,3.8,-83.38,-25.07,-11.86,-7.35,-23.92,-14.72,Forward Fall while Standing
26:36.8,493,495,742.5,708,361,1.83,545.32,1.76,21.91,362,777,130.48,779,17024,41717,2331,1.02,0.06,-0.02,1.63,-0.68,1.3,3.07,-84.59,-24.85,-12.13,-7.14,-23.73,-15.03,Forward Fall while Standing
26:36.9,93,490,735,708,361,1.83,545.32,1.76,21.91,362,783,130.48,779,17024,64982,3114,1.01,0.05,0.01,-0.14,0.7,1.52,2.54,-85.26,-24.81,-12.26,-6.91,-23.72,-15.18,Forward Fall while Standing
26:37.0,587,491,736.5,708,361,1.83,545.32,1.76,21.91,362,778,130.48,779,17024,80442,3892,1.02,0.05,0,-1.78,-0.37,1.1,2.49,-85.33,-24.93,-12.5,-6.73,-23.83,-15.41,Forward Fall while Standing
26:37.1,543,492,738,708,362,1.83,547.66,1.77,21.91,362,783,130.48,779,17024,103707,4675,1.01,0.06,-0.04,-4.08,-2.44,1.18,3.05,-84.06,-25.29,-12.95,-6.53,-24.15,-15.79,Forward Fall while Standing
26:37.2,554,492,738,708,362,1.83,547.66,1.77,21.91,362,773,130.48,779,17024,111412,5448,0.99,0.07,-0.06,-6.34,0.18,-0.8,3.42,-83.05,-25.86,-13.13,-6.53,-24.69,-15.93,Forward Fall while Standing
26:57.8,555,555,832.5,555,351,1.91,522.32,1.72,0,0,774,0,0,0,26269,1553,1.03,-0.01,0.04,4.84,-0.31,-9.54,-1.07,-85.95,1.48,-1.06,-0.91,1.37,-4.45,Sitting
26:57.9,523,539,808.5,555,351,1.91,522.32,1.72,0,0,776,0,0,0,38621,2329,1.01,-0.02,0.02,6.64,4.03,-6.53,-1.71,-86.61,2.18,-0.86,-1.47,2.03,-4.29,Sitting
26:58.0,580,552,828,580,351,1.91,522.32,1.72,0,0,777,0,0,0,52526,3106,0.99,0,0.02,7.79,3.18,-4.5,-0.54,-87.35,2.99,-0.74,-1.83,2.85,-4.21,Sitting
26:58.1,623,570,855,623,351,1.91,522.32,1.72,0,0,779,0,0,0,69543,3885,1.12,0.01,-0.01,8.23,-1.57,-1.79,-0.05,-87.69,3.84,-1.09,-1.93,3.68,-4.55,Sitting
26:58.2,0,456,684,623,351,1.91,522.32,1.72,0,0,784,0,0,0,94375,4669,1.02,0,0.04,6.08,3.63,-0.11,-0.32,-86.18,4.49,-0.93,-1.86,4.29,-4.34,Sitting
26:58.3,423,450,675,623,351,1.91,522.32,1.72,0,0,777,0,0,0,108280,5446,1.02,0.06,0.04,-6.21,12.08,-0.16,2.71,-84.38,3.94,0.05,-1.8,3.89,-3.33,Sitting
26:58.4,401,443,664.5,623,351,1.91,522.32,1.72,0,0,775,0,0,0,119081,6221,0.93,0.03,0.15,-1.39,0.52,-2.59,1.26,-79.04,3.86,-0.09,-1.97,3.75,-3.25,Sitting
26:58.5,473,447,670.5,623,351,1.91,522.32,1.72,0,0,787,0,0,0,148626,7008,0.98,0.01,0.06,1.73,8.55,-5.06,0.22,-84.69,4.08,0.55,-2.39,3.93,-2.86,Sitting
26:58.6,522,455,682.5,623,351,1.91,522.32,1.72,20724.11,351,781,129.91,778,16875,0,0,0.93,0.03,0,-3.89,-14.79,-5.99,1.02,-86.81,3.76,-1.1,-2.9,3.65,-4.53,Sitting
26:58.7,541,464,696,623,352,1.91,524.59,1.72,20724.11,351,788,129.91,778,16875,31120,788,0.94,0.04,-0.01,-5.66,3.7,-2.69,1.98,-85.72,3.25,-0.93,-3.09,3.2,-4.32,Sitting
26:58.8,747,489,733.5,747,351,1.91,522.32,1.72,20724.11,351,778,129.91,778,16875,46580,1566,0.97,0.03,0.06,-9.3,-14.1,-2.02,1.37,-84.3,2.39,-2.52,-3.21,2.35,-5.79,Sitting
26:58.9,565,496,744,747,351,1.91,522.32,1.72,20724.11,351,775,129.91,778,16875,57381,2341,0.98,0.03,0.09,-6.59,-2.94,0.67,1.27,-83.1,1.78,-3.02,-3.06,1.76,-6.22,Sitting
26:59.0,523,498,747,747,352,1.91,524.59,1.72,20724.11,351,777,129.91,778,16875,71286,3118,1.05,0.03,0.09,-3.26,0.27,-3.46,1.12,-83.41,1.51,-3.19,-3.33,1.5,-6.4,Sitting
26:59.1,537,500,750,747,352,1.91,524.59,1.72,20724.11,351,778,129.91,778,16875,86746,3896,1.03,0.03,0.08,-0.41,-0.47,-1.02,0.94,-83.83,1.53,-3.44,-3.35,1.5,-6.65,Sitting
26:59.2,502,501,751.5,747,351,1.91,522.32,1.72,20724.11,351,778,129.91,778,16875,102206,4674,0.98,0.02,0.06,3.73,-8.03,-1.63,0.86,-84.42,1.96,-4.45,-3.44,1.91,-7.65,Sitting
26:59.3,536,503,754.5,747,351,1.91,522.32,1.72,20724.11,351,779,129.91,778,16875,119223,5453,1,0.03,0.03,1.01,-2.18,3.84,1.27,-85.85,2.11,-4.86,-2.98,2.08,-8.1,Sitting
26:59.4,572,507,760.5,747,352,1.91,524.59,1.72,20724.11,351,781,129.91,778,16875,139360,6234,1.05,0.04,0.05,0.24,1.03,3.97,1.85,-84.83,2.19,-4.96,-2.51,2.18,-8.15,Sitting
26:59.5,512,507,760.5,747,352,1.91,524.59,1.72,20724.11,351,781,129.91,778,16875,159497,7015,1.04,0.03,0.03,-2.6,0.06,-3.02,1.04,-86.01,1.99,-5.15,-2.73,1.95,-8.39,Sitting
26:59.6,500,507,760.5,747,352,1.91,524.59,1.72,20724.12,351,775,130.5,779,17028,0,0,1.01,0.02,0.06,-4.57,1.85,-2.78,0.79,-84.94,1.6,-5.17,-2.93,1.56,-8.36,Sitting
26:59.7,518,507,760.5,747,352,1.91,524.59,1.72,20724.12,351,774,130.5,779,17028,9252,774,1.01,0.03,0.06,-4.72,0.65,-1.92,1.06,-84.57,1.18,-5.3,-3.04,1.18,-8.47,Sitting
26:59.8,493,506,759,747,353,1.9,526.87,1.73,20724.12,351,778,130.5,779,17028,24712,1552,1.01,0.05,0.05,-5.15,-0.93,-1.92,2.34,-84.25,0.73,-5.6,-3.15,0.79,-8.74,Sitting
26:59.9,141,490,735,747,352,1.91,524.59,1.72,20724.12,351,776,130.5,779,17028,37064,2328,1.01,0.04,0.03,-3.81,0.79,-3.01,1.8,-85.59,0.4,-5.72,-3.37,0.46,-8.91,Sitting
27:00.0,538,492,738,747,352,1.91,524.59,1.72,20724.12,351,778,130.5,779,17028,52524,3106,1,0.06,0.04,-4.53,1.05,-3.16,2.72,-84.53,0.01,-5.81,-3.6,0.12,-8.96,Sitting
27:00.1,491,492,738,747,352,1.91,524.59,1.72,20724.12,351,788,130.5,779,17028,83644,3894,1.01,0.04,0.05,-0.9,2.18,-1.66,1.93,-84.6,-0.02,-5.79,-3.69,0.05,-8.94,Sitting
27:00.2,537,494,741,747,352,1.91,524.59,1.72,20724.12,351,782,130.5,779,17028,105344,4676,1.01,0.05,0.02,-2.06,-6.94,-4.21,2.09,-85.52,-0.17,-6.69,-4.03,-0.08,-9.84,Sitting
27:00.3,534,495,742.5,747,352,1.91,524.59,1.72,20724.12,351,778,130.5,779,17028,120804,5454,1.01,0.05,-0.01,-0.12,3.42,-2.42,2.29,-85.51,-0.13,-6.54,-4.2,-0.03,-9.7,Sitting
27:00.4,549,497,745.5,747,353,1.9,526.87,1.73,20724.12,351,778,130.5,779,17028,136264,6232,1.02,0.05,0.01,-1.06,2.4,-2.19,2.25,-85.52,-0.18,-6.5,-4.34,-0.08,-9.66,Sitting
27:00.5,593,501,751.5,747,352,1.91,524.59,1.72,20724.12,351,778,130.5,779,17028,151724,7010,1.04,0.05,0,-4.21,1.33,-3.76,2.1,-85.74,-0.55,-6.57,-4.63,-0.44,-9.74,Sitting
27:00.6,526,501,751.5,747,353,1.9,526.87,1.73,20724.14,352,792,111.18,780,12361,0,0,1.01,0.05,0.02,-2.58,3.09,-0.64,2.16,-85.53,-0.74,-6.46,-4.62,-0.63,-9.63,Sitting
27:00.7,511,502,753,747,353,1.9,526.87,1.73,20724.14,352,777,111.18,780,12361,13905,777,1.02,0.05,0.02,-1.73,2.84,-0.42,2.2,-85.34,-0.86,-6.38,-4.58,-0.74,-9.54,Sitting
27:00.8,529,503,754.5,747,353,1.9,526.87,1.73,20724.14,352,775,111.18,780,12361,24706,1552,1.02,0.05,0.05,-1.77,-0.4,-1.89,2.2,-84.46,-0.98,-6.62,-4.69,-0.85,-9.73,Sitting
27:00.9,504,503,754.5,747,353,1.9,526.87,1.73,20724.14,352,776,111.18,780,12361,37058,2328,1.01,0.05,0.03,-1.37,1.79,-1.69,2.22,-85.25,-1.06,-6.64,-4.78,-0.93,-9.78,Sitting
27:01.0,111,491,736.5,747,352,1.91,524.59,1.72,20724.14,352,777,111.18,780,12361,50963,3105,1.01,0.05,0.02,-2.48,1.05,-0.92,2.4,-85.18,-1.25,-6.73,-4.79,-1.11,-9.87,Sitting
27:01.1,552,493,739.5,747,353,1.9,526.87,1.73,20724.14,352,779,111.18,780,12361,67980,3884,1.02,0.06,0.04,-2.43,1.72,-1.92,2.6,-84.51,-1.44,-6.76,-4.91,-1.28,-9.87,Sitting
27:01.2,487,492,738,747,353,1.9,526.87,1.73,20724.14,352,778,111.18,780,12361,83440,4662,1.02,0.06,0.06,-1.5,3.15,-1.95,2.66,-83.91,-1.54,-6.65,-5.02,-1.37,-9.74,Sitting
27:01.3,529,493,739.5,747,353,1.9,526.87,1.73,20724.14,352,779,111.18,780,12361,100457,5441,1.01,0.05,0.05,-1.99,0.21,-1.44,2.32,-84.49,-1.68,-6.83,-5.09,-1.52,-9.93,Sitting
27:01.4,520,494,741,747,353,1.9,526.87,1.73,20724.14,352,777,111.18,780,12361,114362,6218,1.01,0.07,0.05,-2.05,0.39,-0.56,3.3,-83.69,-1.83,-6.99,-5.07,-1.62,-10.06,Sitting
27:01.5,540,495,742.5,747,353,1.9,526.87,1.73,20724.14,352,780,111.18,780,12361,132938,6998,1.03,0.06,0.03,-0.54,0.92,-1.22,2.52,-84.78,-1.83,-7.1,-5.11,-1.65,-10.2,Sitting
27:01.6,601,498,747,747,354,1.89,529.15,1.73,20724.15,353,777,121.18,777,14683,0,0,1.01,0.06,0.04,0.27,0.23,-1.11,2.9,-84.19,-1.74,-7.27,-5.14,-1.56,-10.35,Sitting
27:01.7,533,499,748.5,747,354,1.89,529.15,1.73,20724.15,353,773,121.18,777,14683,7705,773,1.02,0.05,0.03,0.26,-0.37,-0.1,2.46,-84.81,-1.66,-7.51,-5.07,-1.5,-10.6,Sitting
27:01.8,510,499,748.5,747,354,1.89,529.15,1.73,20724.15,353,778,121.18,777,14683,23165,1551,1.01,0.05,0.03,-1.38,0.01,-1.73,2.34,-85.02,-1.74,-7.7,-5.17,-1.58,-10.8,Sitting
27:01.9,523,500,750,747,354,1.89,529.15,1.73,20724.15,353,777,121.18,777,14683,37070,2328,1.01,0.06,0.03,-2.68,-0.27,-1.81,2.92,-84.41,-1.96,-7.93,-5.27,-1.76,-10.99,Sitting
27:02.0,459,499,748.5,747,354,1.89,529.15,1.73,20724.15,353,778,121.18,777,14683,52530,3106,1,0.06,0.04,-3.46,0.44,-0.73,2.83,-84.26,-2.25,-8.09,-5.26,-2.04,-11.14,Sitting
27:02.1,448,498,747,747,354,1.89,529.15,1.73,20724.15,353,769,121.18,777,14683,54067,3875,1.01,0.06,0.04,-3.05,0.43,-1.46,2.97,-84.26,-2.5,-8.25,-5.33,-2.28,-11.29,Sitting
27:02.2,538,498,747,747,354,1.89,529.15,1.73,20724.15,353,777,121.18,777,14683,67972,4652,1.01,0.05,0.03,-3.24,0.55,-1.24,2.32,-85.07,-2.76,-8.39,-5.37,-2.56,-11.46,Sitting
27:02.3,485,498,747,747,354,1.89,529.15,1.73,20724.15,353,777,121.18,777,14683,81877,5429,1.02,0.07,0.01,-5.54,0.33,-3.18,3.14,-84.66,-3.26,-8.56,-5.61,-3,-11.6,Sitting
27:02.4,525,499,748.5,747,354,1.89,529.15,1.73,20724.15,353,777,121.18,777,14683,95782,6206,1,0.06,0.01,-4.22,1.66,-1.47,3.05,-84.74,-3.63,-8.59,-5.68,-3.36,-11.64,Sitting
27:02.5,522,499,748.5,747,355,1.88,531.44,1.74,20724.15,353,779,121.18,777,14683,112799,6985,1.03,0.06,0.03,-3.42,2.6,-2.84,2.99,-84.45,-3.91,-8.53,-5.88,-3.64,-11.57,Sitting
27:02.6,535,500,750,747,354,1.89,529.15,1.73,20724.17,354,776,111.87,776,12514,0,0,1.01,0.07,0.03,-2.07,0.28,-1.58,3.33,-84.14,-4.06,-8.7,-5.96,-3.77,-11.72,Sitting
27:02.7,659,503,754.5,747,354,1.89,529.15,1.73,20724.17,354,779,111.87,776,12514,17017,779,1.03,0.05,0.02,-1.37,2.4,-1.36,2.28,-85.28,-4.14,-8.66,-6.02,-3.89,-11.73,Sitting
27:02.8,551,504,756,747,355,1.88,531.44,1.74,20724.17,354,775,111.87,776,12514,27818,1554,1,0.07,0.04,-1.23,1.7,-1.29,3.14,-84.05,-4.21,-8.69,-6.07,-3.92,-11.7,Sitting
27:02.9,506,504,756,747,354,1.89,529.15,1.73,20724.17,354,776,111.87,776,12514,40170,2330,1.01,0.07,0.05,-1.5,0.5,-0.64,3.46,-83.47,-4.3,-8.84,-6.05,-3.99,-11.83,Sitting
27:03.0,532,505,757.5,747,354,1.89,529.15,1.73,20724.17,354,775,111.87,776,12514,50971,3105,1.01,0.06,0.04,0.17,0.08,-1.25,2.86,-84.29,-4.23,-9.03,-6.1,-3.95,-12.04,Sitting
27:03.0,517,505,757.5,747,355,1.88,531.44,1.74,20724.17,354,774,111.87,776,12514,60223,3879,1,0.06,0.03,-0.19,0.15,-1.36,2.84,-84.6,-4.19,-9.22,-6.16,-3.91,-12.23,Sitting
27:03.2,531,505,757.5,747,354,1.89,529.15,1.73,20724.17,354,775,111.87,776,12514,71024,4654,1.02,0.07,0.02,-3.26,2.02,0.65,3.2,-84.54,-4.46,-9.22,-6.01,-4.16,-12.23,Sitting
27:03.2,585,507,760.5,747,355,1.88,531.44,1.74,20724.17,354,780,111.87,776,12514,89600,5434,1.02,0.06,0.05,-2.79,2.37,-1,2.53,-84.21,-4.69,-9.18,-6.03,-4.4,-12.18,Sitting
27:03.4,516,507,760.5,747,354,1.89,529.15,1.73,20724.17,354,773,111.87,776,12514,97305,6207,1.02,0.07,0.03,-2.31,0.29,-2.6,3.26,-84.33,-4.86,-9.35,-6.21,-4.54,-12.35,Sitting
27:03.5,487,506,759,747,354,1.89,529.15,1.73,20724.17,354,775,111.87,776,12514,108106,6982,1.01,0.07,0.01,-1.41,1.59,-0.88,3.28,-84.55,-4.95,-9.39,-6.22,-4.62,-12.4,Sitting
27:03.6,525,507,760.5,747,354,1.89,529.15,1.73,20724.17,354,779,111.86,776,12511,0,0,1.02,0.06,0.04,-0.37,1.41,1.54,2.79,-84.44,-4.93,-9.45,-5.99,-4.62,-12.45,Sitting
27:03.7,500,507,760.5,747,354,1.89,529.15,1.73,20724.17,354,781,111.86,776,12511,20137,781,1.01,0.06,0.06,0.6,0.79,0.37,3.08,-83.34,-4.81,-9.57,-5.88,-4.5,-12.52,Sitting
27:03.7,535,507,760.5,747,354,1.89,529.15,1.73,20724.17,354,777,111.86,776,12511,34042,1558,1,0.07,0.06,-0.48,-0.35,-0.87,3.32,-83.32,-4.8,-9.8,-5.89,-4.48,-12.74,Sitting
27:03.8,571,508,762,747,355,1.88,531.44,1.74,20724.17,354,770,111.86,776,12511,37118,2328,1.01,0.06,0.04,-1.57,-1.77,-1.47,2.87,-84.42,-4.91,-10.18,-5.95,-4.59,-13.15,Sitting
27:04.0,514,508,762,747,354,1.89,529.15,1.73,20724.17,354,775,111.86,776,12511,47919,3103,1,0.07,0.03,-3.12,-1.83,-1.79,3.15,-84.39,-5.16,-10.56,-6.05,-4.83,-13.52,Sitting
27:04.0,513,508,762,747,354,1.89,529.15,1.73,20724.17,354,779,111.86,776,12511,64936,3882,1.02,0.06,0.01,-3.33,0.72,-1.2,2.84,-84.93,-5.44,-10.69,-6.09,-5.11,-13.66,Sitting
27:04.2,534,509,763.5,747,354,1.89,529.15,1.73,20724.17,354,776,111.86,776,12511,77288,4658,1.01,0.07,0.02,-3.17,2,-0.9,3.25,-84.34,-5.7,-10.69,-6.11,-5.34,-13.64,Sitting
27:04.2,513,509,763.5,747,354,1.89,529.15,1.73,20724.17,354,776,111.86,776,12511,89640,5434,1.01,0.05,0.03,-2.78,1.54,-0.54,2.45,-84.99,-5.92,-10.74,-6.08,-5.59,-13.71,Sitting
27:04.4,541,509,763.5,747,354,1.89,529.15,1.73,20724.17,354,775,111.86,776,12511,100441,6209,1.01,0.07,0.02,-2.29,1.79,-0.92,3.2,-84.41,-6.1,-10.76,-6.09,-5.72,-13.71,Sitting
27:04.5,556,510,765,747,354,1.89,529.15,1.73,20724.17,354,775,111.86,776,12511,111242,6984,1.02,0.06,0.05,0.74,1.87,-0.46,2.54,-84.21,-5.97,-10.77,-6.06,-5.62,-13.71,Sitting
27:04.6,490,510,765,747,354,1.89,529.15,1.73,20724.17,354,777,111.87,776,12513,0,0,1,0.06,0.04,-0.11,0.17,-1.68,2.81,-84.2,-5.92,-10.95,-6.15,-5.57,-13.88,Sitting
27:04.6,507,510,765,747,354,1.89,529.15,1.73,20724.17,354,777,111.87,776,12513,13905,777,1.02,0.06,0.05,-1.91,-0.2,0.1,2.86,-84.09,-6.06,-11.17,-6.06,-5.7,-14.09,Sitting
27:04.7,508,509,763.5,747,354,1.89,529.15,1.73,20724.17,354,774,111.87,776,12513,23157,1551,1,0.07,0.05,-3.72,-1.57,-0.83,3.21,-83.77,-6.37,-11.53,-6.06,-5.99,-14.42,Sitting
27:04.9,493,509,763.5,747,354,1.89,529.15,1.73,20724.17,354,778,111.87,776,12513,38617,2329,1.01,0.06,0.05,-4.56,-3.4,-2.26,2.99,-84.03,-6.77,-12.07,-6.21,-6.38,-14.95,Sitting
27:04.9,545,510,765,747,355,1.88,531.44,1.74,20724.17,354,767,111.87,776,12513,37082,3096,0.99,0.06,0.04,-2.92,2.53,-0.6,2.89,-84.14,-7.01,-12.01,-6.19,-6.61,-14.9,Sitting
27:05.1,548,510,765,747,354,1.89,529.15,1.73,20724.17,354,773,111.87,776,12513,44787,3869,1.01,0.05,0.04,-2.18,0.83,-0.55,2.39,-84.52,-7.17,-12.13,-6.16,-6.79,-15.03,Sitting
27:05.2,497,510,765,747,354,1.89,529.15,1.73,20724.17,354,773,111.87,776,12513,52492,4642,1,0.06,0.03,-3.4,-0.05,-1.37,2.9,-84.59,-7.46,-12.34,-6.22,-7.04,-15.23,Sitting
27:05.3,539,510,765,747,354,1.89,529.15,1.73,20724.17,354,779,111.87,776,12513,69509,5421,1,0.06,0.02,-4.47,-0.33,-3.27,3.05,-84.6,-7.85,-12.57,-6.47,-7.41,-15.45,Sitting
27:05.4,543,511,766.5,747,354,1.89,529.15,1.73,20724.17,354,778,111.87,776,12513,84969,6199,1,0.06,0.04,-1.59,2.73,-1.66,3.08,-84.03,-7.95,-12.49,-6.56,-7.51,-15.36,Sitting
27:12.6,1001,1001,1501.5,1001,367,1.79,559.45,1.79,0,0,301,0,0,0,57498,614,1,-0.07,0.18,-48.72,13.76,-4.38,-3.47,-75.64,-369.45,104.38,-33.2,-362.13,100.78,Left Fall while Sitting
27:12.7,1001,1001,1501.5,1001,359,1.85,540.66,1.75,0,0,298,0,0,0,80766,912,0.97,-0.08,0.18,-8.68,-6.33,13.64,-3.84,-75.16,-371.44,102.93,-30.07,-356.91,95.84,Left Fall while Sitting
27:12.8,1001,1001,1501.5,1001,354,1.89,529.15,1.73,0,0,305,0,0,0,108255,1217,1.03,-0.13,0.16,15.28,-9.82,-7.95,-6.22,-74.33,-368.58,101.09,-31.56,-347.1,90.63,Left Fall while Sitting
27:12.9,1002,1001,1501.5,1002,353,1.9,526.87,1.73,0,0,297,0,0,0,130928,1514,1.02,-0.07,0.09,14.88,-13.14,-46.99,-3.69,-80.79,-365.8,98.63,-40.35,-337.5,84.8,Left Fall while Sitting
27:13.0,455,892,1338,1002,351,1.91,522.32,1.72,0,0,867,0,0,0,161721,2381,1.01,0.03,0.12,18.65,-6.05,-44.71,1.32,-81.71,-362.25,97.48,-48.84,-327.25,80.34,Left Fall while Sitting
27:13.1,588,841,1261.5,1002,360,1.84,542.99,1.76,0,0,885,0,0,0,158514,3266,1.02,0.12,0.13,31.13,1.38,-33.32,5.87,-76.42,-356.46,97.74,-55.04,-314.92,77.46,Left Fall while Sitting
27:13.2,549,799,1198.5,1002,354,1.89,529.15,1.73,0,0,296,0,0,0,180594,3562,0.99,0.18,0.09,5.83,1.64,-28.64,9.71,-74.33,-355.39,98.04,-60.34,-307.37,74.72,Left Fall while Sitting
27:13.3,546,767,1150.5,1002,351,1.91,522.32,1.72,0,0,343,0,0,0,167171,3905,1,0.19,0.13,-2.78,6.7,-28.16,9.73,-72.22,-355.89,99.27,-65.49,-301.52,72.98,Left Fall while Sitting
27:13.4,503,738,1107,1002,351,1.91,522.32,1.72,20724.24,358,833,118.39,473,14015,0,0,0.98,0.26,0.14,-13.61,12.96,-35.25,13.04,-67.93,-358.41,101.67,-72.01,-297.7,72.51,Left Fall while Sitting
27:13.5,122,676,1014,1002,357,1.87,536.04,1.74,20724.24,358,836,118.39,473,14015,4294945296,836,0.94,0.27,0.16,-11.39,4.41,-26.65,14.05,-65.41,-360.58,102.5,-77.08,-293.59,70.57,Left Fall while Sitting
27:13.6,585,668,1002,1002,356,1.87,533.73,1.74,20724.24,358,304,118.39,473,14015,4880,1140,0.92,0.35,0.14,0.15,-4.16,-29.66,18.6,-61.84,-360.55,101.72,-82.65,-287.32,67.16,Left Fall while Sitting
27:13.7,404,646,969,1002,354,1.89,529.15,1.73,20724.24,358,308,118.39,473,14015,34208,1448,0.92,0.39,0.16,-7.58,-6.53,-37.13,19.91,-58.88,-361.96,100.51,-89.56,-282.55,63.45,Left Fall while Sitting
27:13.8,439,630,945,1002,352,1.91,524.59,1.72,20724.24,358,783,118.39,473,14015,57473,2231,0.93,0.43,0.1,-6.28,0.19,-31.54,22.53,-60.41,-363.14,100.54,-95.52,-277.61,61.01,Left Fall while Sitting
27:13.9,435,616,924,1002,352,1.91,524.59,1.72,20724.24,358,791,118.39,473,14015,27794,3022,0.87,0.47,0.1,-0.11,-18.62,-32.35,25.83,-56.87,-363.16,97.06,-101.57,-271.56,55.24,Left Fall while Sitting
27:14.0,507,609,913.5,1002,395,1.59,628.98,1.93,20724.24,358,764,118.39,473,14015,21666,3786,0.88,0.55,0.1,0.58,4.79,-43.51,29.25,-53.6,-363.05,97.98,-109.88,-265.44,53.96,Left Fall while Sitting
27:14.1,500,602,903,1002,427,1.4,716.44,2.09,20724.24,358,777,118.39,473,14015,35571,4563,0.81,0.6,0.03,19.42,5.4,-28.88,35.07,-52.22,-359.44,98.98,-115.25,-255.89,52.82,Left Fall while Sitting
27:14.2,940,622,933,1002,440,1.33,754.72,2.15,20724.24,358,793,118.39,473,14015,9060,5356,0.75,0.58,0.01,18.82,-15.38,-35.25,37.36,-51.39,-355.9,96.09,-121.88,-246.56,47.9,Left Fall while Sitting
27:14.3,999,643,964.5,1002,443,1.31,763.79,2.17,20724.24,358,768,118.39,473,14015,9060,6124,0.78,0.77,0.01,13.08,7.08,-19.61,44.2,-45.03,-353.42,97.43,-125.6,-238.31,47.36,Left Fall while Sitting
27:14.4,984,661,991.5,1002,445,1.3,769.9,2.17,20724.26,392,786,60.85,691,3702,0,0,0.77,0.65,-0.07,23.74,10.16,-29.26,42.67,-52.98,-348.96,99.34,-131.11,-228.31,47.22,Left Fall while Sitting
27:14.5,1000,678,1017,1002,446,1.29,772.96,2.18,20724.26,392,777,60.85,691,3702,13905,777,0.64,0.7,-0.09,24.58,4.65,-38.3,51.94,-45.86,-344.26,100.23,-138.42,-218.11,46.23,Left Fall while Sitting
27:14.6,1002,693,1039.5,1002,445,1.3,769.9,2.17,20724.26,392,774,60.85,691,3702,23157,1551,0.62,0.79,-0.15,15.1,9.76,-11.11,59.55,-43.84,-341.41,102.08,-140.52,-209.76,46.24,Left Fall while Sitting
27:14.7,1002,707,1060.5,1002,445,1.3,769.9,2.17,20724.26,392,774,60.85,691,3702,32409,2325,0.66,0.8,-0.09,13.37,4.89,-0.93,54.58,-42.98,-338.87,103.01,-140.7,-201.98,45.37,Left Fall while Sitting
27:14.8,1001,720,1080,1002,445,1.3,769.9,2.17,20724.26,392,774,60.85,691,3702,41661,3099,0.61,0.84,-0.11,8.88,-24.88,-7.68,59.01,-40.09,-337.19,98.31,-142.15,-195.12,39.05,Left Fall while Sitting
27:14.9,1001,731,1096.5,1002,445,1.3,769.9,2.17,20724.26,392,783,60.85,691,3702,64926,3882,0.59,0.84,-0.17,32.32,2.07,-17.05,63.48,-41.18,-331.05,98.7,-145.39,-183.93,37.83,Left Fall while Sitting
27:15.0,999,742,1113,1002,445,1.3,769.9,2.17,20724.26,392,771,60.85,691,3702,69543,4653,0.56,0.86,-0.24,34.5,12.15,-26.87,69.89,-41.76,-324.53,101,-150.46,-172.46,38.49,Left Fall while Sitting
27:15.1,998,752,1128,1002,445,1.3,769.9,2.17,20724.26,392,772,60.85,691,3702,75703,5425,0.59,0.79,-0.25,0.09,12.82,-9.97,66.88,-47.44,-324.51,103.44,-152.37,-167.66,39.17,Left Fall while Sitting
27:15.2,991,761,1141.5,1002,445,1.3,769.9,2.17,20724.26,392,768,60.85,691,3702,75703,6193,0.58,0.82,-0.31,-4.69,6.76,-5.89,71.81,-48.82,-325.39,104.71,-153.48,-163.73,38.65,Left Fall while Sitting
27:15.3,973,768,1152,1002,445,1.3,769.9,2.17,20724.26,392,776,60.85,691,3702,88055,6969,0.51,0.81,-0.25,-24.57,-3.79,-18.81,72.05,-42.46,-330.04,104,-157.03,-163.57,36.33,Left Fall while Sitting
27:15.4,898,773,1159.5,1002,445,1.3,769.9,2.17,38.81,445,764,90.51,773,8191,0,0,0.52,0.84,-0.16,-32.11,2.31,-3.32,66.68,-37.06,-336.23,104.44,-157.67,-165.04,35.3,Left Fall while Sitting
27:15.5,883,776,1164,1002,445,1.3,769.9,2.17,38.81,445,769,90.51,773,8191,1537,769,0.47,0.84,-0.18,-19.67,14.59,-14.52,71.32,-35.08,-339.97,107.22,-160.43,-163.97,36.61,Left Fall while Sitting
27:15.6,918,781,1171.5,1002,445,1.3,769.9,2.17,38.81,445,777,90.51,773,8191,15442,1546,0.5,0.88,-0.13,15.51,-5.17,-1.4,67.25,-33.34,-336.99,106.22,-160.7,-156.43,34.24,Left Fall while Sitting
27:15.7,897,785,1177.5,1002,445,1.3,769.9,2.17,38.81,445,770,90.51,773,8191,18518,2316,0.44,0.83,-0.2,13.83,2.56,-13.02,74.16,-34.9,-334.38,106.71,-163.16,-149.26,33.33,Left Fall while Sitting
27:15.8,883,788,1182,1002,445,1.3,769.9,2.17,38.81,445,768,90.51,773,8191,18518,3084,0.48,0.85,-0.21,5.43,8.09,2.84,72.58,-36.3,-333.34,108.25,-162.62,-143.8,33.45,Left Fall while Sitting
27:15.9,920,791,1186.5,1002,445,1.3,769.9,2.17,38.81,445,767,90.51,773,8191,16983,3851,0.46,0.85,-0.19,0.01,-6.11,3.48,72.12,-35.27,-333.34,107.11,-161.96,-139.48,30.95,Left Fall while Sitting
27:16.0,888,794,1191,1002,444,1.3,766.84,2.17,38.81,445,766,90.51,773,8191,13915,4617,0.48,0.85,-0.18,2.85,5.32,0.45,70.61,-35.81,-332.8,108.11,-161.88,-134.75,30.61,Left Fall while Sitting
27:16.1,867,796,1194,1002,444,1.3,766.84,2.17,38.81,445,767,90.51,773,8191,12380,5384,0.48,0.84,-0.2,6.42,4.27,-1.06,71.32,-36.87,-331.61,108.91,-162.08,-129.46,30.03,Left Fall while Sitting
27:16.2,866,798,1197,1002,445,1.3,769.9,2.17,38.81,445,762,90.51,773,8191,3200,6146,0.43,0.87,-0.22,4.06,1.52,-1.22,76.28,-33.84,-330.85,109.19,-162.31,-124.6,29.03,Left Fall while Sitting
27:16.3,924,801,1201.5,1002,445,1.3,769.9,2.17,38.81,445,772,90.51,773,8191,9360,6918,0.47,0.85,-0.23,4.04,2.76,1.32,73.84,-37.29,-330.08,109.71,-162.06,-119.88,28.22,Left Fall while Sitting
27:16.4,848,803,1204.5,1002,445,1.3,769.9,2.17,35.2,444,769,33,768,1088,0,0,0.48,0.85,-0.24,2.71,1.87,-1.35,74.07,-38.15,-329.58,110.06,-162.31,-115.51,27.23,Left Fall while Sitting
27:16.5,831,803,1204.5,1002,444,1.3,766.84,2.17,35.2,444,770,33,768,1088,3076,770,0.48,0.84,-0.22,4.84,1.35,0.17,72.97,-37.81,-328.66,110.32,-162.28,-110.84,26.18,Left Fall while Sitting
27:16.6,670,800,1200,1002,445,1.3,769.9,2.17,35.2,444,765,33,768,1088,4294965773,1535,0.48,0.85,-0.23,4.06,3.58,1.1,73.78,-38,-327.91,110.98,-162.07,-106.41,25.55,Left Fall while Sitting
27:16.7,682,797,1195.5,1002,444,1.3,766.84,2.17,35.2,444,763,33,768,1088,4294958118,2298,0.47,0.84,-0.21,15.66,-0.13,7.52,72.81,-36.97,-324.98,110.96,-160.67,-99.96,24.28,Left Fall while Sitting
27:16.8,586,792,1188,1002,445,1.3,769.9,2.17,35.2,444,771,33,768,1088,4294962735,3069,0.56,0.88,-0.33,15.45,10.01,2.42,75.58,-45.18,-322.06,112.85,-160.21,-93.58,24.74,Left Fall while Sitting
27:16.9,701,790,1185,1002,445,1.3,769.9,2.17,35.2,444,765,33,768,1088,4294958136,3834,0.51,0.83,-0.28,2.09,6.09,18.84,74.76,-43.17,-321.67,114,-156.67,-89.83,24.51,Left Fall while Sitting
27:17.0,709,788,1182,1002,445,1.3,769.9,2.17,35.2,444,767,33,768,1088,4294956601,4601,0.5,0.83,-0.34,0.45,3.25,24,78.68,-45.59,-321.58,114.6,-152.18,-86.38,23.7,Left Fall while Sitting
27:17.1,749,788,1182,1002,445,1.3,769.9,2.17,35.2,444,766,33,768,1088,4294953533,5367,0.54,0.8,-0.28,-10.86,-6.39,9.94,71.99,-46.11,-323.6,113.41,-150.33,-85.19,21.14,Left Fall while Sitting
27:17.2,664,785,1177.5,1002,446,1.29,772.96,2.18,35.2,444,773,33,768,1088,4294961238,6140,0.45,0.78,-0.22,8.33,3.08,-8.71,73.4,-39.24,-322.03,114,-151.98,-80.48,20.5,Left Fall while Sitting
27:17.3,630,782,1173,1002,445,1.3,769.9,2.17,35.2,444,769,33,768,1088,4294962775,6909,0.54,0.84,-0.28,19.31,-1.04,0.13,73.01,-44.01,-318.4,113.8,-151.95,-73.85,19.02,Left Fall while Sitting
27:17.4,615,778,1167,1002,446,1.29,772.96,2.18,37.64,445,769,20724.3,767,429496416,0,0,0.53,0.84,-0.38,16.84,1.25,12.6,79.88,-48.49,-315.23,114.03,-149.58,-67.67,17.9,Left Fall while Sitting
27:17.5,785,778,1167,1002,445,1.3,769.9,2.17,37.64,445,767,20724.3,767,429496416,4294965761,767,0.55,0.77,-0.31,-11.99,-0.88,39.27,72.27,-49.95,-317.48,113.87,-142.2,-67.08,16.38,Left Fall while Sitting
27:17.6,702,777,1165.5,1002,445,1.3,769.9,2.17,37.64,445,769,20724.3,767,429496416,2,1536,0.65,0.68,-0.28,-5.26,-4.92,30.36,60.91,-58.31,-318.48,112.93,-136.43,-65.5,13.97,Left Fall while Sitting
27:17.7,782,777,1165.5,1002,445,1.3,769.9,2.17,37.64,445,767,20724.3,767,429496416,4294965763,2303,0.67,0.73,-0.31,-16.66,14.56,34.81,64.12,-58.13,-321.65,115.7,-129.82,-66.01,15.24,Left Fall while Sitting
27:17.8,693,775,1162.5,1002,445,1.3,769.9,2.17,37.64,445,762,20724.3,767,429496416,4294956583,3065,0.7,0.71,-0.22,-25.07,8.91,34.03,56.16,-55.36,-326.41,117.39,-123.35,-68.23,15.48,Left Fall while Sitting
27:17.9,861,777,1165.5,1002,445,1.3,769.9,2.17,37.64,445,768,20724.3,767,429496416,4294956583,3833,0.79,0.65,-0.23,4.27,22.51,38.69,49.05,-61.71,-325.61,121.65,-116.04,-65.1,18.11,Left Fall while Sitting
27:18.0,828,778,1167,1002,444,1.3,766.84,2.17,37.64,445,769,20724.3,767,429496416,4294958120,4602,0.84,0.63,-0.22,-15.03,32.47,64.29,45.43,-64.01,-328.43,127.75,-103.95,-65.66,22.45,Left Fall while Sitting
27:18.1,781,778,1167,1002,444,1.3,766.84,2.17,37.64,445,770,20724.3,767,429496416,4294961196,5372,0.84,0.46,-0.16,-7.85,34.97,63.87,33.78,-70.15,-329.92,134.4,-91.82,-65.13,27.11,Left Fall while Sitting
27:18.2,557,774,1161,1002,444,1.3,766.84,2.17,37.64,445,770,20724.3,767,429496416,4294964272,6142,0.95,0.41,-0.13,-25.36,37.96,69.65,26.52,-73.67,-334.69,141.53,-78.72,-67.97,32.09,Left Fall while Sitting
27:18.3,556,770,1155,1002,444,1.3,766.84,2.17,37.64,445,773,20724.3,767,429496416,4681,6915,0.93,0.29,-0.02,-18.37,22.92,58.72,17.75,-74.08,-338.14,145.84,-67.68,-69.64,34.19,Left Fall while Sitting
27:18.4,508,766,1149,1002,445,1.3,769.9,2.17,32.57,444,773,35.19,768,1237,0,0,1,0.24,-0.02,-0.16,14.18,38.14,13.61,-78.04,-338.17,148.52,-60.47,-68,34.57,Left Fall while Sitting
27:18.5,536,762,1143,1002,445,1.3,769.9,2.17,32.57,444,766,35.19,768,1237,4294964228,766,0.99,0.21,0.02,-0.71,20.86,39.15,11.59,-77.19,-338.3,152.4,-53.19,-66.54,36.14,Left Fall while Sitting
27:18.6,496,758,1137,1002,445,1.3,769.9,2.17,32.57,444,768,35.19,768,1237,4294964228,1534,0.99,0.13,0.05,0.78,16.47,29.36,7.15,-79.93,-338.16,155.47,-47.73,-64.92,36.82,Left Fall while Sitting
27:18.7,486,753,1129.5,1002,445,1.3,769.9,2.17,32.57,444,769,35.19,768,1237,4294965765,2303,1,0.03,0.06,-6.42,16.01,49.36,1.43,-85.3,-339.35,158.43,-38.6,-64.76,37.28,Left Fall while Sitting
27:18.8,417,748,1122,1002,445,1.3,769.9,2.17,32.57,444,772,35.19,768,1237,4629,3075,1.02,-0.03,0.07,-0.92,17.2,53.71,-1.39,-84.49,-339.52,161.59,-28.72,-63.66,37.94,Left Fall while Sitting
27:18.9,591,745,1117.5,1002,445,1.3,769.9,2.17,32.57,444,769,35.19,768,1237,6166,3844,0.99,-0.1,0.12,9.14,16.76,40.49,-5.06,-77.72,-337.82,164.71,-21.18,-60.82,38.68,Left Fall while Sitting
27:19.0,579,743,1114.5,1002,445,1.3,769.9,2.17,32.57,444,769,35.19,768,1237,7703,4613,0.99,-0.15,0.12,-3.33,4.31,41.99,-7.68,-74.91,-338.44,165.52,-13.33,-60.37,37.2,Left Fall while Sitting
27:19.1,700,742,1113,1002,446,1.29,772.96,2.18,32.57,444,775,35.19,768,1237,18504,5388,0.99,-0.22,0.13,-23.39,2.02,24.34,-11,-70.82,-342.79,165.89,-8.81,-63.64,35.41,Left Fall while Sitting
27:19.2,560,739,1108.5,1002,445,1.3,769.9,2.17,32.57,444,767,35.19,768,1237,16969,6155,0.99,-0.27,0.1,-8.6,-8.63,20.43,-14.04,-69.15,-344.38,164.29,-5.03,-64.21,31.76,Left Fall while Sitting
27:19.3,634,738,1107,1002,445,1.3,769.9,2.17,32.57,444,772,35.19,768,1237,23129,6927,1,-0.28,0.1,-9.61,-15.33,9.16,-14.47,-69.08,-346.17,161.44,-3.32,-64.97,26.94,Left Fall while Sitting
27:19.4,719,738,1107,1002,445,1.3,769.9,2.17,38.81,445,773,55.52,770,3082,0,0,0.99,-0.29,0.06,-11.96,-6.46,-2.07,-15.48,-70.4,-348.39,160.24,-3.71,-66.16,23.82,Left Fall while Sitting
27:19.5,662,737,1105.5,1002,445,1.3,769.9,2.17,38.81,445,773,55.52,770,3082,7705,773,1,-0.27,0.02,0.99,1.18,13.48,-14.81,-73.64,7.54,8.97,102.19,-3.42,-69.33,Left Fall while Sitting
27:19.6,797,737,1105.5,1002,445,1.3,769.9,2.17,38.81,445,768,55.52,770,3082,7705,1541,0.97,-0.31,0.02,1.68,-0.88,8.45,-17.35,-71.19,7.9,8.78,104.03,-3.34,-69.56,Left Fall while Sitting
27:19.7,857,739,1108.5,1002,445,1.3,769.9,2.17,38.81,445,767,55.52,770,3082,6170,2308,0.99,-0.22,0.13,-23.39,2.02,24.34,-11,-70.82,-342.79,165.89,-8.81,-63.64,35.41,Left Fall while Sitting
27:19.8,833,740,1110,1002,445,1.3,769.9,2.17,38.81,445,768,55.52,770,3082,6170,3076,0.99,-0.27,0.1,-8.6,-8.63,20.43,-14.04,-69.15,-344.38,164.29,-5.03,-64.21,31.76,Left Fall while Sitting
27:19.9,807,741,1111.5,1002,445,1.3,769.9,2.17,38.81,445,768,55.52,770,3082,6170,3844,1,-0.28,0.1,-9.61,-15.33,9.16,-14.47,-69.08,-346.17,161.44,-3.32,-64.97,26.94,Left Fall while Sitting
27:20.0,825,742,1113,1002,445,1.3,769.9,2.17,38.81,445,774,55.52,770,3082,15422,4618,0.99,-0.29,0.06,-11.96,-6.46,-2.07,-15.48,-70.4,-348.39,160.24,-3.71,-66.16,23.82,Left Fall while Sitting
27:20.1,782,743,1114.5,1002,445,1.3,769.9,2.17,38.81,445,766,55.52,770,3082,12354,5384,1,-0.27,0.02,0.99,1.18,13.48,-14.81,-73.64,7.54,8.97,102.19,-3.42,-69.33,Left Fall while Sitting
27:20.2,816,744,1116,1002,446,1.29,772.96,2.18,38.81,445,774,55.52,770,3082,21606,6158,0.97,-0.31,0.02,1.68,-0.88,8.45,-17.35,-71.19,7.9,8.78,104.03,-3.34,-69.56,Left Fall while Sitting
27:20.3,823,745,1117.5,1002,445,1.3,769.9,2.17,38.81,445,768,55.52,770,3082,21606,6926,0.99,-0.29,0.06,-11.96,-6.46,-2.07,-15.48,-70.4,-348.39,160.24,-3.71,-66.16,23.82,Left Fall while Sitting
27:20.4,790,745,1117.5,1002,446,1.29,772.96,2.18,39.94,445,768,46.48,769,2159,0,0,1,-0.27,0.02,0.99,1.18,13.48,-14.81,-73.64,7.54,8.97,102.19,-3.42,-69.33,Left Fall while Sitting
27:20.5,726,745,1117.5,1002,445,1.3,769.9,2.17,39.94,445,767,46.48,769,2159,4294965761,767,0.97,-0.31,0.02,1.68,-0.88,8.45,-17.35,-71.19,7.9,8.78,104.03,-3.34,-69.56,Left Fall while Sitting
27:23.7,513,513,769.5,513,419,1.44,693.71,2.05,0,0,771,0,0,0,4294953625,1527,0.99,-0.29,0.06,-11.96,-6.46,-2.07,-15.48,-70.4,-348.39,160.24,-3.71,-66.16,23.82,Right Fall while Sitting
27:23.8,998,755,1132.5,998,437,1.34,745.73,2.14,0,0,768,0,0,0,4294953625,2295,1,-0.27,0.02,0.99,1.18,13.48,-14.81,-73.64,7.54,8.97,102.19,-3.42,-69.33,Right Fall while Sitting
27:23.9,1001,837,1255.5,1001,443,1.31,763.79,2.17,0,0,775,0,0,0,4294964426,3070,0.97,-0.31,0.02,1.68,-0.88,8.45,-17.35,-71.19,7.9,8.78,104.03,-3.34,-69.56,Right Fall while Sitting
27:24.0,1001,878,1317,1001,444,1.3,766.84,2.17,0,0,777,0,0,0,11035,3847,0.98,-0.32,0,1.28,-1.55,7.56,-17.77,-72.18,8.14,8.5,105.41,-3.4,-69.89,Right Fall while Sitting
27:24.1,1001,902,1353,1001,445,1.3,769.9,2.17,0,0,780,0,0,0,29611,4627,0.96,-0.33,-0.01,1.79,0.86,6.17,-19.13,-71.63,8.46,8.66,106.52,-3.4,-69.77,Right Fall while Sitting
27:24.2,1001,919,1378.5,1001,445,1.3,769.9,2.17,0,0,776,0,0,0,41963,5403,0.97,-0.33,-0.01,0.93,-3.26,3.51,-19.01,-71.54,8.63,8.07,107.15,-3.54,-70.38,Right Fall while Sitting
27:24.3,1000,930,1395,1001,445,1.3,769.9,2.17,0,0,777,0,0,0,55868,6180,0.94,-0.33,-0.02,13.12,-5.58,16.22,-19.65,-71.63,11.01,7.05,110.11,-1.53,-71.4,Right Fall while Sitting
27:24.4,1001,939,1408.5,1001,445,1.3,769.9,2.17,0,0,774,0,0,0,65120,6954,0.95,-0.38,-0.01,16.9,-3.61,19.3,-22.14,-68.75,14.14,6.38,113.68,1.13,-72,Right Fall while Sitting
27:24.5,1000,946,1419,1001,445,1.3,769.9,2.17,20724.27,433,773,85.33,772,7281,0,0,0.95,-0.41,-0.03,10.72,-6.14,14.03,-24.08,-68.48,16.11,5.25,116.26,2.55,-73.04,Right Fall while Sitting
27:24.6,1000,951,1426.5,1001,445,1.3,769.9,2.17,20724.27,433,772,85.33,772,7281,6160,772,0.88,-0.46,0,6.55,-3.84,18.54,-27.88,-62.33,17.32,4.55,119.67,3.13,-73.52,Right Fall while Sitting
27:24.7,997,955,1432.5,1001,446,1.29,772.96,2.18,20724.27,433,767,85.33,772,7281,4625,1539,0.9,-0.52,-0.02,9.13,-4.02,22.32,-30.39,-60.76,18.99,3.81,123.76,4.09,-73.99,Right Fall while Sitting
27:24.8,977,957,1435.5,1001,445,1.3,769.9,2.17,20724.27,433,769,85.33,772,7281,6162,2308,0.85,-0.55,-0.04,8.69,-6.37,24.8,-34.21,-58.8,20.57,2.65,128.27,4.88,-74.82,Right Fall while Sitting
27:24.9,902,953,1429.5,1001,446,1.29,772.96,2.18,20724.27,433,770,85.33,772,7281,9238,3078,0.81,-0.63,-0.04,1.67,-7.75,29.76,-39.02,-54.2,20.88,1.23,133.71,4.3,-75.8,Right Fall while Sitting
27:25.0,904,949,1423.5,1001,445,1.3,769.9,2.17,20724.27,433,766,85.33,772,7281,6170,3844,0.75,-0.71,-0.08,1.31,0.28,26.67,-46.7,-50,21.12,1.28,138.6,3.51,-75.23,Right Fall while Sitting
27:25.1,803,939,1408.5,1001,445,1.3,769.9,2.17,20724.27,433,770,85.33,772,7281,9246,4614,0.73,-0.76,-0.07,2.32,10.21,16.64,-49.11,-46.6,21.54,3.14,141.63,2.88,-72.84,Right Fall while Sitting
27:25.2,820,932,1398,1001,445,1.3,769.9,2.17,20724.27,433,767,85.33,772,7281,7711,5381,0.71,-0.74,-0.04,0.09,6.12,16.86,-47.77,-45.67,21.56,4.26,144.71,1.88,-71.2,Right Fall while Sitting
27:25.3,767,922,1383,1001,445,1.3,769.9,2.17,20724.27,433,770,85.33,772,7281,10787,6151,0.65,-0.79,-0.04,-13.28,10.31,14.48,-52.06,-41.35,19.14,6.14,147.34,-1.57,-68.76,Right Fall while Sitting
27:25.4,736,912,1368,1001,445,1.3,769.9,2.17,20724.27,433,766,85.33,772,7281,7719,6917,0.66,-0.81,-0.04,-2.17,8.01,12.98,-52.78,-40.67,18.74,7.63,149.76,-2.99,-66.74,Right Fall while Sitting
27:25.5,668,899,1348.5,1001,445,1.3,769.9,2.17,39.94,445,766,21.56,768,464,0,0,0.64,-0.81,-0.07,-0.87,2.21,10.61,-55.01,-40.68,18.58,8.03,151.7,-4.18,-65.82,Right Fall while Sitting
27:25.6,597,884,1326,1001,444,1.3,766.84,2.17,39.94,445,767,21.56,768,464,4294965761,767,0.6,-0.83,-0.07,2.66,4.53,11.71,-56.97,-38.41,19.07,8.86,153.86,-4.76,-64.46,Right Fall while Sitting
27:25.7,596,870,1305,1001,445,1.3,769.9,2.17,39.94,445,772,21.56,768,464,4625,1539,0.6,-0.85,-0.04,4.15,8.02,12.71,-56.84,-36.43,19.83,10.34,156.19,-5.05,-62.45,Right Fall while Sitting
27:25.8,520,854,1281,1001,444,1.3,766.84,2.17,39.94,445,765,21.56,768,464,26,2304,0.55,-0.84,-0.02,3.04,7.83,6.06,-57.92,-33.9,20.39,11.77,157.3,-5.56,-60.47,Right Fall while Sitting
27:25.9,486,838,1257,1001,403,1.54,650,1.97,39.94,445,786,21.56,768,464,27998,3090,0.57,-0.86,-0.02,0.12,5.89,4.63,-57.08,-34.17,20.41,12.85,158.15,-6.57,-58.89,Right Fall while Sitting
27:26.0,68,806,1209,1001,365,1.8,554.71,1.78,39.94,445,769,21.56,768,464,29535,3859,0.56,-0.86,0.02,10.2,0.73,7.77,-55.85,-32.37,22.28,12.98,159.57,-5.73,-58.23,Right Fall while Sitting
27:26.1,0,774,1161,1001,349,1.93,517.8,1.71,39.94,445,773,21.56,768,464,37240,4632,0.57,-0.86,0.03,4.38,0.18,9.21,-55.15,-32.65,23.08,13.02,161.26,-5.93,-57.69,Right Fall while Sitting
27:26.2,506,763,1144.5,1001,342,1.99,502.2,1.67,39.94,445,771,21.56,768,464,41857,5403,0.55,-0.9,0.04,-6.73,-5.7,7.53,-56.59,-30.27,21.85,11.98,162.63,-8.14,-58.16,Right Fall while Sitting
27:26.3,0,735,1102.5,1001,339,2.02,495.61,1.66,39.94,445,770,21.56,768,464,44933,6173,0.47,-0.92,-0.09,9.57,-23.88,9.58,-67,-29.71,23.61,7.58,164.39,-7.59,-61.9,Right Fall while Sitting
27:26.4,0,709,1063.5,1001,336,2.04,489.08,1.64,39.94,445,773,21.56,768,464,52638,6946,0.51,-0.85,-0.03,-0.91,-0.97,21.26,-60.6,-31.88,23.45,7.4,168.3,-8.82,-61.47,Right Fall while Sitting
27:26.5,0,684,1026,1001,336,2.04,489.08,1.64,20724.21,380,769,73.6,771,5416,0,0,0.48,-0.94,0.07,4.03,4.65,27.5,-59.74,-25.1,24.19,8.26,173.36,-9.11,-59.9,Right Fall while Sitting
27:26.6,0,662,993,1001,336,2.04,489.08,1.64,20724.21,380,773,73.6,771,5416,7705,773,0.39,-0.97,-0.05,12.37,-8.1,19.59,-70.62,-22.98,26.44,6.79,176.93,-8.14,-60.61,Right Fall while Sitting
27:26.7,0,640,960,1001,336,2.04,489.08,1.64,20724.21,380,774,73.6,771,5416,16957,1547,0.34,-1.02,-0.07,16.69,-10.66,18.23,-75.26,-19.45,29.53,4.81,180.3,-6.45,-61.72,Right Fall while Sitting
27:26.8,0,620,930,1001,336,2.04,489.08,1.64,20724.21,380,770,73.6,771,5416,20033,2317,0.3,-0.95,-0.04,-20.03,4.97,12.37,-74.66,-18.07,25.82,5.73,182.59,-11.45,-59.95,Right Fall while Sitting
27:26.9,0,601,901.5,1001,336,2.04,489.08,1.64,20724.21,380,774,73.6,771,5416,29285,3091,0.33,-1.01,-0.13,-1.39,-1.79,13.04,-78.87,-20.67,25.56,5.4,185.02,-13.05,-59.49,Right Fall while Sitting
27:27.0,91,586,879,1001,336,2.04,489.08,1.64,20724.21,380,771,73.6,771,5416,33902,3862,0.26,-0.96,-0.13,2.9,-5.59,10.8,-82.11,-17.74,26.11,4.35,187.03,-13.9,-59.68,Right Fall while Sitting
27:27.1,272,577,865.5,1001,337,2.04,491.25,1.65,20724.21,380,769,73.6,771,5416,35439,4631,0.24,-0.97,-0.08,-1.07,-1.23,6.11,-80.91,-15.12,25.91,4.13,188.16,-15.43,-59.01,Right Fall while Sitting
27:27.2,381,572,858,1001,337,2.04,491.25,1.65,20724.21,380,775,73.6,771,5416,46240,5406,0.22,-0.98,-0.11,-0.38,0.07,11.67,-83.59,-13.81,25.84,4.14,190.31,-16.86,-58.09,Right Fall while Sitting
27:27.3,90,559,838.5,1001,338,2.03,493.43,1.65,20724.21,380,778,73.6,771,5416,61700,6184,0.19,-1.01,-0.12,-0.2,-2.88,13.09,-86.03,-12.17,25.8,3.61,192.74,-18.28,-57.7,Right Fall while Sitting
27:27.4,615,560,840,1001,338,2.03,493.43,1.65,20724.21,380,776,73.6,771,5416,74052,6960,0.16,-1,-0.13,6.06,-1.81,12.6,-87.88,-10.56,26.93,3.27,195.08,-18.57,-57.08,Right Fall while Sitting
27:27.5,596,561,841.5,1001,337,2.04,491.25,1.65,20723.88,336,774,91.27,773,8329,0,0,0.14,-1.01,-0.12,6.17,-0.39,8.34,-88.4,-9.13,28.07,3.2,196.62,-18.85,-56.2,Right Fall while Sitting
27:27.6,753,566,849,1001,337,2.04,491.25,1.65,20723.88,336,772,91.27,773,8329,6160,772,0.13,-1.02,-0.11,0.58,2.77,8.86,-88.99,-8.01,28.17,3.7,198.24,-20.15,-54.73,Right Fall while Sitting
27:27.7,767,571,856.5,1001,337,2.04,491.25,1.65,20723.88,336,774,91.27,773,8329,15412,1546,0.13,-1.01,-0.1,3.99,1.72,4.98,-88.78,-7.87,28.9,4.02,199.14,-20.81,-53.49,Right Fall while Sitting
27:27.8,761,575,862.5,1001,336,2.04,489.08,1.64,20723.88,336,773,91.27,773,8329,23117,2319,0.14,-1,-0.11,0.73,1.93,6.28,-88.42,-9.05,29.03,4.37,200.28,-22.03,-52.26,Right Fall while Sitting
27:27.9,715,579,868.5,1001,336,2.04,489.08,1.64,20723.88,336,770,91.27,773,8329,26193,3089,0.11,-1.01,-0.1,2.89,-1.66,2.97,-89.42,-6.86,29.55,4.07,200.82,-22.87,-51.65,Right Fall while Sitting
27:28.0,703,581,871.5,1001,336,2.04,489.08,1.64,20723.88,336,773,91.27,773,8329,33898,3862,0.12,-1,-0.1,3.54,0.47,3.07,-88.95,-7.27,30.21,4.15,201.38,-23.55,-50.67,Right Fall while Sitting
27:28.1,676,584,876,1001,335,2.05,486.92,1.64,20723.88,336,770,91.27,773,8329,36974,4632,0.11,-1.01,-0.11,0.51,1.87,3.36,-89.83,-6.9,30.3,4.49,201.99,-24.79,-49.47,Right Fall while Sitting
27:28.2,662,585,877.5,1001,333,2.07,482.61,1.63,20723.88,336,771,91.27,773,8329,41591,5403,0.1,-1.01,-0.1,1.22,0.97,1.87,-89.75,-6.5,30.52,4.67,202.33,-25.87,-48.43,Right Fall while Sitting
27:28.3,557,585,877.5,1001,332,2.08,480.46,1.62,20723.88,336,772,91.27,773,8329,47751,6175,0.11,-1.02,-0.11,2.77,2.36,0.43,-89.79,-7.13,31.02,5.1,202.41,-26.65,-47.19,Right Fall while Sitting
27:28.4,569,584,876,1001,333,2.07,482.61,1.63,20723.88,336,777,91.27,773,8329,61656,6952,0.13,-1.03,-0.1,-0.43,2.65,-6.76,-88.45,-8.18,30.95,5.58,201.18,-27.97,-45.94,Right Fall while Sitting
27:28.5,611,585,877.5,1001,332,2.08,480.46,1.62,20723.84,334,769,79.49,772,6318,0,0,0.17,-1,-0.1,1.48,2.24,-9.07,-86.25,-10.4,31.22,5.99,199.53,-28.86,-44.82,Right Fall while Sitting
27:28.6,640,586,879,1001,332,2.08,480.46,1.62,20723.84,334,773,79.49,772,6318,7705,773,0.21,-1.02,-0.1,1.54,4.48,-14.7,-83.61,-12.75,31.5,6.81,196.82,-29.68,-43.37,Right Fall while Sitting
27:28.7,542,585,877.5,1001,332,2.08,480.46,1.62,20723.84,334,764,79.49,772,6318,1577,1537,0.3,-0.96,-0.18,-0.81,12.05,-19.33,-82.67,-20.92,31.35,9.05,193.23,-30.89,-40.73,Right Fall while Sitting
27:28.8,536,584,876,1001,332,2.08,480.46,1.62,20723.84,334,773,79.49,772,6318,9282,2310,0.38,-0.96,-0.11,7.7,3.43,-23.45,-74.1,-23.89,32.78,9.69,188.87,-30.35,-39.77,Right Fall while Sitting
27:28.9,633,585,877.5,1001,332,2.08,480.46,1.62,20723.84,334,773,79.49,772,6318,16987,3083,0.45,-0.92,-0.09,6.64,2.02,-23.78,-68.31,-28.43,34.01,10.06,184.49,-29.91,-39.17,Right Fall while Sitting
27:29.0,601,585,877.5,1001,332,2.08,480.46,1.62,20723.84,334,774,79.49,772,6318,26239,3857,0.53,-0.88,-0.06,4.58,2.6,-24.26,-61.7,-33.26,34.86,10.55,179.95,-29.71,-38.58,Right Fall while Sitting
27:29.1,617,586,879,1001,332,2.08,480.46,1.62,20723.84,334,774,79.49,772,6318,35491,4631,0.61,-0.84,-0.05,3.06,3.15,-25,-56.19,-37.73,35.43,11.14,175.3,-29.68,-37.99,Right Fall while Sitting
27:29.2,802,590,885,1001,334,2.06,484.76,1.63,20723.84,334,776,79.49,772,6318,47843,5407,0.67,-0.8,-0.05,-1.04,4.92,-26.07,-52.35,-41.9,35.24,12.05,170.45,-30.32,-37.17,Right Fall while Sitting
27:29.3,587,590,885,1001,334,2.06,484.76,1.63,20723.84,334,776,79.49,772,6318,60195,6183,0.78,-0.7,-0.01,2.84,5.89,-34.73,-42.44,-48.68,35.77,13.16,163.96,-30.04,-36.32,Right Fall while Sitting
27:29.3,496,588,882,1001,334,2.06,484.76,1.63,20723.84,334,775,79.49,772,6318,70996,6958,0.84,-0.6,-0.07,-6.73,-2.24,-38.67,-37.69,-57.58,34.52,12.74,156.77,-31.42,-37.15,Right Fall while Sitting
27:29.4,591,588,882,1001,334,2.06,484.76,1.63,20723.81,332,773,88.71,773,7869,0,0,0.92,-0.44,-0.01,-0.7,-0.85,-39.03,-25.95,-64.91,34.39,12.58,149.39,-31.44,-37.86,Right Fall while Sitting
27:29.5,506,587,880.5,1001,334,2.06,484.76,1.63,20723.81,332,829,88.71,773,7869,31881,829,0.94,-0.32,-0.08,4.66,-3.64,-29.39,-20.35,-75.84,35.26,11.9,143.89,-30.37,-39.29,Right Fall while Sitting
27:29.6,465,585,877.5,1001,335,2.05,486.92,1.64,20723.81,332,747,88.71,773,7869,66,1576,0.99,-0.24,-0.11,0.43,0.45,-23.68,-15.31,-82.6,35.34,11.98,139.47,-29.99,-40.07,Right Fall while Sitting
27:29.7,165,578,867,1001,334,2.06,484.76,1.63,20723.81,332,788,88.71,773,7869,31186,2364,1.02,-0.18,-0.07,-16.09,5.17,-16.91,-10.7,-83.86,32.34,12.94,136.32,-32.54,-40.01,Right Fall while Sitting
27:29.8,507,577,865.5,1001,335,2.05,486.92,1.64,20723.81,332,780,88.71,773,7869,49762,3144,1.03,-0.11,-0.05,-9.07,10.5,-16.68,-6.16,-87.05,30.64,14.92,133.18,-33.68,-39.01,Right Fall while Sitting
27:29.9,525,576,864,1001,335,2.05,486.92,1.64,20723.81,332,810,88.71,773,7869,50502,3954,1,-0.1,-0.04,-2.73,0.36,-0.53,-5.78,-86.85,30.13,14.98,133.08,-33.62,-39.91,Right Fall while Sitting
27:30.0,622,577,865.5,1001,336,2.04,489.08,1.64,20723.81,332,806,88.71,773,7869,44778,4760,1.02,-0.04,-0.06,-1.86,-2.79,2.81,-2.31,-91.07,29.79,14.47,133.6,-33.33,-41.43,Right Fall while Sitting
27:30.1,589,577,865.5,1001,338,2.03,493.43,1.65,20723.81,332,687,88.71,773,7869,57995,5447,1.03,-0.07,-0.07,-0.7,-8.72,5.12,-3.89,-90.18,29.66,12.86,134.55,-32.87,-43.99,Right Fall while Sitting
27:30.2,602,577,865.5,1001,339,2.02,495.61,1.66,20723.81,332,791,88.71,773,7869,28316,6238,1.02,-0.06,-0.11,0.78,1.46,9.85,-3.53,-93.13,29.8,13.13,136.38,-32.14,-44.7,Right Fall while Sitting
27:30.3,579,577,865.5,1001,341,2,500,1.67,20723.81,332,661,88.71,773,7869,6485,6899,1,-0.06,-0.11,-3.22,-0.08,11.93,-4.04,-92.88,29.22,13.11,138.55,-32.15,-45.68,Right Fall while Sitting
27:30.4,578,577,865.5,1001,339,2.02,495.61,1.66,20723.88,336,791,20724.25,769,429494400,0,0,1.02,-0.13,-0.09,-6.43,2.02,6.98,-7.8,-88.11,28.03,13.49,139.84,-32.83,-46.16,Right Fall while Sitting
27:30.5,469,576,864,1001,339,2.02,495.61,1.66,20723.88,336,776,20724.25,769,429494400,12352,776,1.04,-0.13,-0.12,-6.12,3.72,4.78,-8.16,-89.18,26.9,14.18,140.73,-33.45,-46.35,Right Fall while Sitting
27:30.6,434,574,861,1001,338,2.03,493.43,1.65,20723.88,336,778,20724.25,769,429494400,27812,1554,1.04,-0.13,-0.1,-15.97,2.86,2.8,-7.63,-88.79,23.96,14.7,141.24,-35.81,-46.68,Right Fall while Sitting
27:30.7,503,573,859.5,1001,338,2.03,493.43,1.65,20723.88,336,778,20724.25,769,429494400,43272,2332,0.98,-0.09,-0.12,-12.99,0.36,-6.67,-5.95,-91.59,21.57,14.77,140.01,-37.55,-47.52,Right Fall while Sitting
27:30.8,513,572,858,1001,338,2.03,493.43,1.65,20723.88,336,776,20724.25,769,429494400,55624,3108,1.03,-0.06,-0.09,-3.01,1.08,-2.58,-3.79,-91.43,21,14.97,139.53,-37.43,-48.2,Right Fall while Sitting
27:30.9,543,571,856.5,1001,337,2.04,491.25,1.65,20723.88,336,773,20724.25,769,429494400,63329,3881,1.04,-0.02,-0.19,1.7,4.1,2.51,-1.07,-99.49,21.32,15.73,140,-36.4,-48.48,Right Fall while Sitting
27:31.0,559,571,856.5,1001,337,2.04,491.25,1.65,20723.88,336,774,20724.25,769,429494400,72581,4655,1.02,-0.06,-0.09,-10.29,12.88,8.84,-3.45,-91.8,19.44,18.09,141.61,-37.58,-47.04,Right Fall while Sitting
27:31.1,518,571,856.5,1001,337,2.04,491.25,1.65,20723.88,336,771,20724.25,769,429494400,77198,5426,1.02,-0.09,-0.06,-10.88,13.32,9.38,-5.46,-88.44,17.41,20.56,143.36,-38.92,-45.44,Right Fall while Sitting
27:31.2,536,570,855,1001,337,2.04,491.25,1.65,20723.88,336,775,20724.25,769,429494400,87999,6201,1.03,-0.12,-0.01,5.67,7.05,9.03,-6.51,-84.18,18.47,21.87,145.04,-37.24,-44.93,Right Fall while Sitting
27:31.3,568,570,855,1001,337,2.04,491.25,1.65,20723.88,336,770,20724.25,769,429494400,91075,6971,0.98,-0.12,-0.04,10.15,-5.43,2.72,-7.08,-85.82,20.32,20.88,145.54,-34.82,-46.72,Right Fall while Sitting
27:31.4,514,569,853.5,1001,335,2.05,486.92,1.64,20723.89,337,774,100.16,774,10031,0,0,1.01,-0.12,0,2.49,4.6,4.42,-6.99,-82.82,20.78,21.73,146.35,-33.81,-46.61,Right Fall while Sitting
27:31.5,547,569,853.5,1001,335,2.05,486.92,1.64,20723.89,337,769,100.16,774,10031,1537,769,0.99,-0.08,0.18,1.43,-17.18,3.24,-3.69,-75.57,10.8,-130.13,24.57,5.6,-188.91,Right Fall while Sitting
27:34.5,395,395,592.5,395,335,2.05,486.92,1.64,0,0,766,0,0,0,18632,1548,1.01,-0.05,0.03,-1.47,0.98,0.66,-3.53,-85.14,-0.38,0.31,0.14,-0.5,-3.11,Forward Fall while Sitting
27:34.6,604,499,748.5,604,336,2.04,489.08,1.64,0,0,778,0,0,0,34092,2326,0.99,-0.06,0.05,0.83,8.55,0.88,-3.99,-83.97,-0.24,0.94,0.3,-0.39,-2.45,Forward Fall while Sitting
27:34.7,530,509,763.5,604,336,2.04,489.08,1.64,0,0,777,0,0,0,47997,3103,1.01,-0.07,0.05,0.7,-0.8,1.05,-4.61,-83.51,-0.12,0.67,0.47,-0.3,-2.69,Forward Fall while Sitting
27:34.8,554,520,780,604,336,2.04,489.08,1.64,0,0,776,0,0,0,60349,3879,1.01,-0.07,0.03,-0.55,1.49,-0.32,-4.38,-84.23,-0.12,0.62,0.52,-0.29,-2.77,Forward Fall while Sitting
27:34.9,543,525,787.5,604,336,2.04,489.08,1.64,0,0,777,0,0,0,74254,4656,1.02,-0.07,0.02,-4.18,3.95,-1.73,-4.58,-84.2,-0.47,0.81,0.43,-0.64,-2.59,Forward Fall while Sitting
27:35.0,531,526,789,604,336,2.04,489.08,1.64,0,0,776,0,0,0,86606,5432,1,-0.05,0.03,-1.13,8.04,0.18,-3.59,-85,-0.53,1.41,0.52,-0.65,-2.05,Forward Fall while Sitting
27:35.1,612,538,807,612,337,2.04,491.25,1.65,0,0,779,0,0,0,103623,6211,1.03,-0.07,0.11,1.28,12.47,1.85,-4.4,-81.42,-0.35,2.42,0.78,-0.51,-0.93,Forward Fall while Sitting
27:35.1,603,546,819,612,337,2.04,491.25,1.65,0,0,782,0,0,0,125323,6993,1.02,-0.06,0.06,-2.45,-7.5,-3.33,-3.81,-83.67,-0.53,1.49,0.53,-0.67,-1.92,Forward Fall while Sitting
27:35.2,425,533,799.5,612,337,2.04,491.25,1.65,20723.87,336,769,112.63,776,12685,0,0,1,-0.06,0.04,-6.05,14.3,-4.31,-4.06,-84.18,-1.07,2.7,0.18,-1.19,-0.78,Forward Fall while Sitting
27:35.3,403,520,780,612,337,2.04,491.25,1.65,20723.87,336,779,112.63,776,12685,17017,779,1.01,-0.06,0.09,-4.63,7.91,-6.13,-3.85,-82.55,-1.48,3.29,-0.35,-1.57,-0.15,Forward Fall while Sitting
27:35.4,506,518,777,612,336,2.04,489.08,1.64,20723.87,336,775,112.63,776,12685,27818,1554,0.98,-0.07,0.13,-6.24,3.77,-2.31,-4.67,-79.76,-2.05,3.46,-0.5,-2.15,0.14,Forward Fall while Sitting
27:35.5,507,517,775.5,612,336,2.04,489.08,1.64,20723.87,336,775,112.63,776,12685,38619,2329,0.97,-0.07,0.16,-10.29,1.94,0.79,-4.7,-78.47,-3.02,3.46,-0.34,-3.09,0.18,Forward Fall while Sitting
27:35.6,552,520,780,612,337,2.04,491.25,1.65,20723.87,336,778,112.63,776,12685,54079,3107,0.98,-0.05,0.13,-2.5,7.37,-0.05,-3.56,-80.21,-3.21,3.99,-0.27,-3.23,0.62,Forward Fall while Sitting
27:35.7,519,520,780,612,337,2.04,491.25,1.65,20723.87,336,773,112.63,776,12685,61784,3880,0.96,-0.04,0.09,2.65,2.25,4.21,-2.93,-82.37,-2.89,4.02,0.24,-2.89,0.56,Forward Fall while Sitting
27:35.8,431,514,771,612,337,2.04,491.25,1.65,20723.87,336,775,112.63,776,12685,72585,4655,1.01,-0.06,0.14,-0.5,-1.03,4.74,-3.86,-80.15,-2.88,3.72,0.78,-2.92,0.36,Forward Fall while Sitting
27:35.9,460,510,765,612,337,2.04,491.25,1.65,20723.87,336,777,112.63,776,12685,86490,5432,1.02,-0.07,0.12,-0.92,-6.33,-6.44,-4.36,-80.85,-2.92,2.89,0.22,-2.98,-0.46,Forward Fall while Sitting
27:36.0,497,510,765,612,336,2.04,489.08,1.64,20723.87,336,778,112.63,776,12685,101950,6210,1,-0.05,0.09,-2.39,-0.98,-3.7,-3.41,-82.53,-3.1,2.59,-0.07,-3.12,-0.81,Forward Fall while Sitting
27:36.1,463,507,760.5,612,337,2.04,491.25,1.65,20723.87,336,780,112.63,776,12685,120526,6990,1.03,-0.08,0.11,-6.31,0.36,-0.28,-5.14,-80.8,-3.68,2.43,-0.02,-3.74,-0.9,Forward Fall while Sitting
27:36.2,508,507,760.5,612,336,2.04,489.08,1.64,20723.87,336,825,120.74,781,14578,0,0,1.04,-0.07,0.22,10.83,-27.36,-0.89,-4.27,-75.78,-2.56,-0.45,-0.03,-2.63,-3.46,Forward Fall while Sitting
27:36.3,654,514,771,654,339,2.02,495.61,1.66,20723.87,336,295,120.74,781,14578,21489,295,1.04,-0.1,0.19,10.07,-7.84,-5.47,-5.76,-76.77,-1.49,-1.45,-0.5,-1.66,-4.46,Forward Fall while Sitting
27:36.4,508,514,771,654,338,2.03,493.43,1.65,20723.87,336,306,120.74,781,14578,49589,601,0.96,-0.02,-0.01,-0.47,-25.15,-4.36,-1.77,-87.1,-1.48,-4.16,-0.86,-1.49,-7.48,Forward Fall while Sitting
27:36.5,512,514,771,654,337,2.04,491.25,1.65,20723.87,336,786,120.74,781,14578,77561,1387,1.02,-0.04,-0.04,2.47,-21.18,-4.17,-2.92,-85.28,-1.18,-6.48,-1.2,-1.25,-9.63,Forward Fall while Sitting
27:36.6,532,515,772.5,654,337,2.04,491.25,1.65,20723.87,336,787,120.74,781,14578,107106,2174,1.04,-0.04,-0.07,0.71,-17.74,-5.95,-2.63,-84.2,-1.05,-8.47,-1.72,-1.11,-11.5,Forward Fall while Sitting
27:36.7,481,513,769.5,654,337,2.04,491.25,1.65,20723.87,336,778,120.74,781,14578,122566,2952,1.02,-0.04,-0.1,-3.75,-17.69,-3.85,-2.96,-82.44,-1.37,-10.46,-2.03,-1.43,-13.34,Forward Fall while Sitting
27:36.8,213,501,751.5,654,336,2.04,489.08,1.64,20723.87,336,774,120.74,781,14578,131818,3726,0.99,-0.04,-0.12,-4.77,-19.1,-4.69,-2.68,-80.97,-1.8,-12.59,-2.42,-1.83,-15.33,Forward Fall while Sitting
27:37.0,552,503,754.5,654,337,2.04,491.25,1.65,20723.87,336,785,120.74,781,14578,158219,4511,1.01,-0.04,-0.18,1.56,-30.6,-7.85,-2.74,-77.94,-1.58,-15.88,-3.13,-1.63,-18.37,Forward Fall while Sitting
27:37.0,504,503,754.5,654,337,2.04,491.25,1.65,20723.87,336,774,120.74,781,14578,167471,5285,1.03,-0.03,-0.19,5.05,-37.03,-6.14,-2.23,-77.75,-1.02,-19.83,-3.67,-1.06,-22.14,Forward Fall while Sitting
27:37.2,553,505,757.5,654,337,2.04,491.25,1.65,20723.87,336,774,120.74,781,14578,176723,6059,1,-0.02,-0.24,-0.05,-23.85,-2.3,-1.79,-74.68,-0.96,-22.44,-3.83,-1,-24.53,Forward Fall while Sitting
27:37.3,529,506,759,654,337,2.04,491.25,1.65,20723.89,337,781,140.31,684,19685,0,0,0.98,-0.01,-0.32,0.15,-12.66,-3.59,-1.08,-70.33,-0.89,-23.9,-4.11,-0.9,-25.76,Forward Fall while Sitting
27:37.4,520,506,759,654,337,2.04,491.25,1.65,20723.89,337,777,140.31,684,19685,13905,777,0.98,0,-0.33,2.76,-11.8,-4.46,-0.54,-69.73,-0.56,-25.28,-4.47,-0.56,-27.06,Forward Fall while Sitting
27:37.5,36,491,736.5,654,337,2.04,491.25,1.65,20723.89,337,792,140.31,684,19685,4294953105,1569,0.95,0,-0.38,2.74,-12.33,-3.76,-0.4,-66.54,-0.22,-26.74,-4.78,-0.23,-28.34,Forward Fall while Sitting
27:37.6,542,493,739.5,654,338,2.03,493.43,1.65,20723.89,337,780,140.31,684,19685,4385,2349,0.98,0,-0.39,5.39,-6.24,-1.15,-0.67,-66.92,0.37,-27.57,-4.81,0.33,-29.14,Forward Fall while Sitting
27:37.7,487,492,738,654,337,2.04,491.25,1.65,20723.89,337,775,140.31,684,19685,15186,3124,0.95,-0.01,-0.38,4.95,-1.5,-1.82,-0.88,-66.75,0.92,-27.92,-4.91,0.85,-29.47,Forward Fall while Sitting
27:37.8,548,494,741,654,337,2.04,491.25,1.65,20723.89,337,777,140.31,684,19685,29091,3901,0.96,0,-0.41,-0.71,2.98,-0.33,-0.71,-65.43,0.91,-27.82,-4.87,0.84,-29.32,Forward Fall while Sitting
27:37.9,490,494,741,654,337,2.04,491.25,1.65,20723.89,337,784,140.31,684,19685,53923,4685,0.99,0,-0.42,2.64,-3.01,0.39,-0.32,-65.48,1.23,-28.32,-4.75,1.16,-29.81,Forward Fall while Sitting
27:38.0,479,493,739.5,654,337,2.04,491.25,1.65,20723.89,337,774,140.31,684,19685,63175,5459,1,0,-0.44,7.74,-9.66,1.65,-0.7,-64.55,2.06,-29.49,-4.51,1.95,-30.89,Forward Fall while Sitting
27:38.1,106,483,724.5,654,337,2.04,491.25,1.65,20723.89,337,786,140.31,684,19685,91147,6245,0.95,0,-0.46,2.09,-7.66,-0.96,-0.57,-62.55,2.32,-30.46,-4.52,2.21,-31.75,Forward Fall while Sitting
27:38.2,522,484,726,654,337,2.04,491.25,1.65,20723.89,337,776,140.31,684,19685,103499,7021,0.91,-0.02,-0.44,3.87,-7.46,-3.63,-1.54,-62.88,2.77,-31.41,-4.81,2.6,-32.67,Forward Fall while Sitting
27:38.3,469,484,726,654,337,2.04,491.25,1.65,20723.88,337,774,106.18,779,11274,0,0,0.92,-0.03,-0.49,-0.5,-12.76,-3.3,-2.29,-60.27,2.77,-32.85,-5.05,2.57,-33.95,Forward Fall while Sitting
27:38.4,532,485,727.5,654,336,2.04,489.08,1.64,20723.88,337,772,106.18,779,11274,6160,772,0.91,-0.03,-0.46,1.02,-7.24,-1.98,-2.48,-61.43,2.93,-33.79,-5.17,2.72,-34.89,Forward Fall while Sitting
27:38.5,466,484,726,654,337,2.04,491.25,1.65,20723.88,337,771,106.18,779,11274,10777,1543,0.92,-0.02,-0.49,0.05,-12.81,-1.02,-1.49,-60.36,2.99,-35.27,-5.2,2.81,-36.27,Forward Fall while Sitting
27:38.6,513,485,727.5,654,336,2.04,489.08,1.64,20723.88,337,780,106.18,779,11274,29353,2323,0.92,-0.03,-0.52,3.4,-9.13,-1.63,-2.2,-58.65,3.39,-36.38,-5.28,3.17,-37.27,Forward Fall while Sitting
27:38.7,115,476,714,654,337,2.04,491.25,1.65,20723.88,337,800,106.18,779,11274,13993,3123,0.91,-0.04,-0.52,1.38,-14.5,-1.84,-2.81,-58.66,3.59,-38.05,-5.39,3.33,-38.87,Forward Fall while Sitting
27:38.8,511,477,715.5,654,336,2.04,489.08,1.64,20723.88,337,783,106.18,779,11274,37258,3906,0.9,-0.04,-0.55,3.36,-10.64,-3.21,-2.62,-57.15,3.98,-39.31,-5.63,3.71,-40.03,Forward Fall while Sitting
27:38.9,442,476,714,654,337,2.04,491.25,1.65,20723.88,337,773,106.18,779,11274,44963,4679,0.91,-0.03,-0.58,-0.4,-7.62,-4.57,-2.31,-55.79,3.99,-40.28,-6.01,3.74,-40.9,Forward Fall while Sitting
27:39.0,551,478,717,654,337,2.04,491.25,1.65,20723.88,337,783,106.18,779,11274,68228,5462,0.86,-0.04,-0.59,-0.14,-9.26,-3.82,-2.87,-54.2,4.04,-41.42,-6.32,3.76,-41.93,Forward Fall while Sitting
27:39.1,599,481,721.5,654,338,2.03,493.43,1.65,20723.88,337,772,106.18,779,11274,74388,6234,1.03,-0.06,-0.59,0.18,-14.5,-2.27,-3.73,-58.44,4.11,-43.07,-6.47,3.8,-43.69,Forward Fall while Sitting
27:39.2,646,484,726,654,338,2.03,493.43,1.65,20723.88,337,773,106.18,779,11274,82093,7007,0.89,-0.03,-0.65,-0.94,-2.73,-0.63,-1.89,-52.25,4.07,-43.54,-6.45,3.83,-43.89,Forward Fall while Sitting
27:39.3,286,480,720,654,337,2.04,491.25,1.65,20723.88,336,770,92.28,777,8515,0,0,0.88,-0.03,-0.61,-1.67,-5.59,0.55,-2.27,-53.39,3.96,-44.3,-6.31,3.71,-44.67,Forward Fall while Sitting
27:39.4,572,482,723,654,337,2.04,491.25,1.65,20723.88,336,778,92.28,777,8515,15460,778,0.86,-0.04,-0.62,0.53,-2.55,-1.08,-2.5,-52.87,4.07,-44.75,-6.34,3.81,-45.08,Forward Fall while Sitting
27:39.5,446,481,721.5,654,337,2.04,491.25,1.65,20723.88,336,776,92.28,777,8515,27812,1554,0.86,-0.05,-0.61,2.47,-2.4,-2.66,-3.16,-53.18,4.37,-45.19,-6.53,4.07,-45.51,Forward Fall while Sitting
27:39.6,525,482,723,654,338,2.03,493.43,1.65,20723.88,336,773,92.28,777,8515,35517,2327,0.83,-0.04,-0.62,1.71,-3.27,-2.25,-2.85,-51.51,4.6,-45.72,-6.68,4.3,-45.95,Forward Fall while Sitting
27:39.7,450,481,721.5,654,337,2.04,491.25,1.65,20723.88,336,775,92.28,777,8515,46318,3102,0.84,-0.04,-0.67,0.6,-2.56,0.38,-2.65,-49.7,4.71,-46.18,-6.56,4.42,-46.32,Forward Fall while Sitting
27:39.8,419,480,720,654,337,2.04,491.25,1.65,20723.88,336,778,92.28,777,8515,61778,3880,0.84,-0.04,-0.67,-2.72,-1.74,-0.89,-2.84,-49.93,4.5,-46.55,-6.57,4.2,-46.69,Forward Fall while Sitting
27:39.9,494,480,720,654,337,2.04,491.25,1.65,20723.88,336,769,92.28,777,8515,63315,4649,0.83,-0.04,-0.69,-2.69,1.89,-0.44,-2.94,-48.68,4.29,-46.56,-6.53,4,-46.65,Forward Fall while Sitting
27:40.0,498,481,721.5,654,337,2.04,491.25,1.65,20723.88,336,775,92.28,777,8515,74116,5424,0.86,-0.05,-0.68,-5.26,5.65,-1.11,-2.98,-50.15,3.82,-46.2,-6.57,3.54,-46.36,Forward Fall while Sitting
27:40.1,434,480,720,654,337,2.04,491.25,1.65,20723.88,336,774,92.28,777,8515,83368,6198,0.83,-0.04,-0.69,-8.16,8.43,-0.97,-2.47,-48.87,3.06,-45.55,-6.58,2.83,-45.69,Forward Fall while Sitting
27:40.2,493,480,720,654,337,2.04,491.25,1.65,20723.88,336,778,92.28,777,8515,98828,6976,0.86,-0.04,-0.63,-7.98,12.47,-0.98,-2.54,-52.07,2.31,-44.51,-6.6,2.12,-44.81,Forward Fall while Sitting
27:40.3,457,480,720,654,338,2.03,493.43,1.65,20723.89,337,773,103.21,774,10652,0,0,0.88,-0.02,-0.63,-7.93,15.37,-0.71,-1.89,-52.53,1.58,-43.18,-6.59,1.44,-43.56,Forward Fall while Sitting
