Datetime, ECGRaw , AvgECG , ampECG , MAX , GSRRaw , Resistance , GSR(kohm) , SCL , GSRRMS , GSRMAV , EMGRaw , EMGRMS , EMGMAV , EMGVAR , EMGSSI , IEMG , AccX , AccY, AccZ , GyroX , GyroY , GyroZ , Aroll , Apitch , Groll , Gpitch, Gyaw , Combroll , Combpitch,Features
14:25.9,531,531,796.5,531,414,1.47,679.8,2.02,0,0,154,0,0,0,48052,310,1.01,-0.03,0.11,-0.14,3.31,0.01,-2.3,-81.98,0.01,0.24,0.09,-0.08,-3.05,Standing
14:26.0,482,506,759,531,416,1.46,685.34,2.03,0,0,154,0,0,0,71768,464,1,-0.02,0.1,1.91,0.38,-0.37,-1.99,-82.29,0.25,0.08,0.13,0.16,-3.21,Standing
14:26.1,492,501,751.5,531,416,1.46,685.34,2.03,0,0,154,0,0,0,95484,618,0.98,-0.04,0.1,-3.19,6.94,-0.44,-2.85,-81.92,0,0.56,0.17,-0.12,-2.74,Standing
14:26.2,487,498,747,531,418,1.45,690.91,2.04,0,0,154,0,0,0,119200,772,0.98,-0.04,0.1,-4.47,4.22,0.92,-2.75,-81.95,-0.39,0.77,0.33,-0.48,-2.54,Standing
14:26.3,500,498,747,531,419,1.44,693.71,2.05,0,0,154,0,0,0,142916,926,1.08,-0.04,0.1,-7.24,7.05,-0.81,-2.86,-82.55,-1.04,1.27,0.33,-1.11,-2.08,Standing
14:26.4,503,499,748.5,531,421,1.43,699.34,2.06,0,0,153,0,0,0,166325,1079,1.19,0.05,0.08,7,-0.37,24.98,1.62,-83.85,-0.31,1.04,2.83,-0.23,-2.36,Standing
14:26.5,558,507,760.5,558,421,1.43,699.34,2.06,0,0,153,0,0,0,189734,1232,0.92,-0.04,0.24,8.91,-9.91,-5.76,-2.92,-73.67,0.61,-0.12,2.35,0.47,-3.06,Standing
14:26.6,489,505,757.5,558,423,1.42,705,2.07,0,0,152,0,0,0,212838,1384,0.93,-0.03,0.05,8.56,-2.56,2.22,-2.15,-84.76,1.51,-0.56,2.64,1.36,-3.93,Standing
14:26.7,524,507,760.5,558,424,1.41,707.85,2.07,20723.79,418,163,154.73,154,23939,0,0,1,-0.06,0.06,6,-6.21,6.52,-3.8,-83.56,2.15,-1.37,3.36,1.91,-4.66,Standing
14:26.8,710,527,790.5,710,425,1.41,710.7,2.08,20723.79,418,168,154.73,154,23939,28224,168,1.05,-0.08,0.07,-1.73,14.43,0.68,-5.1,-82.6,2.03,-0.14,3.51,1.75,-3.44,Standing
14:26.9,515,526,789,710,426,1.4,713.57,2.08,20723.79,418,189,154.73,154,23939,4294965705,357,1.03,-0.05,0.08,0.9,9.07,-9.54,-3.07,-83.37,2.18,0.57,2.63,1.97,-2.79,Standing
14:27.0,558,529,793.5,710,428,1.39,719.33,2.09,20723.79,418,197,154.73,154,23939,4294938978,554,0.98,-0.03,0.11,-7.95,-4.78,-3.26,-2.55,-81.73,1.44,-0.11,2.38,1.28,-3.37,Standing
14:27.1,520,528,792,710,428,1.39,719.33,2.09,20723.79,418,185,154.73,154,23939,4294907667,739,0.99,-0.02,0.09,-4.06,-3.18,3.27,-1.96,-82.99,1.09,-0.63,2.79,0.97,-3.92,Standing
14:27.2,556,530,795,710,429,1.38,722.22,2.1,20723.79,418,183,154.73,154,23939,4294875620,922,1.04,-0.05,0.1,-10.31,-5.6,-2.19,-3.3,-82.4,0.11,-1.39,2.65,-0.03,-4.63,Standing
14:27.3,493,527,790.5,710,429,1.38,722.22,2.1,20723.79,418,184,154.73,154,23939,4294843940,1106,1.03,-0.04,0.08,-3.73,4.34,-4.67,-2.58,-83.74,-0.21,-1.16,2.26,-0.31,-4.46,Standing
14:27.4,492,525,787.5,710,429,1.38,722.22,2.1,20723.79,418,183,154.73,154,23939,4294811893,1289,1.03,-0.04,0.1,1.4,0.43,-2.07,-2.58,-82.64,-0.02,-1.32,2.13,-0.12,-4.57,Standing
14:27.5,520,525,787.5,710,430,1.38,725.13,2.1,20723.79,418,184,154.73,154,23939,4294780213,1473,1,-0.02,0.08,-2.37,-1.34,-3.5,-1.78,-83.73,-0.2,-1.66,1.85,-0.26,-4.94,Standing
14:27.6,463,521,781.5,710,429,1.38,722.22,2.1,20723.79,418,186,154.73,154,23939,4294749273,1659,1,0,0.07,-2.46,-2.63,-3.53,-0.61,-84.47,-0.39,-2.12,1.58,-0.4,-5.41,Standing
14:27.7,481,519,778.5,710,430,1.38,725.13,2.1,20723.99,428,194,20723.71,185,429472128,0,0,1,-0.03,0.09,0.17,0.79,-2.63,-2.3,-83.06,-0.32,-2.24,1.39,-0.4,-5.47,Standing
14:27.8,449,516,774,710,430,1.38,725.13,2.1,20723.99,428,205,20723.71,185,429472128,4294943785,205,1.01,-0.03,0.09,5.24,14.77,-5.27,-2.3,-82.91,0.27,-0.94,0.94,0.17,-4.22,Standing
14:27.9,451,513,769.5,710,430,1.38,725.13,2.1,20723.99,428,201,20723.71,185,429472128,4294918650,406,1.01,-0.02,0.1,-1.37,13.34,-4.52,-1.94,-82.49,0.19,0.21,0.56,0.11,-3.1,Standing
14:28.0,487,511,766.5,710,430,1.38,725.13,2.1,20723.99,428,199,20723.71,185,429472128,4294892715,605,0.99,-0.01,0.12,-8.79,-0.89,-2.2,-0.95,-81.54,-0.64,-0.09,0.42,-0.65,-3.34,Standing
14:28.1,464,509,763.5,710,430,1.38,725.13,2.1,20723.99,428,200,20723.71,185,429472128,4294867179,805,1.01,0,0.13,-6.08,0.37,-1.65,-0.46,-80.93,-1.2,-0.25,0.33,-1.17,-3.48,Standing
14:28.2,482,508,762,710,430,1.38,725.13,2.1,20723.99,428,188,20723.71,185,429472128,4294836987,993,1,-0.02,0.14,0.08,2.71,-1.41,-1.51,-80.57,-1.14,-0.18,0.27,-1.15,-3.4,Standing
14:28.3,469,507,760.5,710,429,1.38,722.22,2.1,20723.99,428,178,20723.71,185,429472128,4294868671,1171,0.99,-0.01,0.11,-0.17,-3.96,-1.11,-1.1,-81.97,-1.1,-0.79,0.23,-1.1,-4.03,Standing
14:28.4,482,506,759,710,429,1.38,722.22,2.1,20723.99,428,172,20723.71,185,429472128,4294898255,1343,0.99,-0.01,0.11,-2.94,-3.46,1.98,-1.06,-82.28,-1.34,-1.34,0.51,-1.33,-4.58,Standing
14:28.5,526,506,759,710,428,1.39,719.33,2.09,20723.99,428,173,20723.71,185,429472128,4294928184,1516,1.01,-0.02,0.1,-1.06,4.85,1.16,-1.75,-82.39,-1.39,-1.05,0.71,-1.4,-4.3,Standing
14:28.6,499,506,759,710,428,1.39,719.33,2.09,20723.99,428,173,20723.71,185,429472128,4294958113,1689,0.99,-0.02,0.12,-2,1.98,-0.43,-1.68,-81.18,-1.54,-1.05,0.75,-1.54,-4.25,Standing
14:28.7,546,507,760.5,710,427,1.4,716.44,2.09,20724,429,174,45.92,186,2108,0,0,1,-0.01,0.15,-1.39,-0.26,0.37,-1.27,-79.65,-1.62,-1.27,0.86,-1.6,-4.41,Standing
14:28.8,495,507,760.5,710,426,1.4,713.57,2.08,20724,429,174,45.92,186,2108,30276,174,1.01,-0.03,0.13,-0.27,-2.46,1.33,-2.37,-81.15,-1.59,-1.71,1.07,-1.62,-4.89,Standing
14:28.9,504,507,760.5,710,425,1.41,710.7,2.08,20724,429,182,45.92,186,2108,4294965160,356,1.01,-0.04,0.1,-0.64,-1.9,0.31,-2.85,-82.25,-1.6,-2.11,1.18,-1.65,-5.31,Standing
14:29.0,541,508,762,710,424,1.41,707.85,2.07,20724,429,184,45.92,186,2108,4294933480,540,0.99,-0.04,0.11,0.37,3.81,-1.7,-2.65,-81.54,-1.51,-1.93,1.09,-1.55,-5.11,Standing
14:29.1,504,508,762,710,424,1.41,707.85,2.07,20724,429,184,45.92,186,2108,4294901800,724,1,-0.03,0.12,-1.64,2.93,-1.1,-2.26,-81.43,-1.61,-1.83,1.06,-1.64,-5.02,Standing
14:29.2,539,509,763.5,710,424,1.41,707.85,2.07,20724,429,185,45.92,186,2108,4294870489,909,1.01,-0.03,0.13,-2.96,-0.25,-0.56,-2.16,-80.78,-1.86,-2.06,1.08,-1.87,-5.21,Standing
14:29.3,490,508,762,710,424,1.41,707.85,2.07,20724,429,189,45.92,186,2108,4294840674,1098,1.01,-0.02,0.11,-2.85,1.03,1.26,-1.78,-81.89,-2.09,-2.16,1.29,-2.07,-5.35,Standing
14:29.4,496,508,762,710,424,1.41,707.85,2.07,20724,429,183,45.92,186,2108,4294808627,1281,1,-0.04,0.12,-1.25,3.64,-1.54,-2.65,-81.38,-2.16,-1.99,1.21,-2.18,-5.17,Standing
14:29.5,529,508,762,710,425,1.41,710.7,2.08,20724,429,183,45.92,186,2108,4294776580,1464,1,-0.03,0.11,-2.48,-0.66,0.32,-2.17,-81.83,-2.35,-2.26,1.32,-2.34,-5.44,Standing
14:29.6,489,508,762,710,425,1.41,710.7,2.08,20724,429,184,45.92,186,2108,4294744900,1648,1,-0.04,0.11,-1.75,0.37,0.02,-3,-81.69,-2.47,-2.42,1.4,-2.49,-5.59,Standing
14:29.7,532,508,762,710,426,1.4,713.57,2.08,20723.91,424,189,20723.7,183,429471520,0,0,1.01,-0.05,0.11,-1.33,2.11,-2.52,-3.27,-81.44,-2.54,-2.41,1.23,-2.57,-5.57,Standing
14:29.8,477,508,762,710,427,1.4,716.44,2.09,20723.91,424,186,20723.7,183,429471520,4294936356,186,1.01,-0.03,0.11,-1.82,1.44,-2.81,-2.42,-81.8,-2.67,-2.47,1.03,-2.66,-5.64,Standing
14:29.9,469,507,760.5,710,427,1.4,716.44,2.09,20723.91,424,188,20723.7,183,429471520,4294906164,374,1,-0.02,0.12,-1.87,0.79,-1.14,-1.95,-81.19,-2.8,-2.59,0.99,-2.77,-5.73,Standing
14:30.0,514,507,760.5,710,428,1.39,719.33,2.09,20723.91,424,188,20723.7,183,429471520,4294875972,562,0.99,-0.04,0.1,-1.16,0.13,-2.36,-2.64,-82.23,-2.87,-2.78,0.83,-2.86,-5.96,Standing
14:30.1,476,506,759,710,428,1.39,719.33,2.09,20723.91,424,191,20723.7,183,429471520,4294846917,753,1,-0.02,0.12,-1.34,2.74,-1.64,-1.72,-81.63,-2.94,-2.71,0.74,-2.9,-5.86,Standing
14:30.2,523,506,759,710,429,1.38,722.22,2.1,20723.91,424,188,20723.7,183,429471520,4294816725,941,1,-0.02,0.13,-1.6,2.59,-0.02,-1.85,-81.1,-3.05,-2.65,0.82,-3,-5.78,Standing
14:30.3,468,506,759,710,428,1.39,719.33,2.09,20723.91,424,191,20723.7,183,429471520,4294787670,1132,1.01,-0.02,0.12,-0.86,-0.56,-0.01,-1.94,-81.42,-3.08,-2.91,0.9,-3.03,-6.05,Standing
14:30.4,477,505,757.5,710,426,1.4,713.57,2.08,20723.91,424,191,20723.7,183,429471520,4294758615,1323,1.01,-0.03,0.11,-2.46,-0.85,-1.5,-2.22,-82.07,-3.27,-3.2,0.83,-3.23,-6.35,Standing
14:30.5,528,505,757.5,710,425,1.41,710.7,2.08,20723.91,424,193,20723.7,183,429471520,4294730328,1516,0.99,-0.02,0.1,-0.54,4.37,-1.92,-1.91,-82.35,-3.27,-2.95,0.71,-3.22,-6.13,Standing
14:30.6,475,505,757.5,710,422,1.42,702.16,2.06,20723.91,424,189,20723.7,183,429471520,4294700513,1705,0.99,-0.02,0.14,-2.46,2.99,-1.56,-1.99,-80.48,-3.46,-2.85,0.64,-3.4,-5.96,Standing
14:30.7,532,505,757.5,710,421,1.43,699.34,2.06,20723.94,426,190,20723.59,189,429467104,0,0,1,-0.03,0.13,-2.76,0.47,1.06,-2.2,-80.96,-3.68,-3.01,0.82,-3.62,-6.12,Standing
14:30.8,471,505,757.5,710,419,1.44,693.71,2.05,20723.94,426,191,20723.59,189,429467104,4294938241,191,1.01,-0.03,0.13,-2.6,1.24,0.22,-2.13,-81.03,-3.89,-3.08,0.93,-3.82,-6.2,Standing
14:30.9,495,504,756,710,417,1.45,688.12,2.04,20723.94,426,196,20723.59,189,429467104,4294911121,387,1.01,-0.03,0.13,-1.38,-1.21,0.27,-2.13,-81.08,-3.97,-3.41,1.03,-3.9,-6.52,Standing
14:31.0,540,505,757.5,710,416,1.46,685.34,2.03,20723.94,426,195,20723.59,189,429467104,4294883610,582,1.01,-0.04,0.11,-1.58,-2.2,-0.48,-2.98,-81.57,-4.08,-3.83,1.06,-4.03,-6.94,Standing
14:31.1,493,505,757.5,710,415,1.47,682.57,2.03,20723.94,426,193,20723.59,189,429467104,4294855323,775,1,-0.05,0.12,-2.03,1.26,-2.89,-3.42,-81.1,-4.23,-3.91,0.85,-4.19,-7,Standing
14:31.2,538,506,759,710,415,1.47,682.57,2.03,20723.94,426,192,20723.59,189,429467104,4294826651,967,0.99,-0.04,0.11,-2.86,2.53,-0.87,-2.63,-81.8,-4.46,-3.86,0.84,-4.39,-6.97,Standing
14:31.3,700,509,763.5,710,415,1.47,682.57,2.03,20723.94,426,188,20723.59,189,429467104,4294796459,1155,0.99,-0.02,0.12,-0.93,3.24,0.21,-1.91,-81.55,-4.5,-3.73,0.94,-4.39,-6.84,Standing
14:31.4,498,509,763.5,710,414,1.47,679.8,2.02,20723.94,426,186,20723.59,189,429467104,4294765519,1341,1.01,-0.04,0.11,-3.01,-1.73,1.32,-2.94,-81.64,-4.75,-4.11,1.16,-4.67,-7.21,Standing
14:31.5,552,510,765,710,415,1.47,682.57,2.03,20723.94,426,186,20723.59,189,429467104,4294734579,1527,1.02,-0.05,0.12,-3.16,2.3,-1.37,-3.18,-81.27,-5.01,-4.08,1.1,-4.94,-7.17,Standing
14:31.6,492,509,763.5,710,415,1.47,682.57,2.03,20723.94,426,185,20723.59,189,429467104,4294703268,1712,1,-0.03,0.12,-2.89,3.98,-3.15,-2.55,-81.18,-5.25,-3.88,0.86,-5.14,-6.97,Standing
14:31.7,509,509,763.5,710,415,1.47,682.57,2.03,20723.73,415,185,20723.59,189,429467200,0,0,1,-0.03,0.12,-1.93,0.37,-1.89,-2.01,-81.18,-5.38,-4.04,0.75,-5.25,-7.13,Standing
14:31.8,528,510,765,710,416,1.46,685.34,2.03,20723.73,415,183,20723.59,189,429467200,4294935249,183,1,-0.04,0.12,-2.15,-0.61,-1.66,-3.06,-80.96,-5.55,-4.31,0.66,-5.45,-7.37,Standing
14:31.9,512,510,765,710,417,1.45,688.12,2.04,20723.73,415,181,20723.59,189,429467200,714,364,0.99,-0.04,0.12,-0.88,2.49,-2.56,-2.73,-81.25,-5.58,-4.26,0.48,-5.46,-7.34,Standing
14:32.0,560,510,765,710,418,1.45,690.91,2.04,20723.73,415,184,20723.59,189,429467200,4294936330,548,1,-0.03,0.13,-2.63,-0.08,-1.27,-2.41,-81.01,-5.79,-4.47,0.43,-5.65,-7.53,Standing
14:32.1,503,510,765,710,420,1.44,696.52,2.05,20723.73,415,181,20723.59,189,429467200,1795,729,1,-0.03,0.11,-3.49,-0.51,-0.73,-2.4,-81.68,-6.08,-4.72,0.44,-5.94,-7.8,Standing
14:32.2,488,510,765,710,420,1.44,696.52,2.05,20723.73,415,181,20723.59,189,429467200,34556,910,1.01,-0.04,0.11,-2.66,-0.02,-1.57,-2.65,-81.66,-6.3,-4.93,0.36,-6.15,-8,Standing
14:32.3,497,510,765,710,421,1.43,699.34,2.06,20723.73,415,180,20723.59,189,429467200,66956,1090,1,-0.04,0.12,-3.23,-0.24,-2.18,-2.6,-81.41,-6.57,-5.15,0.22,-6.41,-8.2,Standing
14:32.4,513,510,765,710,422,1.42,702.16,2.06,20723.73,415,181,20723.59,189,429467200,99717,1271,0.99,-0.04,0.11,-3.15,2.61,-1.92,-2.63,-81.82,-6.83,-5.09,0.1,-6.66,-8.16,Standing
14:32.5,521,510,765,710,422,1.42,702.16,2.06,20723.73,415,182,20723.59,189,429467200,67305,1453,1,-0.03,0.12,-1.95,2.88,-1.95,-2.1,-81.37,-6.97,-5,-0.01,-6.77,-8.06,Standing
14:32.6,500,510,765,710,423,1.42,705,2.07,20723.73,415,181,20723.59,189,429467200,100066,1634,1.01,-0.02,0.12,-3.05,0.12,-0.07,-1.89,-81.54,-7.22,-5.19,0.06,-7.01,-8.25,Standing
14:32.7,481,509,763.5,710,424,1.41,707.85,2.07,20723.82,420,182,82.25,181,6764,0,0,1.01,-0.03,0.12,-3.12,-0.12,-1.79,-2.15,-81.73,-7.47,-5.4,-0.04,-7.26,-8.46,Standing
14:32.8,476,509,763.5,710,424,1.41,707.85,2.07,20723.82,420,182,82.25,181,6764,4294934884,182,1.01,-0.04,0.12,-2.69,-0.85,-2.91,-2.62,-81.53,-7.69,-5.69,-0.25,-7.48,-8.72,Standing
14:32.9,511,509,763.5,710,424,1.41,707.85,2.07,20723.82,420,183,82.25,181,6764,4294902837,365,0.99,-0.03,0.11,-2.37,-1.07,-1.04,-2.3,-81.67,-7.87,-6,-0.28,-7.65,-9.03,Standing
14:33.0,502,509,763.5,710,425,1.41,710.7,2.08,20723.82,420,182,82.25,181,6764,4294870425,547,1,-0.03,0.11,-2.34,4.66,-1.04,-2.28,-81.63,-8.05,-5.73,-0.3,-7.82,-8.77,Standing
14:33.1,508,509,763.5,710,426,1.4,713.57,2.08,20723.82,420,182,82.25,181,6764,4294838013,729,0.99,-0.02,0.1,-3.21,2.84,-0.31,-1.6,-82.31,-8.31,-5.65,-0.25,-8.05,-8.72,Standing
14:33.2,476,508,762,710,426,1.4,713.57,2.08,20723.82,420,184,82.25,181,6764,4294806333,913,1.01,-0.03,0.13,-2.79,0.6,0.08,-2.47,-80.64,-8.54,-5.79,-0.17,-8.3,-8.79,Standing
14:33.3,479,508,762,710,427,1.4,716.44,2.09,20723.82,420,180,82.25,181,6764,4294838733,1093,1.02,-0.03,0.13,-2.16,0.22,-1.4,-2.25,-81.09,-8.7,-5.97,-0.23,-8.44,-8.97,Standing
14:33.4,508,508,762,710,427,1.4,716.44,2.09,20723.82,420,172,82.25,181,6764,4294868317,1265,1.01,-0.03,0.12,-1.16,-0.08,-4,-2.24,-81.47,-8.76,-6.18,-0.55,-8.5,-9.19,Standing
14:33.5,498,508,762,710,427,1.4,716.44,2.09,20723.82,420,169,82.25,181,6764,4294896878,1434,1,-0.02,0.12,-0.82,0.56,-1.98,-1.47,-81.69,-8.79,-6.33,-0.67,-8.49,-9.34,Standing
14:33.6,491,508,762,710,428,1.39,719.33,2.09,20723.82,420,169,82.25,181,6764,4294925439,1603,1,-0.02,0.1,-1.37,-0.08,-0.98,-1.75,-82.56,-8.87,-6.53,-0.69,-8.58,-9.57,Standing
14:33.7,481,507,760.5,710,428,1.39,719.33,2.09,20723.94,426,171,20724.27,177,429495456,0,0,0.99,-0.03,0.1,-2.89,1.12,-0.34,-2.19,-82.55,-9.1,-6.62,-0.65,-8.82,-9.66,Standing
14:33.8,485,507,760.5,710,429,1.38,722.22,2.1,20723.94,426,169,20724.27,177,429495456,28561,169,1.01,-0.02,0.13,-3.05,3.73,-0.27,-1.97,-80.75,-9.35,-6.45,-0.59,-9.06,-9.42,Standing
14:33.9,508,507,760.5,710,429,1.38,722.22,2.1,20723.94,426,169,20724.27,177,429495456,57122,338,1.01,-0.04,0.13,-1.61,-1.63,-2.11,-2.79,-80.95,-9.46,-6.81,-0.73,-9.19,-9.77,Standing
14:34.0,515,507,760.5,710,430,1.38,725.13,2.1,20723.94,426,172,20724.27,177,429495456,86706,510,1,-0.03,0.13,0.18,1.95,-2.24,-2.09,-81.12,-9.38,-6.81,-0.87,-9.09,-9.79,Standing
14:34.1,488,507,760.5,710,430,1.38,725.13,2.1,20723.94,426,169,20724.27,177,429495456,115267,679,1,-0.02,0.11,0.69,-0.61,-0.89,-1.61,-82.12,-9.26,-7.08,-0.88,-8.95,-10.08,Standing
14:34.2,501,507,760.5,710,430,1.38,725.13,2.1,20723.94,426,168,20724.27,177,429495456,143491,847,1,-0.02,0.11,-0.68,0.27,-0.27,-1.96,-81.79,-9.27,-7.26,-0.83,-8.98,-10.24,Standing
14:34.3,859,511,766.5,859,430,1.38,725.13,2.1,20723.94,426,168,20724.27,177,429495456,171715,1015,1.01,-0.01,0.1,-2.84,2.25,-0.79,-1.4,-82.94,-9.5,-7.23,-0.83,-9.18,-10.26,Standing
14:34.4,467,510,765,859,430,1.38,725.13,2.1,20723.94,426,167,20724.27,177,429495456,199604,1182,1.01,-0.02,0.1,-1.54,-1.94,-0.69,-1.44,-82.81,-9.6,-7.63,-0.82,-9.27,-10.63,Standing
14:34.5,496,510,765,859,429,1.38,722.22,2.1,20723.94,426,167,20724.27,177,429495456,227493,1349,1,-0.03,0.11,-3.21,0.28,-0.78,-2.53,-81.61,-9.87,-7.8,-0.82,-9.58,-10.75,Standing
14:34.6,435,509,763.5,859,428,1.39,719.33,2.09,20723.94,426,167,20724.27,177,429495456,255382,1516,0.99,-0.03,0.1,-4.23,4.22,-0.98,-2.03,-82.36,-10.24,-7.57,-0.84,-9.91,-10.57,Standing
14:34.8,458,509,763.5,859,427,1.4,716.44,2.09,20724,429,167,168.31,168,28326,0,0,1,-0.03,0.12,-4.35,1.36,0.31,-2.42,-81.14,-10.62,-7.64,-0.73,-10.29,-10.58,Standing
14:34.8,429,508,762,859,425,1.41,710.7,2.08,20724,429,167,168.31,168,28326,27889,167,1.01,-0.03,0.13,-2.31,0.5,-0.4,-2.33,-80.92,-10.79,-7.79,-0.69,-10.46,-10.71,Standing
14:35.0,449,507,760.5,859,424,1.41,707.85,2.07,20724,429,166,168.31,168,28326,55445,333,1.01,-0.04,0.12,-1.75,2.51,-3.24,-2.65,-81.45,-10.91,-7.74,-0.94,-10.58,-10.68,Standing
14:35.0,489,507,760.5,859,422,1.42,702.16,2.06,20724,429,166,168.31,168,28326,83001,499,1,-0.03,0.11,2.6,5.18,-3.98,-2.19,-81.8,-10.6,-7.42,-1.26,-10.26,-10.39,Standing
14:35.2,507,507,760.5,859,421,1.43,699.34,2.06,20724,429,165,168.31,168,28326,110226,664,0.99,-0.01,0.11,-1.24,0.01,-1.42,-1.3,-81.99,-10.67,-7.62,-1.32,-10.29,-10.59,Standing
14:35.3,499,507,760.5,859,420,1.44,696.52,2.05,20724,429,165,168.31,168,28326,137451,829,1,-0.01,0.1,-1.28,-1.2,0.44,-1.37,-82.49,-10.74,-7.94,-1.2,-10.37,-10.93,Standing
14:35.4,502,507,760.5,859,420,1.44,696.52,2.05,20724,429,165,168.31,168,28326,164676,994,1.01,-0.02,0.1,-1.34,2.13,-1.17,-1.56,-82.64,-10.82,-7.93,-1.23,-10.45,-10.92,Standing
14:42.0,542,542,813,542,421,1.43,699.34,2.06,0,0,152,0,0,0,45905,303,0.98,0.08,0.09,4.98,18.21,-15.92,3.84,-81.72,0.74,2.59,-2.23,0.87,-0.78,Left Fall while Standing
14:42.1,586,564,846,586,419,1.44,693.71,2.05,0,0,152,0,0,0,69009,455,0.98,0.12,0.11,0.2,3.73,-5.88,6.18,-79.23,0.82,2.76,-2.72,1.03,-0.52,Left Fall while Standing
14:42.2,547,558,837,586,416,1.46,685.34,2.03,0,0,151,0,0,0,91810,606,0.99,0.08,0.16,1.42,-6.27,-3.72,3.76,-78.38,1.01,1.96,-3,1.12,-1.26,Left Fall while Standing
14:42.3,547,555,832.5,586,416,1.46,685.34,2.03,0,0,151,0,0,0,114611,757,1.01,0.1,0.12,6.99,-1.28,-16.4,4.98,-79.6,1.73,1.64,-4.5,1.86,-1.61,Left Fall while Standing
14:42.4,550,554,831,586,414,1.47,679.8,2.02,0,0,152,0,0,0,137715,909,0.95,0.15,0.11,8.21,2.97,-17.04,8.29,-77.55,2.59,1.74,-6.09,2.82,-1.44,Left Fall while Standing
14:42.5,874,607,910.5,874,414,1.47,679.8,2.02,0,0,152,0,0,0,160819,1061,0.97,0.15,0.09,9.96,10.79,-13.21,8.34,-78.04,3.62,2.59,-7.3,3.8,-0.64,Left Fall while Standing
14:42.6,530,596,894,874,413,1.48,677.05,2.02,0,0,151,0,0,0,183620,1212,0.98,0.18,0.11,3.12,0.56,-10.05,9.8,-76.24,3.97,2.45,-8.2,4.21,-0.7,Left Fall while Standing
14:42.7,552,591,886.5,874,413,1.48,677.05,2.02,0,0,150,0,0,0,206120,1362,1,0.19,0.09,-4.12,1.46,-9.82,10.32,-76.3,3.63,2.4,-9.07,3.89,-0.75,Left Fall while Standing
14:42.8,472,577,865.5,874,413,1.48,677.05,2.02,20723.75,416,152,151.4,151,22921,0,0,0.98,0.21,0.13,2.35,3.01,-11.15,11.46,-74.35,3.91,2.5,-10.1,4.22,-0.58,Left Fall while Standing
14:42.9,492,569,853.5,874,413,1.48,677.05,2.02,20723.75,416,149,151.4,151,22921,22201,149,0.95,0.24,0.13,8.88,9.34,-14.05,13.39,-72.46,4.85,3.22,-11.41,5.19,0.2,Left Fall while Standing
14:43.0,428,556,834,874,414,1.47,679.8,2.02,20723.75,416,149,151.4,151,22921,44402,298,0.94,0.26,0.15,9.5,5.76,-16.58,14.91,-70.53,5.85,3.59,-12.98,6.21,0.63,Left Fall while Standing
14:43.1,448,547,820.5,874,414,1.47,679.8,2.02,20723.75,416,149,151.4,151,22921,66603,447,0.95,0.28,0.18,9.36,4.5,-17.99,15.56,-69.21,6.84,3.84,-14.7,7.19,0.92,Left Fall while Standing
14:43.2,485,542,813,874,415,1.47,682.57,2.03,20723.75,416,151,151.4,151,22921,89404,598,1,0.33,0.11,5.31,-3.16,-22.37,17.45,-69.27,7.42,3.33,-16.83,7.82,0.43,Left Fall while Standing
14:43.3,464,536,804,874,415,1.47,682.57,2.03,20723.75,416,153,151.4,151,22921,112813,751,0.9,0.38,0.13,4.69,6.02,-19.08,22.3,-64.23,7.94,3.73,-18.64,8.51,1.01,Left Fall while Standing
14:43.4,446,530,795,874,416,1.46,685.34,2.03,20723.75,416,154,151.4,151,22921,136529,905,0.87,0.38,0.16,-0.5,3.91,-10.65,22.86,-63.01,7.94,3.92,-19.63,8.54,1.25,Left Fall while Standing
14:43.5,439,525,787.5,874,414,1.47,679.8,2.02,20723.75,416,149,151.4,151,22921,158730,1054,0.92,0.38,0.14,3.62,-6.11,-6.77,21.63,-64.64,8.36,3.12,-20.22,8.89,0.41,Left Fall while Standing
14:43.6,849,544,816,874,412,1.48,674.3,2.01,20723.75,416,153,151.4,151,22921,182139,1207,0.94,0.4,0.12,6.23,-10.75,-10.21,22.29,-64.46,9.04,1.85,-21.16,9.57,-0.81,Left Fall while Standing
14:43.7,408,536,804,874,410,1.5,668.84,2,20723.75,416,154,151.4,151,22921,205855,1361,0.91,0.44,0.09,0.36,-4.26,-9.47,24.81,-62.45,9.13,1.21,-22.04,9.76,-1.33,Left Fall while Standing
14:43.8,434,531,796.5,874,407,1.51,660.71,1.99,20723.67,413,156,151.72,151,23018,0,0,0.88,0.45,0.09,-5.31,8.84,-8.82,26.07,-61.17,8.66,1.88,-22.83,9.36,-0.64,Left Fall while Standing
14:43.9,388,524,786,874,405,1.53,655.34,1.98,20723.67,413,156,151.72,151,23018,24336,156,0.9,0.45,0.11,-3.98,7.91,-6.98,25.71,-61.21,8.32,2.47,-23.44,9.02,-0.08,Left Fall while Standing
14:44.0,426,519,778.5,874,403,1.54,650,1.97,20723.67,413,155,151.72,151,23018,48361,311,0.89,0.45,0.1,-2.19,2.23,-5.84,25.89,-61.29,8.16,2.49,-23.94,8.87,-0.06,Left Fall while Standing
14:44.1,429,515,772.5,874,403,1.54,650,1.97,20723.67,413,155,151.72,151,23018,72386,466,0.88,0.46,0.11,-4.08,6.8,-2.44,26.95,-59.97,7.81,2.97,-24.11,8.58,0.45,Left Fall while Standing
14:44.2,455,512,768,874,401,1.55,644.69,1.96,20723.67,413,157,151.72,151,23018,97035,623,0.88,0.45,0.14,-3,-2.21,-1.68,26.44,-59.98,7.57,2.55,-24.19,8.33,0.05,Left Fall while Standing
14:44.3,479,511,766.5,874,402,1.54,647.34,1.96,20723.67,413,154,151.72,151,23018,120751,777,0.87,0.45,0.14,-2.99,-0.3,-0.96,26.59,-59.81,7.33,2.32,-24.21,8.1,-0.17,Left Fall while Standing
14:44.4,532,512,768,874,402,1.54,647.34,1.96,20723.67,413,158,151.72,151,23018,145715,935,0.86,0.46,0.12,-2.34,3.05,-3.9,27.1,-59.72,7.15,2.42,-24.52,7.95,-0.06,Left Fall while Standing
14:44.5,498,511,766.5,874,401,1.55,644.69,1.96,20723.67,413,154,151.72,151,23018,169431,1089,0.87,0.47,0.11,-2.89,2.84,-2.39,27.62,-59.31,6.92,2.51,-24.68,7.75,0.04,Left Fall while Standing
14:44.6,511,511,766.5,874,401,1.55,644.69,1.96,20723.67,413,153,151.72,151,23018,192840,1242,0.88,0.47,0.15,-0.23,1.63,-1.59,26.97,-59.33,6.95,2.47,-24.76,7.75,0,Left Fall while Standing
14:44.7,707,518,777,874,402,1.54,647.34,1.96,20723.67,413,157,151.72,151,23018,217489,1399,0.88,0.46,0.14,-1.04,-2.09,-10.45,26.84,-59.69,6.9,2.06,-25.73,7.7,-0.41,Left Fall while Standing
14:44.7,467,516,774,874,401,1.55,644.69,1.96,155.11,402,156,155.51,155,24181,0,0,0.83,0.49,0.13,1.38,-1.52,-11.42,29.78,-56.97,7.09,1.72,-26.77,8,-0.63,Left Fall while Standing
14:44.9,536,517,775.5,874,402,1.54,647.34,1.96,155.11,402,156,155.51,155,24181,24336,156,0.82,0.5,0.1,-1.02,-2.27,-1.28,30.83,-56.28,7.05,1.29,-26.82,8,-1.01,Left Fall while Standing
14:44.9,493,516,774,874,402,1.54,647.34,1.96,155.11,402,156,155.51,155,24181,48672,312,0.85,0.5,0.11,-4.91,-1.14,1.53,29.5,-57.52,6.62,0.98,-26.59,7.53,-1.36,Left Fall while Standing
14:45.0,517,516,774,874,404,1.53,652.67,1.97,155.11,402,156,155.51,155,24181,73008,468,0.87,0.48,0.13,-3.86,1.09,1.72,28.31,-58.35,6.29,0.89,-26.34,7.17,-1.48,Left Fall while Standing
14:45.1,490,515,772.5,874,405,1.53,655.34,1.98,155.11,402,158,155.51,155,24181,97972,626,0.85,0.49,0.15,-4.66,1.09,2.45,29.3,-57.04,5.89,0.8,-26.02,6.82,-1.52,Left Fall while Standing
14:45.2,454,513,769.5,874,404,1.53,652.67,1.97,155.11,402,158,155.51,155,24181,122936,784,0.88,0.48,0.12,1.89,-3.98,4.91,27.99,-58.9,6.13,0.21,-25.45,7,-2.16,Left Fall while Standing
14:45.3,521,514,771,874,404,1.53,652.67,1.97,155.11,402,159,155.51,155,24181,148217,943,0.89,0.48,0.08,0.18,-1.33,-1,27.62,-59.77,6.2,-0.12,-25.48,7.06,-2.51,Left Fall while Standing
14:45.4,502,513,769.5,874,404,1.53,652.67,1.97,155.11,402,159,155.51,155,24181,173498,1102,0.85,0.47,0.09,-2.98,3.51,1.83,28.19,-59.11,5.96,0.03,-25.21,6.85,-2.34,Left Fall while Standing
14:45.5,520,514,771,874,405,1.53,655.34,1.98,155.11,402,159,155.51,155,24181,198779,1261,0.87,0.46,0.11,-4.5,1.11,8.65,27.32,-59.62,5.57,-0.06,-24.28,6.44,-2.44,Left Fall while Standing
14:45.6,493,513,769.5,874,404,1.53,652.67,1.97,155.11,402,159,155.51,155,24181,224060,1420,0.87,0.45,0.12,-0.45,-2.32,10.63,26.41,-60.45,5.58,-0.49,-23.15,6.41,-2.89,Left Fall while Standing
14:45.7,541,514,771,874,404,1.53,652.67,1.97,137.39,403,159,157.91,157,24933,0,0,0.9,0.43,0.08,-0.47,-1.79,12.05,25.09,-62.3,5.59,-0.86,-21.88,6.37,-3.32,Left Fall while Standing
14:45.8,539,514,771,874,404,1.53,652.67,1.97,137.39,403,159,157.91,157,24933,25281,159,0.91,0.42,0.11,-3.34,0.57,13.25,24.11,-62.9,5.31,-1,-20.49,6.06,-3.48,Left Fall while Standing
14:45.9,572,516,774,874,405,1.53,655.34,1.98,137.39,403,159,157.91,157,24933,50562,318,0.9,0.38,0.09,-4.28,1.16,19.95,22.36,-64.75,4.94,-1.09,-18.43,5.64,-3.63,Left Fall while Standing
14:46.0,576,517,775.5,874,405,1.53,655.34,1.98,137.39,403,160,157.91,157,24933,76162,478,0.92,0.35,0.11,-3.2,-1.5,23.06,19.96,-66.86,4.68,-1.44,-16.05,5.29,-4.05,Left Fall while Standing
14:46.1,521,517,775.5,874,405,1.53,655.34,1.98,137.39,403,160,157.91,157,24933,101762,638,0.97,0.3,0.09,-2.5,-4.19,19.25,16.74,-70.35,4.48,-2.06,-14.04,4.97,-4.79,Left Fall while Standing
14:46.2,531,517,775.5,874,405,1.53,655.34,1.98,137.39,403,160,157.91,157,24933,127362,798,0.98,0.28,0.11,-0.6,-1.91,13.76,15.2,-71.44,4.48,-2.44,-12.6,4.91,-5.2,Left Fall while Standing
14:46.3,536,518,777,874,405,1.53,655.34,1.98,137.39,403,161,157.91,157,24933,153283,959,0.97,0.26,0.07,-1.7,1.6,10.97,14.21,-73.13,4.37,-2.48,-11.43,4.76,-5.31,Left Fall while Standing
14:46.4,547,519,778.5,874,405,1.53,655.34,1.98,137.39,403,160,157.91,157,24933,178883,1119,0.98,0.24,0.07,-2.71,-2.95,7.97,13.24,-73.97,4.15,-2.97,-10.56,4.52,-5.81,Left Fall while Standing
14:46.5,520,519,778.5,874,404,1.53,652.67,1.97,137.39,403,161,157.91,157,24933,204804,1280,0.99,0.21,0.06,-3.15,-3.63,5.77,11.49,-75.82,3.89,-3.54,-9.91,4.2,-6.43,Left Fall while Standing
14:46.6,490,518,777,874,405,1.53,655.34,1.98,137.39,403,159,157.91,157,24933,230085,1439,0.96,0.21,0.09,-5.37,1.58,3.79,11.84,-74.91,3.41,-3.58,-9.45,3.75,-6.43,Left Fall while Standing
14:46.7,485,517,775.5,874,403,1.54,650,1.97,20723.99,404,158,159.7,159,25503,0,0,0.96,0.2,0.05,-7.28,0.6,9.9,11.36,-76.16,2.75,-3.72,-8.4,3.1,-6.61,Left Fall while Standing
14:46.8,532,518,777,874,404,1.53,652.67,1.97,20723.99,404,163,159.7,159,25503,26569,163,0.98,0.17,0.07,-7.79,-0.12,17.05,9.41,-77.61,2.04,-3.93,-6.63,2.33,-6.87,Left Fall while Standing
14:46.9,509,517,775.5,874,404,1.53,652.67,1.97,20723.99,404,164,159.7,159,25503,53465,327,1,0.13,0.07,-6.36,4.07,20.15,7.02,-79.85,1.46,-3.72,-4.54,1.68,-6.77,Left Fall while Standing
14:47.0,542,518,777,874,404,1.53,652.67,1.97,20723.99,404,165,159.7,159,25503,80690,492,0.95,0.11,0.08,-8.77,2.1,20.74,5.75,-80.32,0.65,-3.71,-2.41,0.85,-6.77,Left Fall while Standing
14:47.1,507,518,777,874,405,1.53,655.34,1.98,20723.99,404,164,159.7,159,25503,107586,656,1,0.05,0.11,-8.98,5.51,20.47,2.51,-81.36,-0.19,-3.36,-0.3,-0.08,-6.48,Left Fall while Standing
14:47.2,509,517,775.5,874,404,1.53,652.67,1.97,20723.99,404,165,159.7,159,25503,134811,821,1.03,0.03,0.09,-6.67,-1.69,16.83,0.83,-83.22,-0.8,-3.73,1.46,-0.73,-6.91,Left Fall while Standing
14:47.3,531,518,777,874,404,1.53,652.67,1.97,20723.99,404,162,159.7,159,25503,161055,983,1.01,-0.02,0.08,-11.38,-10.56,13.3,-1.93,-83.96,-1.88,-4.99,2.87,-1.88,-8.15,Left Fall while Standing
14:47.4,463,517,775.5,874,405,1.53,655.34,1.98,20723.99,404,165,159.7,159,25503,188280,1148,1,-0.02,0.06,-9.56,-6.95,14.21,-1.53,-85.05,-2.78,-5.88,4.37,-2.73,-9.05,Left Fall while Standing
14:47.5,480,516,774,874,405,1.53,655.34,1.98,20723.99,404,166,159.7,159,25503,215836,1314,1.03,-0.06,0.05,-9.31,-3.55,10.29,-3.76,-84.36,-3.67,-6.44,5.49,-3.67,-9.56,Left Fall while Standing
14:47.6,456,515,772.5,874,404,1.53,652.67,1.97,20723.99,404,166,159.7,159,25503,243392,1480,1.04,-0.07,0.07,-2.65,5.21,0.32,-4.56,-82.98,-3.87,-6.12,5.6,-3.9,-9.2,Left Fall while Standing
14:47.7,428,514,771,874,404,1.53,652.67,1.97,112.81,404,164,164.4,164,27027,0,0,1.01,-0.09,0,-10.36,-9.82,0.87,-5.84,-83.16,-4.83,-7.28,5.76,-4.87,-10.32,Left Fall while Standing
14:47.8,473,513,769.5,874,405,1.53,655.34,1.98,112.81,404,164,164.4,164,27027,26896,164,1,-0.08,0.01,-17.42,-1.82,8.95,-5.34,-83.62,-6.54,-7.67,6.74,-6.49,-10.7,Left Fall while Standing
14:47.9,430,511,766.5,874,405,1.53,655.34,1.98,112.81,404,165,164.4,164,27027,54121,329,1,-0.09,0.02,-10.52,7.79,4.53,-5.84,-82.98,-7.52,-7.09,7.27,-7.46,-10.13,Left Fall while Standing
14:48.0,464,511,766.5,874,405,1.53,655.34,1.98,112.81,404,165,164.4,164,27027,81346,494,1.01,-0.12,0.04,-5.04,0.97,5.36,-7.54,-81.11,-7.97,-7.19,7.88,-7.95,-10.15,Left Fall while Standing
14:48.1,810,515,772.5,874,406,1.52,658.02,1.98,112.81,404,164,164.4,164,27027,108242,658,0.99,-0.1,0.08,2.77,16.27,-1.79,-6.19,-81.09,-7.63,-5.75,7.78,-7.57,-8.77,Left Fall while Standing
14:48.2,478,515,772.5,874,406,1.52,658.02,1.98,112.81,404,165,164.4,164,27027,135467,823,1,-0.09,0.04,-6.2,2.47,8.05,-5.8,-82.78,-8.19,-5.71,8.65,-8.09,-8.79,Left Fall while Standing
14:48.3,550,515,772.5,874,407,1.51,660.71,1.99,112.81,404,165,164.4,164,27027,162692,988,1.02,-0.15,0.05,-7.29,-8.08,0.38,-8.96,-79.65,-8.85,-6.71,8.77,-8.86,-9.62,Left Fall while Standing
14:48.4,513,515,772.5,874,408,1.51,663.41,1.99,112.81,404,166,164.4,164,27027,190248,1154,1.04,-0.14,0.03,-4.73,0.37,-6.03,-8.43,-80.41,-9.27,-6.87,8.25,-9.24,-9.81,Left Fall while Standing
14:48.5,541,516,774,874,409,1.5,666.12,2,112.81,404,165,164.4,164,27027,217473,1319,1,-0.12,0,-1.76,3.29,-3.67,-7.66,-81.34,-9.39,-6.74,7.96,-9.32,-9.72,Left Fall while Standing
14:48.6,617,517,775.5,874,410,1.5,668.84,2,112.81,404,165,164.4,164,27027,244698,1484,1,-0.13,0.07,-4.59,-0.77,1.53,-8.04,-80.05,-9.79,-7.01,8.19,-9.72,-9.93,Left Fall while Standing
14:48.7,519,517,775.5,874,412,1.48,674.3,2.01,20723.56,407,168,165.2,165,27291,0,0,1.01,-0.12,0.06,1.88,5.95,0.79,-7.33,-80.93,-9.55,-6.62,8.34,-9.46,-9.59,Left Fall while Standing
14:48.8,542,518,777,874,413,1.48,677.05,2.02,20723.56,407,165,165.2,165,27291,27225,165,1.02,-0.14,0.05,-0.81,4.06,0.75,-8.54,-79.98,-9.57,-6.41,8.5,-9.53,-9.36,Left Fall while Standing
14:48.9,503,517,775.5,874,413,1.48,677.05,2.02,20723.56,407,166,165.2,165,27291,54781,331,1.02,-0.14,0.09,0.14,1.74,-2.34,-8.4,-79.22,-9.5,-6.44,8.34,-9.46,-9.35,Left Fall while Standing
14:49.0,498,517,775.5,874,415,1.47,682.57,2.03,20723.56,407,170,165.2,165,27291,83681,501,1.01,-0.12,0.06,0.6,0.71,-2.11,-7.11,-81.04,-9.39,-6.57,8.21,-9.3,-9.55,Left Fall while Standing
14:49.1,457,516,774,874,417,1.45,688.12,2.04,20723.56,407,169,165.2,165,27291,112242,670,1.01,-0.14,0.06,-0.8,-0.65,-1.55,-8.24,-80.06,-9.41,-6.83,8.14,-9.36,-9.76,Left Fall while Standing
14:49.2,497,516,774,874,417,1.45,688.12,2.04,20723.56,407,170,165.2,165,27291,141142,840,0.99,-0.11,0.04,2.31,4.26,-1.73,-6.92,-81.74,-9.12,-6.61,8.04,-9.03,-9.61,Left Fall while Standing
14:49.3,526,516,774,874,418,1.45,690.91,2.04,20723.56,407,169,165.2,165,27291,169703,1009,1,-0.13,0.07,-4.53,0.59,3.4,-8.12,-79.86,-9.52,-6.75,8.46,-9.46,-9.67,Left Fall while Standing
14:49.4,521,516,774,874,419,1.44,693.71,2.05,20723.56,407,170,165.2,165,27291,198603,1179,1.01,-0.14,0.05,-0.57,1.89,0.24,-8.71,-79.78,-9.52,-6.76,8.56,-9.49,-9.68,Left Fall while Standing
14:52.1,527,527,790.5,527,428,1.39,719.33,2.09,0,0,168,0,0,0,57124,338,1.02,-0.15,0.12,-3.11,2.38,0.08,-8.67,-77.96,-0.31,0.12,0.55,-0.64,-3,Right Fall while Standing
14:52.2,870,698,1047,870,430,1.38,725.13,2.1,0,0,169,0,0,0,85685,507,1.01,-0.12,0.13,-1.41,4.42,-6.01,-7.21,-78.58,-0.39,0.36,0.05,-0.66,-2.8,Right Fall while Standing
14:52.3,494,630,945,870,428,1.39,719.33,2.09,0,0,168,0,0,0,113909,675,1,-0.12,0.12,-2.25,-0.59,-2.6,-7.18,-78.78,-0.56,0.1,-0.13,-0.82,-3.05,Right Fall while Standing
14:52.4,529,605,907.5,870,428,1.39,719.33,2.09,0,0,167,0,0,0,141798,842,0.95,-0.11,0.14,-4.64,-10.28,6,-7.32,-77.83,-0.96,-1.1,0.54,-1.21,-4.17,Right Fall while Standing
14:52.5,485,581,871.5,870,428,1.39,719.33,2.09,0,0,166,0,0,0,169354,1008,0.96,-0.11,0.09,-0.33,6.45,9.56,-6.91,-80.14,-0.93,-0.66,1.55,-1.17,-3.84,Right Fall while Standing
14:52.6,513,569,853.5,870,428,1.39,719.33,2.09,0,0,166,0,0,0,196910,1174,1,-0.16,0.11,-4.19,8.58,10.51,-9.57,-77.61,-1.29,-0.02,2.66,-1.62,-3.12,Right Fall while Standing
14:52.7,464,554,831,870,429,1.38,722.22,2.1,0,0,166,0,0,0,224466,1340,1.01,-0.21,0.16,-7.53,0.37,0.07,-12.18,-73.74,-1.97,-0.18,2.74,-2.37,-3.12,Right Fall while Standing
14:52.8,487,546,819,870,429,1.38,722.22,2.1,0,0,166,0,0,0,252022,1506,1.02,-0.18,0.1,-0.95,5.15,-7.53,-10.81,-76.74,-2,0.14,2.07,-2.36,-2.94,Right Fall while Standing
14:52.9,514,542,813,870,430,1.38,725.13,2.1,20724,428,167,167.31,167,27990,0,0,0.94,-0.13,0.17,-1.61,4.27,3.02,-8.56,-75.36,-2.11,0.36,2.45,-2.37,-2.67,Right Fall while Standing
14:53.0,505,538,807,870,430,1.38,725.13,2.1,20724,428,164,167.31,167,27990,26896,164,0.95,-0.16,0.15,-7.01,-4.47,14.02,-9.77,-75.44,-2.75,-0.28,3.91,-3.03,-3.29,Right Fall while Standing
14:53.1,492,534,801,870,429,1.38,722.22,2.1,20724,428,169,167.31,167,27990,55457,333,0.98,-0.21,0.13,-0.6,-0.67,12.97,-12.79,-73.95,-2.75,-0.55,5.3,-3.15,-3.49,Right Fall while Standing
14:53.2,530,534,801,870,430,1.38,725.13,2.1,20724,428,168,167.31,167,27990,83681,501,0.93,-0.26,0.14,-4.38,-1.19,9.15,-15.76,-71.03,-3.13,-0.87,6.3,-3.64,-3.68,Right Fall while Standing
14:53.3,904,562,843,904,431,1.37,728.04,2.11,20724,428,165,167.31,167,27990,110906,666,0.97,-0.24,0.13,-5.11,7.25,16.18,-14.53,-72.59,-3.58,-0.35,7.98,-4.02,-3.24,Right Fall while Standing
14:53.4,485,557,835.5,904,430,1.38,725.13,2.1,20724,428,165,167.31,167,27990,138131,831,0.96,-0.29,0.15,-7.93,1.11,21.41,-17.04,-69.74,-4.33,-0.44,10.22,-4.83,-3.21,Right Fall while Standing
14:53.5,526,555,832.5,904,430,1.38,725.13,2.1,20724,428,165,167.31,167,27990,165356,996,0.97,-0.34,0.16,-6.7,-6.3,9.64,-19.82,-67.2,-4.94,-1.27,11.26,-5.54,-3.91,Right Fall while Standing
14:53.6,482,550,825,904,431,1.37,728.04,2.11,20724,428,166,167.31,167,27990,192912,1162,0.92,-0.33,0.13,0.52,-0.05,7.63,-19.88,-67.62,-4.83,-1.48,12.1,-5.43,-4.12,Right Fall while Standing
14:53.7,492,547,820.5,904,431,1.37,728.04,2.11,20724,428,169,167.31,167,27990,221473,1331,0.95,-0.37,0.1,-7.25,-7.44,11.74,-21.45,-66.79,-5.51,-2.43,13.37,-6.15,-5,Right Fall while Standing
14:53.8,450,541,811.5,904,431,1.37,728.04,2.11,20724,428,167,167.31,167,27990,249362,1498,0.96,-0.37,0.1,-2.37,-5.09,9.38,-21.77,-66.4,-5.69,-3.14,14.39,-6.33,-5.67,Right Fall while Standing
14:53.9,471,537,805.5,904,431,1.37,728.04,2.11,20724.03,430,165,166.31,166,27657,0,0,0.9,-0.37,0.09,0.43,-10.09,12.56,-22.61,-65.68,-5.59,-4.34,15.71,-6.27,-6.79,Right Fall while Standing
14:54.0,527,537,805.5,904,431,1.37,728.04,2.11,20724.03,430,165,166.31,166,27657,27225,165,0.9,-0.42,0.05,-1.79,-11.53,13.63,-25.54,-63.26,-5.72,-5.7,17.17,-6.51,-8,Right Fall while Standing
14:54.1,488,535,802.5,904,431,1.37,728.04,2.11,20724.03,430,164,166.31,166,27657,54121,329,0.9,-0.44,0.04,-4.11,-6.81,15.07,-26.64,-62.24,-6.07,-6.58,18.75,-6.89,-8.81,Right Fall while Standing
14:54.2,496,533,799.5,904,432,1.37,730.96,2.11,20724.03,430,168,166.31,166,27657,82345,497,0.94,-0.43,0.01,-0.39,-10.53,16.67,-25.44,-63.56,-6.05,-7.84,20.5,-6.83,-10.07,Right Fall while Standing
14:54.3,477,530,795,904,432,1.37,730.96,2.11,20724.03,430,168,166.31,166,27657,110569,665,0.93,-0.51,0,6.73,0.56,14.02,-29.29,-59.71,-5.31,-7.98,22.01,-6.27,-10.05,Right Fall while Standing
14:54.4,509,529,793.5,904,432,1.37,730.96,2.11,20724.03,430,168,166.31,166,27657,138793,833,0.87,-0.54,-0.01,-4.85,-3.01,11.79,-32.2,-56.79,-5.74,-8.48,23.27,-6.8,-10.42,Right Fall while Standing
14:54.5,531,529,793.5,904,432,1.37,730.96,2.11,20724.03,430,164,166.31,166,27657,165689,997,0.72,-0.54,0.16,-0.93,3.67,12.85,-36.65,-50.6,-5.78,-8.32,24.63,-7.01,-10.01,Right Fall while Standing
14:54.6,512,529,793.5,904,433,1.36,733.9,2.12,20724.03,430,160,166.31,166,27657,191289,1157,0.89,-0.59,0.03,0.26,2.54,3.69,-33.81,-55.14,-5.69,-8.26,25.08,-6.82,-10.14,Right Fall while Standing
14:54.7,517,528,792,904,432,1.37,730.96,2.11,20724.03,430,160,166.31,166,27657,216889,1317,0.87,-0.57,0.04,-1.2,2.01,-1.65,-33.7,-55.22,-5.76,-8.26,25,-6.87,-10.14,Right Fall while Standing
14:54.8,490,527,790.5,904,431,1.37,728.04,2.11,20724.03,430,156,166.31,166,27657,241225,1473,0.84,-0.56,0.03,1.26,0.58,1.99,-34.22,-54.72,-5.57,-8.4,25.28,-6.72,-10.26,Right Fall while Standing
14:54.9,463,525,787.5,904,429,1.38,722.22,2.1,20724.05,431,159,163.25,163,26649,0,0,0.85,-0.57,0,-2.27,-0.67,0.21,-34.14,-54.85,-5.74,-8.67,25.38,-6.88,-10.52,Right Fall while Standing
14:55.0,453,522,783,904,426,1.4,713.57,2.08,20724.05,431,158,163.25,163,26649,24964,158,0.87,-0.56,0.02,-3.82,0.89,-1.5,-33.32,-55.65,-6.07,-8.78,25.31,-7.16,-10.65,Right Fall while Standing
14:55.1,398,518,777,904,423,1.42,705,2.07,20724.05,431,158,163.25,163,26649,49928,316,0.86,-0.55,-0.01,-3.52,-1.15,-1.06,-33.33,-55.67,-6.37,-9.1,25.28,-7.45,-10.96,Right Fall while Standing
14:55.2,331,512,768,904,419,1.44,693.71,2.05,20724.05,431,158,163.25,163,26649,74892,474,0.87,-0.56,0.02,-1.69,4.77,-0.08,-33.22,-55.76,-6.48,-8.82,25.35,-7.55,-10.7,Right Fall while Standing
14:55.3,268,505,757.5,904,416,1.46,685.34,2.03,20724.05,431,155,163.25,163,26649,98917,629,0.85,-0.56,0.04,-1.09,-0.08,-0.96,-33.98,-54.93,-6.53,-9.03,25.33,-7.63,-10.86,Right Fall while Standing
14:55.4,250,497,745.5,904,413,1.48,677.05,2.02,20724.05,431,155,163.25,163,26649,122942,784,0.85,-0.55,0,-1.97,0.59,-0.67,-33.37,-55.63,-6.68,-9.17,25.34,-7.74,-11.03,Right Fall while Standing
14:55.5,328,493,739.5,904,409,1.5,666.12,2,20724.05,431,153,163.25,163,26649,146351,937,0.85,-0.56,0.02,-0.77,2.57,3.78,-33.78,-55.21,-6.7,-9.11,25.8,-7.78,-10.96,Right Fall while Standing
14:55.6,303,487,730.5,904,408,1.51,663.41,1.99,20724.05,431,153,163.25,163,26649,169760,1090,0.86,-0.58,0.03,-1.16,0.21,3.25,-34.3,-54.65,-6.76,-9.29,26.21,-7.86,-11.11,Right Fall while Standing
14:55.7,322,483,724.5,904,406,1.52,658.02,1.98,20724.05,431,153,163.25,163,26649,193169,1243,0.85,-0.58,0.03,-1.13,0.38,-0.16,-35,-53.95,-6.81,-9.46,26.27,-7.94,-11.24,Right Fall while Standing
14:55.8,364,480,720,904,406,1.52,658.02,1.98,20724.05,431,156,163.25,163,26649,217505,1399,0.84,-0.57,0.03,3.68,2.26,4.09,-34.94,-54.02,-6.39,-9.43,26.76,-7.53,-11.21,Right Fall while Standing
14:55.9,429,478,717,904,404,1.53,652.67,1.97,20723.83,413,154,155.31,155,24121,0,0,0.82,-0.59,0.04,6.89,1.44,11.65,-36.44,-52.45,-5.65,-9.49,27.99,-6.88,-11.2,Right Fall while Standing
14:56.0,440,477,715.5,904,404,1.53,652.67,1.97,20723.83,413,153,155.31,155,24121,23409,153,0.86,-0.62,0,-0.85,-1.37,7.58,-36.44,-52.56,-5.68,-9.83,28.84,-6.91,-11.54,Right Fall while Standing
14:56.1,497,478,717,904,404,1.53,652.67,1.97,20723.83,413,153,155.31,155,24121,46818,306,0.83,-0.62,0.04,0.01,2.34,1.63,-37.52,-51.37,-5.63,-9.79,29.08,-6.9,-11.46,Right Fall while Standing
14:56.2,474,478,717,904,404,1.53,652.67,1.97,20723.83,413,152,155.31,155,24121,69922,458,0.8,-0.61,0.03,0.06,-0.7,3.82,-38.05,-50.91,-5.56,-10.06,29.54,-6.86,-11.69,Right Fall while Standing
14:56.3,505,478,717,904,404,1.53,652.67,1.97,20723.83,413,152,155.31,155,24121,93026,610,0.81,-0.62,0.02,-2.18,-0.52,8.27,-37.78,-51.21,-5.73,-10.31,30.45,-7.01,-11.95,Right Fall while Standing
14:56.4,461,478,717,904,404,1.53,652.67,1.97,20723.83,413,152,155.31,155,24121,116130,762,0.82,-0.64,0.01,-7.02,0.55,5.11,-38.72,-50.27,-6.37,-10.46,31.04,-7.67,-12.05,Right Fall while Standing
14:56.5,485,478,717,904,405,1.53,655.34,1.98,20723.83,413,152,155.31,155,24121,139234,914,0.79,-0.63,0.02,-6.04,-1.62,5.24,-39.14,-49.83,-6.93,-10.83,31.65,-8.22,-12.39,Right Fall while Standing
14:56.6,443,477,715.5,904,405,1.53,655.34,1.98,20723.83,413,152,155.31,155,24121,162338,1066,0.78,-0.66,0.04,-1.78,0.68,5.72,-40.57,-48.36,-7.05,-10.96,32.31,-8.39,-12.45,Right Fall while Standing
14:56.7,613,480,720,904,406,1.52,658.02,1.98,20723.83,413,154,155.31,155,24121,186054,1220,0.81,-0.67,0.01,-4.34,-0.76,2.5,-40.01,-48.98,-7.43,-11.23,32.64,-8.73,-12.74,Right Fall while Standing
14:56.8,539,481,721.5,904,407,1.51,660.71,1.99,20723.83,413,151,155.31,155,24121,208855,1371,0.78,-0.67,0.02,-0.85,4.03,3.08,-41.15,-47.83,-7.46,-11.03,33.03,-8.81,-12.5,Right Fall while Standing
14:56.9,579,483,724.5,904,407,1.51,660.71,1.99,13.64,405,152,152.3,152,23194,0,0,0.77,-0.68,0.03,-0.6,1.69,3.09,-41.86,-47.08,-7.46,-11.06,33.41,-8.84,-12.5,Right Fall while Standing
14:57.0,618,486,729,904,409,1.5,666.12,2,13.64,405,152,152.3,152,23194,23104,152,0.76,-0.68,0.05,3.38,3.77,6.88,-42.34,-46.53,-7.07,-10.88,34.18,-8.48,-12.31,Right Fall while Standing
14:57.1,536,487,730.5,904,410,1.5,668.84,2,13.64,405,151,152.3,152,23194,45905,303,0.76,-0.71,0.03,-4.25,0.27,3.55,-43.33,-45.63,-7.44,-11.05,34.61,-8.87,-12.44,Right Fall while Standing
14:57.2,611,489,733.5,904,410,1.5,668.84,2,13.64,405,150,152.3,152,23194,68405,453,0.77,-0.7,0.04,-1.76,1.26,0.88,-43.03,-45.89,-7.56,-11.13,34.78,-8.97,-12.52,Right Fall while Standing
14:57.3,528,490,735,904,411,1.49,671.57,2.01,13.64,405,150,152.3,152,23194,90905,603,0.76,-0.7,0.03,-0.9,1.63,0.02,-43.23,-45.71,-7.59,-11.16,34.86,-9.02,-12.55,Right Fall while Standing
14:57.4,618,493,739.5,904,412,1.48,674.3,2.01,13.64,405,150,152.3,152,23194,113405,753,0.75,-0.7,0.02,-2.05,1.18,-1.29,-43.48,-45.49,-7.74,-11.25,34.81,-9.17,-12.62,Right Fall while Standing
14:57.5,543,493,739.5,904,412,1.48,674.3,2.01,13.64,405,150,152.3,152,23194,135905,903,0.75,-0.69,0.02,0.27,2.04,-1.25,-43.18,-45.78,-7.66,-11.24,34.76,-9.08,-12.62,Right Fall while Standing
14:57.6,552,494,741,904,414,1.47,679.8,2.02,13.64,405,151,152.3,152,23194,158706,1054,0.75,-0.7,0.04,-1.87,2.12,0.44,-43.46,-45.46,-7.79,-11.23,34.88,-9.21,-12.6,Right Fall while Standing
14:57.7,566,496,744,904,414,1.47,679.8,2.02,13.64,405,153,152.3,152,23194,182115,1207,0.76,-0.7,0.02,-0.7,-0.04,-0.03,-43.14,-45.83,-7.8,-11.44,34.96,-9.21,-12.81,Right Fall while Standing
14:57.8,568,497,745.5,904,415,1.47,682.57,2.03,13.64,405,150,152.3,152,23194,204615,1357,0.75,-0.71,0.03,-2.05,1.43,-0.34,-43.7,-45.24,-7.95,-11.49,35.01,-9.38,-12.84,Right Fall while Standing
14:57.9,531,498,747,904,415,1.47,682.57,2.03,20723.66,412,148,150.5,150,22650,0,0,0.74,-0.71,0.04,-1.9,1.84,-0.42,-44.17,-44.72,-8.08,-11.51,35.04,-9.53,-12.84,Right Fall while Standing
14:58.0,603,499,748.5,904,416,1.46,685.34,2.03,20723.66,412,148,150.5,150,22650,21904,148,0.75,-0.7,0.07,-0.56,0.41,-1.06,-43.45,-45.31,-8.08,-11.67,35.01,-9.5,-13.01,Right Fall while Standing
14:58.1,647,502,753,904,417,1.45,688.12,2.04,20723.66,412,148,150.5,150,22650,43808,296,0.76,-0.7,0.03,-3.07,-0.06,-1.81,-43.45,-45.49,-8.33,-11.88,34.91,-9.74,-13.22,Right Fall while Standing
14:58.2,725,505,757.5,904,417,1.45,688.12,2.04,20723.66,412,149,150.5,150,22650,66009,445,0.76,-0.7,0.06,-3.86,0.75,-6.87,-42.88,-45.93,-8.67,-12,34.3,-10.04,-13.36,Right Fall while Standing
14:58.3,719,509,763.5,904,415,1.47,682.57,2.03,20723.66,412,148,150.5,150,22650,87913,593,0.74,-0.68,0.05,-1.49,3.89,-7.69,-42.95,-45.89,-8.76,-11.81,33.6,-10.13,-13.17,Right Fall while Standing
14:58.4,613,510,765,904,413,1.48,677.05,2.02,20723.66,412,148,150.5,150,22650,109817,741,0.77,-0.68,0.04,-0.99,-1.06,-1.11,-42.01,-46.9,-8.8,-12.12,33.57,-10.13,-13.51,Right Fall while Standing
14:58.5,513,510,765,904,408,1.51,663.41,1.99,20723.66,412,151,150.5,150,22650,132618,892,0.77,-0.68,0.04,-2.71,1.38,-4.21,-42.24,-46.68,-9.02,-12.18,33.22,-10.35,-13.56,Right Fall while Standing
14:58.6,437,509,763.5,904,404,1.53,652.67,1.97,20723.66,412,151,150.5,150,22650,155419,1043,0.77,-0.68,0.04,-2.76,3.24,-3.98,-41.86,-47.05,-9.24,-12.05,32.9,-10.55,-13.45,Right Fall while Standing
14:58.7,430,508,762,904,401,1.55,644.69,1.96,20723.66,412,148,150.5,150,22650,177323,1191,0.75,-0.68,0.05,-3.06,0.48,-2.79,-42.66,-46.18,-9.5,-12.21,32.7,-10.82,-13.57,Right Fall while Standing
14:58.8,334,505,757.5,904,397,1.58,634.19,1.94,20723.66,412,147,150.5,150,22650,198932,1338,0.77,-0.66,0.04,-3.73,0.8,-5.53,-41.01,-47.89,-9.82,-12.33,32.22,-11.07,-13.75,Right Fall while Standing
14:58.9,327,503,754.5,904,395,1.59,628.98,1.93,20724.22,408,148,148.6,148,22082,0,0,0.77,-0.66,0.06,-3.88,1.14,-1.5,-41.1,-47.71,-10.15,-12.41,32.15,-11.39,-13.83,Right Fall while Standing
14:59.0,301,500,750,904,393,1.6,623.81,1.92,20724.22,408,146,148.6,148,22082,21316,146,0.81,-0.69,0.05,-1.28,3.76,-7.39,-41.04,-47.86,-10.22,-12.24,31.49,-11.45,-13.66,Right Fall while Standing
14:59.1,367,498,747,904,392,1.61,621.24,1.92,20724.22,408,146,148.6,148,22082,42632,292,0.83,-0.67,0.12,0.42,5.53,-21.38,-38.92,-49.39,-10.12,-11.88,29.39,-11.27,-13.38,Right Fall while Standing
14:59.2,360,496,744,904,393,1.6,623.81,1.92,20724.22,408,145,148.6,148,22082,63657,437,0.81,-0.62,0.05,2.86,6.83,-23.99,-37.88,-50.97,-9.78,-11.39,27.07,-10.9,-12.98,Right Fall while Standing
14:59.3,400,495,742.5,904,392,1.61,621.24,1.92,20724.22,408,145,148.6,148,22082,84682,582,0.86,-0.59,0.06,3.63,6.09,-28.21,-34.82,-53.99,-9.35,-10.98,24.3,-10.37,-12.7,Right Fall while Standing
14:59.4,431,494,741,904,392,1.61,621.24,1.92,20724.22,408,144,148.6,148,22082,105418,726,0.93,-0.55,0.07,-0.19,0.5,-40.45,-31.03,-57.73,-9.32,-11.13,20.29,-10.19,-13,Right Fall while Standing
14:59.5,443,493,739.5,904,392,1.61,621.24,1.92,20724.22,408,145,148.6,148,22082,126443,871,0.88,-0.48,0.1,-0.71,-0.21,-50.57,-28.89,-59.39,-9.33,-11.36,15.26,-10.11,-13.28,Right Fall while Standing
14:59.6,454,493,739.5,904,392,1.61,621.24,1.92,20724.22,408,148,148.6,148,22082,148347,1019,0.83,-0.35,0.08,0.24,1.75,-43.7,-23.08,-65.31,-9.25,-11.38,10.93,-9.81,-13.54,Right Fall while Standing
14:59.7,485,493,739.5,904,393,1.6,623.81,1.92,20724.22,408,148,148.6,148,22082,170251,1167,0.98,-0.33,0.06,-21.74,-16.55,-18.32,-19.35,-69.33,-11.39,-13.26,9.16,-11.71,-15.5,Right Fall while Standing
14:59.8,489,493,739.5,904,394,1.6,626.39,1.93,20724.22,408,150,148.6,148,22082,192751,1317,0.97,-0.3,0.1,2.29,31.51,-33.53,-17.68,-70.42,-11.1,-10.27,5.85,-11.37,-12.68,Right Fall while Standing
14:59.9,574,494,741,904,394,1.6,626.39,1.93,152.12,392,151,146.82,146,21554,0,0,0.93,-0.25,0.03,-10.76,22.87,-32.16,-15.58,-73.33,-12.11,-8.21,2.74,-12.25,-10.81,Right Fall while Standing
15:00.0,546,494,741,904,395,1.59,628.98,1.93,152.12,392,150,146.82,146,21554,22500,150,0.96,-0.22,0.12,-27.63,-0.7,-21.56,-13.41,-73.64,-14.87,-8.48,0.63,-14.82,-11.09,Right Fall while Standing
15:00.1,550,495,742.5,904,395,1.59,628.98,1.93,152.12,392,148,146.82,146,21554,44404,298,0.98,-0.19,0.17,-20.87,2.77,-25.07,-11.44,-73.73,-16.91,-8.41,-1.8,-16.69,-11.02,Right Fall while Standing
15:00.2,563,496,744,904,396,1.58,631.58,1.94,152.12,392,148,146.82,146,21554,66308,446,0.99,-0.12,0.13,-13.28,5.63,-29.34,-7.16,-78.47,-18.19,-8.04,-4.69,-17.75,-10.86,Right Fall while Standing
15:00.3,500,496,744,904,397,1.58,634.19,1.94,152.12,392,148,146.82,146,21554,88212,594,0.97,-0.08,0.14,-15.64,-0.46,-20.53,-5.48,-79,-19.7,-8.29,-6.66,-19.13,-11.12,Right Fall while Standing
15:00.4,519,496,744,904,397,1.58,634.19,1.94,152.12,392,147,146.82,146,21554,109821,741,1.01,-0.07,0.13,-16.09,-0.01,-18.85,-4.77,-80.01,-21.27,-8.49,-8.49,-20.61,-11.35,Right Fall while Standing
15:00.5,875,501,751.5,904,398,1.57,636.8,1.95,152.12,392,147,146.82,146,21554,131430,888,0.99,-0.04,0.11,-9.32,4.47,-22.28,-2.93,-81.48,-22.15,-8.24,-10.66,-21.38,-11.17,Right Fall while Standing
15:00.6,486,500,750,904,398,1.57,636.8,1.95,152.12,392,148,146.82,146,21554,153334,1036,0.98,-0.03,0.11,-8.78,2.6,-18.53,-2.23,-81.57,-22.98,-8.18,-12.45,-22.15,-11.12,Right Fall while Standing
15:00.7,546,501,751.5,904,399,1.56,639.42,1.95,152.12,392,148,146.82,146,21554,175238,1184,0.99,0.01,0.12,-10.32,0.96,-17.69,0.15,-81.37,-23.96,-8.28,-14.14,-22.99,-11.21,Right Fall while Standing
15:00.8,519,501,751.5,904,399,1.56,639.42,1.95,152.12,392,148,146.82,146,21554,197142,1332,1.01,0.05,0.09,-3.44,8.4,-22.43,2.37,-82.74,-24.25,-7.64,-16.32,-23.18,-10.64,Right Fall while Standing
15:00.9,510,501,751.5,904,400,1.56,642.05,1.96,163.88,397,148,148,148,21903,0,0,0.99,0.09,0.13,-5.44,14.56,-19.17,4.61,-79.51,-24.73,-6.39,-18.14,-23.56,-9.32,Right Fall while Standing
15:01.0,520,501,751.5,904,402,1.54,647.34,1.96,163.88,397,148,148,148,21903,21904,148,0.94,0.13,0.13,-13.18,1.82,-5.67,6.9,-77.55,-25.99,-6.41,-18.63,-24.68,-9.26,Right Fall while Standing
15:01.1,534,502,753,904,403,1.54,650,1.97,163.88,397,147,148,148,21903,43513,295,0.97,0.11,0.19,-15.89,-10.19,2.92,5.59,-75.67,-27.54,-7.64,-18.26,-26.22,-10.36,Right Fall while Standing
15:01.2,551,502,753,904,404,1.53,652.67,1.97,163.88,397,147,148,148,21903,65122,442,0.99,0.09,0.18,-1.82,-2.26,1.69,4.77,-76.92,-27.67,-8.07,-18.01,-26.37,-10.82,Right Fall while Standing
15:01.3,524,502,753,904,405,1.53,655.34,1.98,163.88,397,147,148,148,21903,86731,589,0.99,0.08,0.14,0.31,-1.63,0.24,3.81,-79.26,-27.58,-8.43,-17.91,-26.33,-11.26,Right Fall while Standing
15:01.4,512,503,754.5,904,407,1.51,660.71,1.99,163.88,397,146,148,148,21903,108047,735,1,0.09,0.14,1.14,-2.77,-1.3,4.32,-79.3,-27.41,-8.91,-17.96,-26.14,-11.73,Right Fall while Standing
15:01.5,543,503,754.5,904,408,1.51,663.41,1.99,163.88,397,147,148,148,21903,129656,882,0.98,0.09,0.13,2.51,1.08,0.61,4.87,-79.02,-27.1,-9,-17.82,-25.83,-11.8,Right Fall while Standing
15:01.6,533,503,754.5,904,410,1.5,668.84,2,163.88,397,148,148,148,21903,151560,1030,1,0.08,0.14,1.83,-2.55,2.48,4.25,-79.07,-26.87,-9.45,-17.49,-25.62,-12.24,Right Fall while Standing
15:01.7,507,503,754.5,904,410,1.5,668.84,2,163.88,397,148,148,148,21903,173464,1178,0.99,0.07,0.13,3.54,1.07,2.93,3.15,-80.08,-26.45,-9.55,-17.12,-25.27,-12.37,Right Fall while Standing
15:01.8,570,504,756,904,412,1.48,674.3,2.01,163.88,397,149,148,148,21903,195665,1327,0.99,0.06,0.15,7.18,3.15,1.72,2.59,-79.3,-25.68,-9.43,-16.87,-24.55,-12.23,Right Fall while Standing
15:01.9,465,504,756,904,413,1.48,677.05,2.02,20724.04,407,148,147.5,147,21755,0,0,0.98,0.08,0.08,2.79,0.41,1.47,3.81,-81.83,-25.35,-9.59,-16.64,-24.18,-12.48,Right Fall while Standing
15:02.0,487,503,754.5,904,414,1.47,679.8,2.02,20724.04,407,146,147.5,147,21755,21316,146,1,0.07,0.13,0.41,3.66,3.73,3.53,-80.09,-25.25,-9.42,-16.19,-24.1,-12.25,Right Fall while Standing
15:02.1,558,504,756,904,415,1.47,682.57,2.03,20724.04,407,151,147.5,147,21755,44117,297,1,0.05,0.14,0.11,2.63,3.33,2.44,-79.91,-25.19,-9.36,-15.78,-24.08,-12.18,Right Fall while Standing
15:06.0,478,478,717,478,415,1.47,682.57,2.03,0,0,144,0,0,0,42345,291,1,-0.06,0.27,-0.43,3.29,4.4,-4.07,-72.74,-0.12,0.12,1.43,-0.28,-2.8,Forward Fall while Standing
15:06.1,533,505,757.5,533,415,1.47,682.57,2.03,0,0,145,0,0,0,63370,436,0.99,-0.1,0.2,3.91,6.85,-1.84,-6.27,-75.65,0.32,0.59,1.33,0.05,-2.46,Forward Fall while Standing
15:06.2,490,500,750,533,415,1.47,682.57,2.03,0,0,144,0,0,0,84106,580,0.97,-0.08,0.25,2.18,4.44,-4.24,-5.14,-73.42,0.58,0.82,0.99,0.35,-2.15,Forward Fall while Standing
15:06.2,497,499,748.5,533,417,1.45,688.12,2.04,0,0,144,0,0,0,104842,724,0.95,-0.06,0.2,-8.05,-7.45,-3,-4.31,-76.05,-0.14,-0.08,0.78,-0.3,-3.12,Forward Fall while Standing
15:06.3,479,495,742.5,533,417,1.45,688.12,2.04,0,0,144,0,0,0,125578,868,0.96,-0.06,0.2,-5.64,-11.18,-0.58,-3.85,-76.27,-0.64,-1.39,0.8,-0.77,-4.38,Forward Fall while Standing
15:06.4,430,484,726,533,418,1.45,690.91,2.04,0,0,145,0,0,0,146603,1013,0.98,-0.06,0.18,0.56,-8.34,-1.68,-4.03,-77.33,-0.53,-2.39,0.71,-0.67,-5.39,Forward Fall while Standing
15:06.5,495,486,729,533,419,1.44,693.71,2.05,0,0,145,0,0,0,167628,1158,1.01,-0.07,0.14,-10.52,-25.02,-3.63,-4.73,-79.32,-1.51,-5.04,0.44,-1.64,-8.01,Forward Fall while Standing
15:06.6,519,490,735,533,419,1.44,693.71,2.05,0,0,147,0,0,0,189237,1305,0.97,-0.06,0.15,-6.97,-24.99,-12.64,-4.18,-78.91,-2.14,-7.71,-0.74,-2.22,-10.56,Forward Fall while Standing
15:06.7,452,485,727.5,533,420,1.44,696.52,2.05,20723.75,417,146,145.1,145,21054,0,0,0.96,-0.06,0.12,-0.18,-25.34,-4.04,-3.92,-80.5,-2.1,-10.42,-1.06,-2.18,-13.22,Forward Fall while Standing
15:06.8,470,484,726,533,422,1.42,702.16,2.06,20723.75,417,146,145.1,145,21054,21316,146,0.99,-0.07,0.03,-2.01,-31.39,1.35,-4.63,-83.92,-2.25,-13.76,-0.84,-2.35,-16.56,Forward Fall while Standing
15:06.9,626,497,745.5,626,422,1.42,702.16,2.06,20723.75,417,146,145.1,145,21054,42632,292,1,-0.08,0,-4.85,-22.87,5.74,-5.38,-83.62,-2.69,-16.29,-0.18,-2.79,-18.99,Forward Fall while Standing
15:07.0,437,492,738,626,423,1.42,705,2.07,20723.75,417,147,145.1,145,21054,64241,439,1.04,-0.09,-0.05,3.43,-18.92,-0.64,-5.27,-82.84,-2.29,-18.39,-0.16,-2.41,-20.96,Forward Fall while Standing
15:07.1,482,491,736.5,626,422,1.42,702.16,2.06,20723.75,417,143,145.1,145,21054,84690,582,1.01,-0.05,-0.11,0.78,-27.41,-8.09,-3.3,-81.69,-2.15,-21.33,-0.89,-2.2,-23.74,Forward Fall while Standing
15:07.2,469,489,733.5,626,423,1.42,705,2.07,20723.75,417,142,145.1,145,21054,104854,724,1.02,-0.07,-0.14,0.85,-15.81,2.59,-4.29,-79.75,-2.01,-23.13,-0.55,-2.1,-25.39,Forward Fall while Standing
15:07.3,534,492,738,626,423,1.42,705,2.07,20723.75,417,145,145.1,145,21054,125879,869,1.03,-0.1,-0.17,-6.63,-9.92,0.89,-5.95,-77.71,-2.63,-24.33,-0.38,-2.76,-26.46,Forward Fall while Standing
15:07.4,516,494,741,626,424,1.41,707.85,2.07,20723.75,417,144,145.1,145,21054,146615,1013,0.97,-0.08,-0.15,-6.32,-19.92,-2.9,-5.08,-78.38,-3.2,-26.52,-0.59,-3.28,-28.6,Forward Fall while Standing
15:07.5,535,496,744,626,424,1.41,707.85,2.07,20723.75,417,149,145.1,145,21054,168816,1162,0.97,-0.07,-0.2,-4.92,-23.72,3.14,-4.34,-75.97,-3.65,-29.14,-0.19,-3.67,-31.02,Forward Fall while Standing
15:07.6,585,501,751.5,626,424,1.41,707.85,2.07,20723.75,417,147,145.1,145,21054,190425,1309,1.08,-0.08,-0.32,-2.31,-23.88,1.92,-4.48,-71.49,-3.82,-31.76,0.08,-3.85,-33.35,Forward Fall while Standing
15:07.7,546,503,754.5,626,438,1.34,748.72,2.14,20723.91,424,152,146.12,146,21351,0,0,1.02,-0.08,-0.34,-3.43,-19.03,1.96,-4.63,-69.69,-4.11,-33.84,0.35,-4.13,-35.27,Forward Fall while Standing
15:07.8,631,510,765,631,434,1.36,736.84,2.12,20723.91,424,153,146.12,146,21351,23409,153,1.01,-0.09,-0.37,-4.21,-7.21,3.03,-5.16,-67.77,-4.47,-34.77,0.74,-4.5,-36.09,Forward Fall while Standing
15:07.9,589,513,769.5,631,432,1.37,730.96,2.11,20723.91,424,155,146.12,146,21351,47434,308,0.97,-0.09,-0.33,-3.17,-17.3,3.41,-5.82,-68.71,-4.74,-36.7,1.16,-4.78,-37.98,Forward Fall while Standing
15:08.0,581,517,775.5,631,431,1.37,728.04,2.11,20723.91,424,153,146.12,146,21351,70843,461,1.02,-0.11,-0.44,-1.08,-24.95,4.48,-6.12,-64.34,-4.79,-39.42,1.69,-4.84,-40.42,Forward Fall while Standing
15:08.1,608,520,780,631,431,1.37,728.04,2.11,20723.91,424,151,146.12,146,21351,93644,612,0.96,-0.12,-0.47,-9.48,-25.23,5.58,-7.02,-61.65,-5.68,-42.15,2.33,-5.73,-42.93,Forward Fall while Standing
15:08.2,562,522,783,631,432,1.37,730.96,2.11,20723.91,424,148,146.12,146,21351,115548,760,0.94,-0.12,-0.42,-2.15,-13.84,3.35,-7.4,-63.35,-5.84,-43.73,2.74,-5.9,-44.51,Forward Fall while Standing
15:08.3,556,524,786,631,432,1.37,730.96,2.11,20723.91,424,149,146.12,146,21351,137749,909,0.94,-0.13,-0.48,2.19,-7.95,5.36,-7.65,-60.47,-5.56,-44.73,3.36,-5.64,-45.36,Forward Fall while Standing
15:08.4,540,524,786,631,432,1.37,730.96,2.11,20723.91,424,146,146.12,146,21351,159065,1055,0.93,-0.15,-0.53,-0.34,-11.23,1.12,-8.67,-58.08,-5.54,-46.07,3.56,-5.66,-46.55,Forward Fall while Standing
15:08.5,960,540,810,960,433,1.36,733.9,2.12,20723.91,424,146,146.12,146,21351,180381,1201,0.9,-0.14,-0.51,-4.71,-15.02,-1.73,-7.99,-58.16,-5.95,-47.77,3.46,-6.03,-48.19,Forward Fall while Standing
15:08.7,533,540,810,960,432,1.37,730.96,2.11,20723.91,424,150,146.12,146,21351,202881,1351,0.87,-0.13,-0.54,-3.53,-8.76,1.75,-7.89,-55.58,-6.26,-48.87,3.72,-6.32,-49.14,Forward Fall while Standing
15:08.7,573,541,811.5,960,432,1.37,730.96,2.11,20724.07,432,151,150.23,150,22567,0,0,0.88,-0.15,-0.57,-8.75,-10.88,4.2,-8.94,-54.67,-7.07,-50.15,4.22,-7.14,-50.33,Forward Fall while Standing
15:08.8,507,540,810,960,436,1.35,742.76,2.13,20724.07,432,151,150.23,150,22567,22801,151,0.88,-0.15,-0.54,-0.95,-6.08,4.82,-9.07,-55.82,-7.11,-50.95,4.78,-7.18,-51.15,Forward Fall while Standing
15:09.0,532,540,810,960,434,1.36,736.84,2.12,20724.07,432,147,150.23,150,22567,44410,298,0.87,-0.17,-0.61,-5.6,-14.31,1.77,-9.39,-52.46,-7.61,-52.6,5.04,-7.69,-52.59,Forward Fall while Standing
15:09.0,503,539,808.5,960,438,1.34,748.72,2.14,20724.07,432,151,150.23,150,22567,67211,449,0.88,-0.15,-0.63,-4.07,-14.04,-0.9,-8.55,-52.1,-7.97,-54.2,5.02,-7.99,-54.12,Forward Fall while Standing
15:09.2,526,538,807,960,440,1.33,754.72,2.15,20724.07,432,152,150.23,150,22567,90315,601,0.82,-0.14,-0.64,-5.88,-10.05,-2.76,-8.28,-49.69,-8.5,-55.41,4.83,-8.49,-55.18,Forward Fall while Standing
15:09.3,553,539,808.5,960,442,1.31,760.76,2.16,20724.07,432,154,150.23,150,22567,114031,755,0.62,-0.15,-0.5,-3.28,-4.66,-1.25,-11.1,-48.36,-8.77,-56.08,4.78,-8.87,-55.77,Forward Fall while Standing
15:09.4,506,538,807,960,443,1.31,763.79,2.17,20724.07,432,168,150.23,150,22567,142255,923,0.81,-0.14,-0.64,-2.55,-2.87,0.54,-8.43,-49.36,-8.97,-56.57,4.92,-8.95,-56.29,Forward Fall while Standing
15:09.5,496,536,804,960,442,1.31,760.76,2.16,20724.07,432,170,150.23,150,22567,171155,1093,0.83,-0.15,-0.69,-4.21,-6.07,0.37,-8.33,-48.18,-9.34,-57.39,5.03,-9.3,-57.02,Forward Fall while Standing
15:09.6,462,534,801,960,443,1.31,763.79,2.17,20724.07,432,176,150.23,150,22567,202131,1269,0.82,-0.14,-0.68,-3.37,-4.5,-2.56,-7.98,-48.3,-9.62,-58.04,4.86,-9.56,-57.65,Forward Fall while Standing
15:09.7,438,532,798,960,442,1.31,760.76,2.16,20724.07,432,182,150.23,150,22567,169719,1451,0.79,-0.14,-0.7,-3.46,-9.66,-2.97,-8.32,-46.33,-9.92,-59.22,4.64,-9.85,-58.7,Forward Fall while Standing
15:09.8,454,530,795,960,443,1.31,763.79,2.17,20724.24,440,184,117.49,163,13802,0,0,0.78,-0.13,-0.71,-1.83,-7.6,-0.16,-7.67,-45.72,-10.04,-60.18,4.7,-9.95,-59.6,Forward Fall while Standing
15:09.9,448,528,792,960,443,1.31,763.79,2.17,20724.24,440,189,117.49,163,13802,4294937481,189,0.78,-0.13,-0.72,-0.95,-5,1.92,-7.74,-45.21,-10.08,-60.88,4.97,-9.99,-60.26,Forward Fall while Standing
15:10.0,412,525,787.5,960,443,1.31,763.79,2.17,20724.24,440,180,117.49,163,13802,2585,369,0.79,-0.14,-0.72,0.61,-2.07,1.4,-8.17,-45.42,-9.97,-61.29,5.19,-9.89,-60.65,Forward Fall while Standing
15:10.1,447,523,784.5,960,443,1.31,763.79,2.17,20724.24,440,200,117.49,163,13802,4294944345,569,0.79,-0.15,-0.73,-0.9,-1.75,-0.03,-8.65,-45.07,-10,-61.67,5.27,-9.95,-61.01,Forward Fall while Standing
15:10.2,442,521,781.5,960,443,1.31,763.79,2.17,20724.24,440,197,117.49,163,13802,4294917618,766,0.78,-0.15,-0.73,-0.79,-1.11,-3.5,-8.57,-44.46,-10.02,-61.99,5,-9.97,-61.28,Forward Fall while Standing
15:10.3,417,519,778.5,960,443,1.31,763.79,2.17,20724.24,440,192,117.49,163,13802,4294888946,958,0.75,-0.15,-0.75,-4.63,0.05,-2.34,-8.42,-43.11,-10.44,-62.18,4.84,-10.36,-61.42,Forward Fall while Standing
15:10.4,485,518,777,960,444,1.3,766.84,2.17,20724.24,440,197,117.49,163,13802,4294862219,1155,0.75,-0.14,-0.71,-1.91,1.76,0.17,-8.25,-44.56,-10.57,-62.21,4.94,-10.48,-61.5,Forward Fall while Standing
15:10.5,429,516,774,960,443,1.31,763.79,2.17,20724.24,440,201,117.49,163,13802,4294837084,1356,0.77,-0.15,-0.73,-1.52,0.95,1.83,-8.53,-44.26,-10.67,-62.31,5.2,-10.58,-61.59,Forward Fall while Standing
15:10.6,469,515,772.5,960,442,1.31,760.76,2.16,20724.24,440,196,117.49,163,13802,4294809964,1552,0.78,-0.15,-0.74,-2,0.31,-0.14,-8.6,-44.1,-10.82,-62.49,5.27,-10.73,-61.75,Forward Fall while Standing
15:10.7,481,514,771,960,442,1.31,760.76,2.16,20724.24,440,188,117.49,163,13802,4294779772,1740,0.78,-0.15,-0.7,-1.06,0.61,-1.13,-8.8,-45.71,-10.87,-62.63,5.23,-10.79,-61.95,Forward Fall while Standing
15:10.8,432,513,769.5,960,442,1.31,760.76,2.16,20724.29,442,186,20723.78,192,429474880,0,0,0.76,-0.16,-0.73,-0.2,-0.69,-0.56,-9.13,-44.05,-10.83,-62.9,5.26,-10.76,-62.14,Forward Fall while Standing
15:10.9,519,513,769.5,960,442,1.31,760.76,2.16,20724.29,442,188,20723.78,192,429474880,4294937104,188,0.78,-0.16,-0.72,1.09,6.36,-0.07,-9.34,-44.92,-10.66,-62.45,5.33,-10.61,-61.75,Forward Fall while Standing
15:11.0,573,514,771,960,442,1.31,760.76,2.16,20724.29,442,187,20723.78,192,429474880,4294906537,375,0.78,-0.17,-0.74,-0.77,1.31,-0.33,-9.56,-44.06,-10.68,-62.52,5.38,-10.64,-61.78,Forward Fall while Standing
15:11.1,499,514,771,960,442,1.31,760.76,2.16,20724.29,442,189,20723.78,192,429474880,4294876722,564,0.76,-0.16,-0.72,-2.08,-0.43,-1.34,-9.04,-44.38,-10.84,-62.76,5.32,-10.77,-62.03,Forward Fall while Standing
15:11.2,521,514,771,960,442,1.31,760.76,2.16,20724.29,442,190,20723.78,192,429474880,4294847286,754,0.77,-0.15,-0.71,-2.27,2.59,-0.6,-8.95,-44.9,-11.02,-62.7,5.34,-10.93,-61.99,Forward Fall while Standing
15:11.3,550,514,771,960,442,1.31,760.76,2.16,20724.29,442,191,20723.78,192,429474880,4294818231,945,0.78,-0.17,-0.72,1.33,4.69,-1.92,-9.41,-44.74,-10.82,-62.43,5.23,-10.77,-61.72,Forward Fall while Standing
15:11.4,518,515,772.5,960,442,1.31,760.76,2.16,20724.29,442,188,20723.78,192,429474880,4294788039,1133,0.78,-0.17,-0.71,2.34,9.2,-1.38,-9.86,-45.09,-10.53,-61.69,5.17,-10.5,-61.02,Forward Fall while Standing
15:11.5,512,514,771,960,442,1.31,760.76,2.16,20724.29,442,198,20723.78,192,429474880,4294761707,1331,0.8,-0.18,-0.68,2.37,13.25,-1.34,-10.25,-46.97,-10.23,-60.54,5.11,-10.23,-60,Forward Fall while Standing
15:11.6,580,516,774,960,442,1.31,760.76,2.16,20724.29,442,199,20723.78,192,429474880,4294735772,1530,0.8,-0.18,-0.7,0.98,12.79,-2.04,-10.03,-46.35,-10.07,-59.43,4.98,-10.07,-58.91,Forward Fall while Standing
15:11.7,508,515,772.5,960,442,1.31,760.76,2.16,20724.29,442,197,20723.78,192,429474880,4294709045,1727,0.81,-0.17,-0.67,2.35,11.82,0.47,-9.8,-47.86,-9.77,-58.42,5.11,-9.77,-57.99,Forward Fall while Standing
15:11.8,527,516,774,960,442,1.31,760.76,2.16,20724.27,442,200,20723.62,192,429468352,0,0,0.84,-0.19,-0.65,0.21,10.31,-0.19,-10.67,-49.59,-9.69,-57.59,5.17,-9.73,-57.27,Forward Fall while Standing
15:11.9,517,516,774,960,442,1.31,760.76,2.16,20724.27,442,203,20723.62,192,429468352,4294942969,203,0.86,-0.18,-0.65,-1.01,8.29,-3.63,-10.04,-50.32,-9.74,-56.94,4.88,-9.75,-56.68,Forward Fall while Standing
15:12.0,518,516,774,960,442,1.31,760.76,2.16,20724.27,442,204,20723.62,192,429468352,4294919049,407,0.86,-0.19,-0.62,-1.06,9.69,-4.5,-10.54,-51.55,-9.79,-56.16,4.5,-9.82,-55.98,Forward Fall while Standing
15:12.1,497,515,772.5,960,442,1.31,760.76,2.16,20724.27,442,203,20723.62,192,429468352,4294894722,610,0.83,-0.17,-0.59,-1.03,11.11,-2.98,-10.16,-51.74,-9.84,-55.23,4.28,-9.85,-55.09,Forward Fall while Standing
15:12.2,491,515,772.5,960,443,1.31,763.79,2.17,20724.27,442,208,20723.62,192,429468352,4294872450,818,0.85,-0.17,-0.57,1.82,11.09,1.21,-10.18,-53.29,-9.59,-54.3,4.49,-9.62,-54.26,Forward Fall while Standing
15:12.3,508,515,772.5,960,443,1.31,763.79,2.17,20724.27,442,210,20723.62,192,429468352,4294851014,1028,0.89,-0.19,-0.58,6.98,13.15,0.18,-10.47,-54.08,-8.82,-53.16,4.59,-8.89,-53.2,Forward Fall while Standing
15:12.4,502,515,772.5,960,443,1.31,763.79,2.17,20724.27,442,208,20723.62,192,429468352,4294828742,1236,0.91,-0.19,-0.55,2.4,14.79,-0.45,-10.73,-55.87,-8.52,-51.84,4.62,-8.61,-52,Forward Fall while Standing
15:12.5,457,514,771,960,443,1.31,763.79,2.17,20724.27,442,209,20723.62,192,429468352,4294806887,1445,0.93,-0.19,-0.55,5.9,15.16,-1.37,-10.75,-56.35,-7.86,-50.5,4.56,-7.98,-50.73,Forward Fall while Standing
15:12.6,470,513,769.5,960,444,1.3,766.84,2.17,20724.27,442,210,20723.62,192,429468352,4294785451,1655,0.93,-0.21,-0.54,1.88,20.85,-6.53,-11.7,-56.46,-7.61,-48.56,3.97,-7.77,-48.87,Forward Fall while Standing
15:12.7,476,513,769.5,960,444,1.3,766.84,2.17,20724.27,442,209,20723.62,192,429468352,4294763596,1864,0.83,-0.2,-0.53,3.63,40.5,-7.79,-11.86,-54.25,-7.18,-44.59,3.25,-7.36,-44.98,Forward Fall while Standing
15:12.8,473,512,768,960,443,1.31,763.79,2.17,20724.29,442,210,20723.76,207,429474208,0,0,0.94,-0.18,-0.36,6.5,57.59,-7.66,-10.65,-65.07,-6.47,-39.03,2.56,-6.64,-40.07,Forward Fall while Standing
15:12.9,456,511,766.5,960,442,1.31,760.76,2.16,20724.29,442,206,20723.76,207,429474208,4294944196,206,0.93,-0.16,-0.26,-2.93,16.85,2.44,-9.9,-70.28,-6.71,-37.5,2.89,-6.84,-38.81,Forward Fall while Standing
15:13.0,481,511,766.5,960,442,1.31,760.76,2.16,20724.29,442,201,20723.76,207,429474208,4294919061,407,0.99,-0.18,-0.28,7.62,15.05,3.82,-10.7,-69.83,-5.89,-36.18,3.36,-6.08,-37.53,Forward Fall while Standing
15:13.1,504,511,766.5,960,443,1.31,763.79,2.17,20724.29,442,198,20723.76,207,429474208,4294892729,605,1.03,-0.21,-0.26,2.21,16.44,-0.6,-11.7,-70.43,-5.61,-34.71,3.38,-5.85,-36.14,Forward Fall while Standing
15:13.2,464,510,765,960,443,1.31,763.79,2.17,20724.29,442,196,20723.76,207,429474208,4294865609,801,1.02,-0.2,-0.21,3.66,23.06,-6.37,-11.5,-72.54,-5.17,-32.54,2.8,-5.42,-34.14,Forward Fall while Standing
15:13.3,481,510,765,960,443,1.31,763.79,2.17,20724.29,442,195,20723.76,207,429474208,4294838098,996,0.99,-0.18,-0.17,2.21,35.66,-0.66,-10.67,-74.3,-4.89,-29.11,2.82,-5.12,-30.92,Forward Fall while Standing
15:13.4,497,509,763.5,960,443,1.31,763.79,2.17,20724.29,442,195,20723.76,207,429474208,4294810587,1191,0.88,-0.17,-0.04,3.75,39.02,4.79,-11.33,-77.35,-4.44,-25.3,3.39,-4.72,-27.38,Forward Fall while Standing
15:13.5,533,510,765,960,442,1.31,760.76,2.16,20724.29,442,192,20723.76,207,429474208,4294781915,1383,1.01,-0.2,-0.05,0.74,44.98,-1.68,-11.6,-77.11,-4.31,-20.91,3.3,-4.6,-23.16,Forward Fall while Standing
15:13.6,617,511,766.5,960,443,1.31,763.79,2.17,20724.29,442,190,20723.76,207,429474208,4294752479,1573,0.93,-0.2,0.02,-12.82,25.8,2.48,-12.62,-76.33,-5.56,-18.48,3.64,-5.84,-20.8,Forward Fall while Standing
15:13.7,487,511,766.5,960,443,1.31,763.79,2.17,20724.29,442,189,20723.76,207,429474208,4294722664,1762,1.02,-0.23,0.08,-13.88,5.54,9.34,-13.04,-75.25,-6.93,-18.12,4.68,-7.18,-20.4,Forward Fall while Standing
15:13.8,574,512,768,960,443,1.31,763.79,2.17,20724.29,442,193,20723.65,195,429469440,0,0,1.01,-0.25,0.15,-10.9,-2.22,3.73,-14.06,-72.43,-7.97,-18.54,5.13,-8.21,-20.7,Forward Fall while Standing
15:13.9,475,511,766.5,960,444,1.3,766.84,2.17,20724.29,442,189,20723.65,195,429469440,4294937481,189,0.99,-0.21,0.08,-1.16,-2.99,-5.76,-12.7,-75.38,-8.03,-19.06,4.62,-8.22,-21.31,Forward Fall while Standing
15:14.0,494,511,766.5,960,444,1.3,766.84,2.17,20724.29,442,190,20723.65,195,429469440,4294908045,379,1.01,-0.2,0.06,-4.08,-1.04,-5.53,-11.96,-76.6,-8.39,-19.37,4.14,-8.53,-21.65,Forward Fall while Standing
15:14.1,505,511,766.5,960,444,1.3,766.84,2.17,20724.29,442,191,20723.65,195,429469440,4294878990,570,1.01,-0.21,0.02,-8.42,1.96,-7.58,-12.26,-76.69,-9.19,-19.37,3.44,-9.31,-21.66,Forward Fall while Standing
15:14.2,547,511,766.5,960,445,1.3,769.9,2.17,20724.29,442,192,20723.65,195,429469440,4294850318,762,0.97,-0.19,0.02,-7.57,11.39,-14.15,-11.99,-76.94,-9.91,-18.4,2.07,-10,-20.74,Forward Fall while Standing
15:14.3,548,512,768,960,445,1.3,769.9,2.17,20724.29,442,201,20723.65,195,429469440,4294825183,963,0.96,-0.19,0.06,-11.71,-3.18,-1.08,-11.96,-76.56,-11.05,-18.93,2.04,-11.09,-21.24,Forward Fall while Standing
15:14.5,517,512,768,960,444,1.3,766.84,2.17,20724.29,442,204,20723.65,195,429469440,4294801263,1167,0.98,-0.19,0.1,-3.59,-0.84,-1.72,-11.3,-76.37,-11.37,-19.23,1.94,-11.36,-21.51,Forward Fall while Standing
15:14.6,589,513,769.5,960,444,1.3,766.84,2.17,20724.29,442,206,20723.65,195,429469440,4294778163,1373,1.07,-0.21,0.02,0.1,-1.03,4.06,-11.44,-77.52,-11.3,-19.54,2.44,-11.3,-21.85,Forward Fall while Standing
15:14.7,485,512,768,960,445,1.3,769.9,2.17,20724.29,442,203,20723.65,195,429469440,4294753836,1576,1.01,-0.2,0.07,0.85,-1.94,3.27,-11.75,-76.62,-11.15,-19.94,2.85,-11.18,-22.2,Forward Fall while Standing
15:14.8,492,512,768,960,445,1.3,769.9,2.17,20724.29,442,204,20723.65,195,429469440,4294729916,1780,1.03,-0.21,0.05,-2.05,2.39,-1.61,-12.25,-76.45,-11.31,-19.9,2.77,-11.35,-22.16,Forward Fall while Standing
15:14.9,496,512,768,960,445,1.3,769.9,2.17,31.18,444,206,20723.67,198,429470688,0,0,0.98,-0.21,0.05,-0.79,3.63,-4.25,-12.6,-76.09,-11.33,-19.73,2.42,-11.38,-21.99,Forward Fall while Standing
15:15.0,477,512,768,960,445,1.3,769.9,2.17,31.18,444,201,20723.67,198,429470688,4294942161,201,0.97,-0.2,0.03,-2.73,-1.17,0.65,-12.44,-76.38,-11.55,-20.06,2.57,-11.59,-22.31,Forward Fall while Standing
15:22.6,955,955,1432.5,955,436,1.35,742.76,2.13,0,0,235,0,0,0,4294947145,471,1.02,-0.15,0.07,-4.71,2.79,-0.14,-8.71,-79.38,-1.04,-0.11,0.15,-1.35,-3.28,Sitting
15:22.7,464,709,1063.5,955,435,1.35,739.8,2.13,0,0,235,0,0,0,4294936834,706,1.01,-0.15,0.08,-3.82,1.67,-1.85,-9.26,-78.54,-1.36,-0.14,0.05,-1.68,-3.28,Sitting
15:22.8,561,660,990,955,436,1.35,742.76,2.13,0,0,235,0,0,0,4294926523,941,0.99,-0.14,0.1,-2.31,3.17,-3.72,-8.61,-78.54,-1.53,-0.03,-0.24,-1.82,-3.17,Sitting
15:22.9,430,602,903,955,436,1.35,742.76,2.13,0,0,231,0,0,0,4294914348,1172,0.99,-0.15,0.1,-1.3,-0.11,-2.8,-8.93,-78.13,-1.61,-0.24,-0.44,-1.9,-3.36,Sitting
15:23.0,443,570,855,955,436,1.35,742.76,2.13,0,0,233,0,0,0,4294903101,1405,0.99,-0.15,0.09,-2.89,-1.71,-0.96,-9.01,-78.39,-1.84,-0.6,-0.46,-2.12,-3.72,Sitting
15:23.1,444,549,823.5,955,437,1.34,745.73,2.14,0,0,233,0,0,0,4294891854,1638,1,-0.15,0.06,-2.37,1.72,0.14,-8.8,-79.5,-2.02,-0.63,-0.36,-2.29,-3.79,Sitting
15:23.2,704,571,856.5,955,438,1.34,748.72,2.14,0,0,235,0,0,0,4294881543,1873,1.02,-0.14,0.08,-1.32,2.79,-1.28,-8.34,-79.52,-2.09,-0.55,-0.41,-2.34,-3.71,Sitting
15:23.3,447,556,834,955,438,1.34,748.72,2.14,0,0,233,0,0,0,4294870296,2106,0.99,-0.14,0.08,-2.34,2.52,-1.37,-8.51,-79.15,-2.27,-0.5,-0.47,-2.52,-3.65,Sitting
15:23.4,537,553,829.5,955,438,1.34,748.72,2.14,20724.16,436,235,20724.04,234,429485984,0,0,0.98,-0.14,0.1,-1.5,2.3,-0.96,-8.88,-78.22,-2.36,-0.47,-0.49,-2.62,-3.58,Sitting
15:23.5,471,545,817.5,955,438,1.34,748.72,2.14,20724.16,436,235,20724.04,234,429485984,4294956985,235,1,-0.14,0.11,-1.64,1.34,-1.37,-8.41,-78.33,-2.47,-0.54,-0.54,-2.71,-3.65,Sitting
15:23.6,539,545,817.5,955,439,1.33,751.71,2.15,20724.16,436,235,20724.04,234,429485984,4294946674,470,1,-0.15,0.09,-3.02,-0.49,1.09,-9.35,-78.17,-2.72,-0.8,-0.35,-2.99,-3.89,Sitting
15:23.7,585,548,822,955,439,1.33,751.71,2.15,20724.16,436,235,20724.04,234,429485984,4294936363,705,1.01,-0.15,0.08,-1.58,1.99,-2.04,-8.86,-78.96,-2.82,-0.8,-0.48,-3.07,-3.92,Sitting
15:23.8,617,553,829.5,955,439,1.33,751.71,2.15,20724.16,436,235,20724.04,234,429485984,4294926052,940,1,-0.14,0.1,-2.6,3.04,-1.31,-8.29,-78.97,-3.03,-0.69,-0.53,-3.24,-3.82,Sitting
15:23.9,542,552,828,955,439,1.33,751.71,2.15,20724.16,436,234,20724.04,234,429485984,4294915272,1174,0.99,-0.15,0.1,-2.23,1.83,0.31,-9.28,-77.94,-3.2,-0.71,-0.42,-3.45,-3.8,Sitting
15:24.0,623,557,835.5,955,440,1.33,754.72,2.15,20724.16,436,232,20724.04,234,429485984,4294903560,1406,1,-0.15,0.09,-1.05,-0.98,-2.4,-9.19,-78.35,-3.25,-1.01,-0.58,-3.49,-4.1,Sitting
15:24.1,542,556,834,955,440,1.33,754.72,2.15,20724.16,436,231,20724.04,234,429485984,4294891385,1637,0.99,-0.14,0.1,-1.45,3.58,-1.7,-8.74,-78.49,-3.34,-0.85,-0.68,-3.56,-3.95,Sitting
15:24.2,574,557,835.5,955,440,1.33,754.72,2.15,20724.16,436,231,20724.04,234,429485984,4294879210,1868,1,-0.15,0.08,-3,0.79,-0.13,-8.82,-79,-3.59,-0.97,-0.61,-3.8,-4.09,Sitting
15:24.3,551,557,835.5,955,440,1.33,754.72,2.15,20724.16,436,231,20724.04,234,429485984,4294867035,2099,1,-0.13,0.08,-0.76,2.21,1.16,-8.17,-79.66,-3.61,-0.95,-0.41,-3.8,-4.1,Sitting
15:24.4,525,555,832.5,955,440,1.33,754.72,2.15,20724.22,439,235,20724.04,233,429485664,0,0,0.99,-0.17,0.08,-1.38,0.57,2.25,-9.97,-77.86,-3.7,-1.09,-0.11,-3.95,-4.16,Sitting
15:24.5,551,555,832.5,955,441,1.32,757.73,2.16,20724.22,439,235,20724.04,233,429485664,4294956985,235,1,-0.15,0.09,-1.11,0.31,-0.02,-9.2,-78.34,-3.75,-1.26,-0.03,-3.97,-4.34,Sitting
15:24.6,621,558,837,955,441,1.32,757.73,2.16,20724.22,439,232,20724.04,233,429485664,4294945273,467,0.99,-0.16,0.13,-2.67,-0.62,-0.66,-9.69,-76.75,-3.97,-1.53,-0.01,-4.2,-4.54,Sitting
15:24.7,500,555,832.5,955,441,1.32,757.73,2.16,20724.22,439,232,20724.04,233,429485664,4294933561,699,1,-0.16,0.11,-1.11,0.79,-3.54,-9.6,-77.49,-4.02,-1.65,-0.29,-4.25,-4.69,Sitting
15:24.8,495,553,829.5,955,441,1.32,757.73,2.16,20724.22,439,234,20724.04,233,429485664,4294922781,933,0.99,-0.15,0.09,-0.73,-0.12,-1.35,-9.01,-78.39,-4.04,-1.87,-0.35,-4.24,-4.93,Sitting
15:24.9,475,549,823.5,955,441,1.32,757.73,2.16,20724.22,439,234,20724.04,233,429485664,4294912001,1167,0.99,-0.15,0.08,0.06,0.78,0.56,-9.05,-78.69,-3.98,-2,-0.21,-4.18,-5.06,Sitting
15:25.0,486,547,820.5,955,443,1.31,763.79,2.17,20724.22,439,234,20724.04,233,429485664,4294901221,1401,1.01,-0.16,0.09,-2.82,0.98,0.32,-9.73,-78,-4.21,-2.1,-0.1,-4.43,-5.14,Sitting
15:25.1,503,545,817.5,955,442,1.31,760.76,2.16,20724.22,439,232,20724.04,233,429485664,4294889509,1633,0.99,-0.16,0.09,-3.18,2.13,-1.05,-9.77,-77.99,-4.48,-2.09,-0.13,-4.69,-5.12,Sitting
15:25.2,499,543,814.5,955,442,1.31,760.76,2.16,20724.22,439,232,20724.04,233,429485664,4294877797,1865,1,-0.16,0.09,-2.3,1.05,-0.95,-9.8,-77.76,-4.65,-2.18,-0.14,-4.86,-5.21,Sitting
15:25.3,474,541,811.5,955,443,1.31,763.79,2.17,20724.22,439,234,20724.04,233,429485664,4294867017,2099,1,-0.16,0.1,-1.56,0.73,-1.92,-9.91,-77.51,-4.76,-2.31,-0.26,-4.96,-5.32,Sitting
15:25.5,469,538,807,955,443,1.31,763.79,2.17,20724.27,441,234,20724.04,233,429485632,0,0,0.99,-0.15,0.07,-3.08,-1.44,-0.94,-9.19,-78.93,-5.01,-2.66,-0.27,-5.18,-5.71,Sitting
15:25.6,442,535,802.5,955,444,1.3,766.84,2.17,20724.27,441,234,20724.04,233,429485632,4294956516,234,0.99,-0.15,0.09,-1.73,2.41,-0.5,-9.4,-78.32,-5.13,-2.62,-0.24,-5.3,-5.65,Sitting
15:25.7,494,534,801,955,444,1.3,766.84,2.17,20724.27,441,234,20724.04,233,429485632,4294945736,468,1,-0.17,0.09,-4.05,-2.44,-0.56,-10.19,-77.58,-5.49,-3.07,-0.22,-5.68,-6.05,Sitting
15:25.8,480,532,798,955,444,1.3,766.84,2.17,20724.27,441,234,20724.04,233,429485632,4294934956,702,1.01,-0.16,0.08,-3.9,2.24,-1.3,-9.46,-78.38,-5.83,-3.05,-0.27,-5.97,-6.06,Sitting
15:25.9,553,533,799.5,955,444,1.3,766.84,2.17,20724.27,441,232,20724.04,233,429485632,4294923244,934,1,-0.18,0.08,-4.53,-1.48,-0.7,-10.5,-77.6,-6.23,-3.4,-0.26,-6.4,-6.37,Sitting
15:26.0,475,531,796.5,955,444,1.3,766.84,2.17,20724.27,441,231,20724.04,233,429485632,4294911069,1165,0.99,-0.16,0.07,-0.75,1.19,-0.79,-9.99,-78.26,-6.25,-3.48,-0.26,-6.4,-6.47,Sitting
15:26.1,492,530,795,955,444,1.3,766.84,2.17,20724.27,441,231,20724.04,233,429485632,4294898894,1396,1,-0.16,0.06,-2.15,0.18,0.97,-9.62,-78.81,-6.41,-3.67,-0.08,-6.54,-6.67,Sitting
15:26.2,512,529,793.5,955,445,1.3,769.9,2.17,20724.27,441,231,20724.04,233,429485632,4294886719,1627,1,-0.17,0.08,-3.08,1.12,-0.48,-10.23,-77.79,-6.67,-3.76,-0.05,-6.81,-6.72,Sitting
15:26.3,876,539,808.5,955,445,1.3,769.9,2.17,20724.27,441,233,20724.04,233,429485632,4294875472,1860,1,-0.16,0.08,-2.33,-0.9,-2.05,-9.76,-78.2,-6.85,-4.05,-0.18,-6.96,-7.02,Sitting
15:26.4,493,538,807,955,445,1.3,769.9,2.17,20724.27,441,233,20724.04,233,429485632,4294864225,2093,0.99,-0.17,0.08,-1.16,-0.85,-0.84,-10.26,-77.81,-6.91,-4.34,-0.18,-7.04,-7.28,Sitting
15:26.5,579,539,808.5,955,445,1.3,769.9,2.17,29.72,444,231,20724.03,232,429485216,0,0,1.02,-0.15,0.05,-0.86,0.15,0.18,-9.17,-79.44,-6.94,-4.53,-0.09,-7.03,-7.52,Sitting
15:26.6,494,537,805.5,955,445,1.3,769.9,2.17,29.72,444,231,20724.03,232,429485216,4294955121,231,1,-0.17,0.06,-0.96,2.6,0.32,-10.42,-77.97,-6.98,-4.47,0.03,-7.12,-7.41,Sitting
15:26.7,476,536,804,955,445,1.3,769.9,2.17,29.72,444,231,20724.03,232,429485216,4294942946,462,1,-0.17,0.07,-1.76,4.08,-0.78,-10.28,-77.84,-7.1,-4.26,0.03,-7.23,-7.2,Sitting
15:26.8,486,535,802.5,955,446,1.29,772.96,2.18,29.72,444,231,20724.03,232,429485216,4294930771,693,1,-0.17,0.08,-2.77,3.73,-2.03,-10.28,-77.64,-7.33,-4.08,-0.1,-7.44,-7.02,Sitting
15:26.9,416,532,798,955,444,1.3,766.84,2.17,29.72,444,230,20724.03,232,429485216,4294918135,923,0.99,-0.17,0.1,-3.44,0.02,-0.78,-10.12,-77.35,-7.62,-4.28,-0.1,-7.72,-7.2,Sitting
15:27.0,491,531,796.5,955,445,1.3,769.9,2.17,29.72,444,231,20724.03,232,429485216,4294905960,1154,1.02,-0.17,0.09,-2.09,0.91,-0.28,-10.17,-77.53,-7.77,-4.39,-0.05,-7.87,-7.32,Sitting
15:27.1,531,531,796.5,955,445,1.3,769.9,2.17,29.72,444,230,20724.03,232,429485216,4294893324,1384,1.01,-0.18,0.07,-2.39,0.27,-1.34,-10.65,-77.52,-7.96,-4.57,-0.1,-8.07,-7.48,Sitting
15:27.2,455,529,793.5,955,445,1.3,769.9,2.17,29.72,444,230,20724.03,232,429485216,4294880688,1614,1.01,-0.17,0.08,-2.02,1.48,-3.22,-10.09,-77.95,-8.11,-4.62,-0.35,-8.19,-7.55,Sitting
15:27.3,465,528,792,955,446,1.29,772.96,2.18,29.72,444,230,20724.03,232,429485216,4294868052,1844,0.99,-0.16,0.08,-3.15,3.43,-2.05,-9.86,-78.18,-8.37,-4.47,-0.48,-8.43,-7.42,Sitting
15:27.4,464,527,790.5,955,445,1.3,769.9,2.17,29.72,444,232,20724.03,232,429485216,4294856340,2076,0.98,-0.17,0.09,-2.71,4.05,-0.74,-10.21,-77.41,-8.59,-4.27,-0.47,-8.65,-7.19,Sitting
15:27.5,465,525,787.5,955,445,1.3,769.9,2.17,38.81,445,231,20724.01,230,429484416,0,0,1.01,-0.18,0.11,-2.3,-1.71,-0.05,-10.54,-76.57,-8.76,-4.63,-0.4,-8.83,-7.51,Sitting
15:27.6,491,525,787.5,955,446,1.29,772.96,2.18,38.81,445,231,20724.01,230,429484416,4294955121,231,1,-0.17,0.08,-2.54,-1.12,-2.54,-10.12,-77.78,-8.97,-4.96,-0.58,-9.01,-7.87,Sitting
15:27.7,485,524,786,955,446,1.29,772.96,2.18,38.81,445,233,20724.01,230,429484416,4294943874,464,0.99,-0.17,0.07,-1.05,-0.52,-2.74,-10.12,-78.14,-9.01,-5.21,-0.78,-9.06,-8.13,Sitting
15:27.8,419,522,783,955,445,1.3,769.9,2.17,38.81,445,231,20724.01,230,429484416,4294931699,695,0.98,-0.16,0.05,-3.53,1.71,-0.34,-10.04,-78.49,-9.32,-5.24,-0.73,-9.35,-8.17,Sitting
15:27.9,435,520,780,955,445,1.3,769.9,2.17,38.81,445,230,20724.01,230,429484416,4294919063,925,1,-0.18,0.06,-4.42,2.39,1.61,-10.89,-77.55,-9.71,-5.2,-0.49,-9.75,-8.09,Sitting
15:28.0,442,519,778.5,955,445,1.3,769.9,2.17,38.81,445,230,20724.01,230,429484416,4294906427,1155,1.01,-0.18,0.09,-4.12,4.8,-0.86,-10.53,-77.36,-10.07,-4.92,-0.5,-10.09,-7.82,Sitting
15:28.1,544,519,778.5,955,445,1.3,769.9,2.17,38.81,445,230,20724.01,230,429484416,4294893791,1385,1,-0.18,0.11,-4.5,0.48,-2.66,-10.67,-76.68,-10.47,-5.07,-0.69,-10.48,-7.94,Sitting
15:28.2,487,519,778.5,955,446,1.29,772.96,2.18,38.81,445,231,20724.01,230,429484416,4294881616,1616,0.99,-0.17,0.1,-1.2,0.4,-0.83,-10.26,-77.29,-10.54,-5.24,-0.69,-10.53,-8.12,Sitting
15:28.3,577,520,780,955,446,1.29,772.96,2.18,38.81,445,231,20724.01,230,429484416,4294869441,1847,1,-0.17,0.05,-0.77,-1.99,1.33,-10.09,-78.43,-10.56,-5.64,-0.48,-10.54,-8.55,Sitting
15:28.4,508,519,778.5,955,446,1.29,772.96,2.18,38.81,445,232,20724.01,230,429484416,4294857729,2079,1.01,-0.18,0.06,-0.99,1.11,-0.66,-10.37,-78.06,-10.6,-5.73,-0.46,-10.59,-8.63,Sitting
15:28.5,566,520,780,955,445,1.3,769.9,2.17,43.15,445,233,20724.01,231,429484640,0,0,1.01,-0.18,0.07,-1.72,1.24,-3.45,-10.94,-77.26,-10.72,-5.81,-0.73,-10.73,-8.67,Sitting
15:28.6,577,521,781.5,955,445,1.3,769.9,2.17,43.15,445,234,20724.01,231,429484640,4294956516,234,0.99,-0.18,0.08,-2.84,2.2,-3.05,-10.65,-77.28,-10.95,-5.79,-0.96,-10.94,-8.65,Sitting
15:28.7,568,522,783,955,445,1.3,769.9,2.17,43.15,445,234,20724.01,231,429484640,4294945736,468,0.99,-0.17,0.09,-3.35,0.38,-0.34,-10.08,-77.69,-11.24,-5.95,-0.92,-11.19,-8.82,Sitting
15:28.8,548,522,783,955,446,1.29,772.96,2.18,43.15,445,233,20724.01,231,429484640,4294934489,701,1,-0.18,0.08,-2.87,0.24,-1.03,-10.6,-77.33,-11.47,-6.13,-0.94,-11.44,-8.98,Sitting
15:28.9,610,524,786,955,446,1.29,772.96,2.18,43.15,445,233,20724.01,231,429484640,4294923242,934,1.01,-0.17,0.07,-1.46,0.17,-2.5,-10.15,-78.16,-11.56,-6.32,-1.11,-11.51,-9.19,Sitting
15:29.0,517,524,786,955,445,1.3,769.9,2.17,43.15,445,234,20724.01,231,429484640,4294912462,1168,0.99,-0.17,0.08,-0.43,0.92,-2.2,-10.04,-77.86,-11.55,-6.43,-1.26,-11.49,-9.29,Sitting
15:29.1,513,523,784.5,955,445,1.3,769.9,2.17,43.15,445,235,20724.01,231,429484640,4294902151,1403,0.99,-0.17,0.08,-2.28,0.4,0.34,-10.41,-77.62,-11.73,-6.59,-1.14,-11.67,-9.43,Sitting
15:29.2,546,524,786,955,445,1.3,769.9,2.17,43.15,445,236,20724.01,231,429484640,4294892311,1639,1,-0.18,0.08,-1.11,1.28,-0.35,-10.59,-77.43,-11.78,-6.67,-1.1,-11.73,-9.5,Sitting
15:29.3,667,526,789,955,445,1.3,769.9,2.17,43.15,445,238,20724.01,231,429484640,4294883419,1877,1.01,-0.17,0.07,-1.35,2.02,0.19,-10.15,-78.03,-11.86,-6.66,-1,-11.79,-9.52,Sitting
15:29.4,507,526,789,955,445,1.3,769.9,2.17,43.15,445,235,20724.01,231,429484640,4294873108,2112,1,-0.17,0.07,-0.53,2.34,-1.85,-10.18,-77.95,-11.86,-6.63,-1.11,-11.79,-9.48,Sitting
15:29.5,590,527,790.5,955,445,1.3,769.9,2.17,39.94,445,234,20724.05,234,429486240,0,0,0.99,-0.16,0.07,-1.62,0.65,-1.34,-9.91,-78.15,-11.96,-6.76,-1.16,-11.88,-9.62,Sitting
15:29.6,461,526,789,955,445,1.3,769.9,2.17,39.94,445,233,20724.05,234,429486240,4294956049,233,1,-0.17,0.07,-3.53,-0.46,-0.95,-10.51,-77.71,-12.27,-7.01,-1.18,-12.2,-9.84,Sitting
15:29.7,467,525,787.5,955,445,1.3,769.9,2.17,39.94,445,235,20724.05,234,429486240,4294945738,468,0.99,-0.18,0.09,-0.02,6.47,0.45,-10.68,-77.03,-12.21,-6.56,-1.05,-12.15,-9.38,Sitting
15:29.8,542,525,787.5,955,445,1.3,769.9,2.17,39.94,445,234,20724.05,234,429486240,4294934958,702,1.01,-0.17,0.09,-3.57,-0.37,2.88,-10.36,-77.49,-12.52,-6.8,-0.68,-12.43,-9.63,Sitting
15:29.9,573,526,789,955,445,1.3,769.9,2.17,39.94,445,236,20724.05,234,429486240,4294925118,938,1.01,-0.19,0.07,-2.88,-0.28,-0.85,-11.07,-77.12,-12.76,-7.03,-0.69,-12.69,-9.84,Sitting
15:30.0,471,525,787.5,955,445,1.3,769.9,2.17,39.94,445,236,20724.05,234,429486240,4294915278,1174,1.01,-0.2,0.09,-2.42,-1.29,-3,-11.51,-76.43,-12.94,-7.37,-0.91,-12.89,-10.13,Sitting
15:30.1,539,525,787.5,955,445,1.3,769.9,2.17,39.94,445,236,20724.05,234,429486240,4294905438,1410,0.99,-0.16,0.07,-1.18,1.18,-4.61,-9.86,-78.37,-13.01,-7.45,-1.3,-12.88,-10.29,Sitting
15:30.2,432,524,786,955,446,1.29,772.96,2.18,39.94,445,234,20724.05,234,429486240,4294894658,1644,0.98,-0.17,0.07,-3.52,-0.15,0.73,-10.46,-77.66,-13.31,-7.67,-1.15,-13.2,-10.47,Sitting
15:30.3,448,523,784.5,955,446,1.29,772.96,2.18,39.94,445,236,20724.05,234,429486240,4294884818,1880,1.01,-0.19,0.07,-4.19,3.27,1.02,-11.04,-77.2,-13.68,-7.54,-0.96,-13.57,-10.33,Sitting
15:30.4,493,522,783,955,446,1.29,772.96,2.18,39.94,445,236,20724.05,234,429486240,4294874978,2116,1.01,-0.18,0.09,-2.63,2.34,-1.45,-10.37,-77.35,-13.89,-7.51,-1.03,-13.75,-10.3,Sitting
15:30.5,452,522,783,955,445,1.3,769.9,2.17,41.04,445,237,20724.06,235,429486560,0,0,0.99,-0.19,0.08,-1.63,1.95,-3.13,-11.23,-76.81,-14,-7.51,-1.26,-13.89,-10.28,Sitting
15:30.6,468,521,781.5,955,445,1.3,769.9,2.17,41.04,445,237,20724.06,235,429486560,4294957929,237,0.98,-0.18,0.08,-1.85,0.89,-1.34,-10.9,-77.11,-14.13,-7.62,-1.32,-14,-10.4,Sitting
15:30.7,543,521,781.5,955,445,1.3,769.9,2.17,41.04,445,237,20724.06,235,429486560,4294948562,474,1,-0.17,0.07,-3.08,0.32,-0.06,-10.26,-77.84,-14.39,-7.8,-1.24,-14.23,-10.6,Sitting
15:30.8,461,520,780,955,445,1.3,769.9,2.17,41.04,445,235,20724.06,235,429486560,4294938251,709,1,-0.18,0.08,-1.56,4.6,-0.81,-10.75,-77.22,-14.49,-7.53,-1.25,-14.34,-10.32,Sitting
15:30.9,499,520,780,955,446,1.29,772.96,2.18,41.04,445,235,20724.06,235,429486560,4294927940,944,0.99,-0.18,0.09,-2.44,0.67,-0.7,-10.6,-77.09,-14.68,-7.67,-1.24,-14.52,-10.45,Sitting
15:31.0,534,520,780,955,446,1.29,772.96,2.18,41.04,445,236,20724.06,235,429486560,4294918100,1180,0.99,-0.18,0.09,-0.89,0.27,1.03,-10.65,-77.17,-14.72,-7.85,-1.05,-14.56,-10.62,Sitting
15:31.1,501,520,780,955,445,1.3,769.9,2.17,41.04,445,235,20724.06,235,429486560,4294907789,1415,1,-0.18,0.09,-1.61,-0.96,-1.16,-11.03,-76.89,-14.82,-8.15,-1.09,-14.67,-10.9,Sitting
15:31.2,492,520,780,955,445,1.3,769.9,2.17,41.04,445,235,20724.06,235,429486560,4294897478,1650,1.01,-0.18,0.07,-3.06,0.63,-1.89,-10.82,-77.49,-15.08,-8.29,-1.2,-14.91,-11.06,Sitting
15:31.4,565,520,780,955,445,1.3,769.9,2.17,41.04,445,234,20724.06,235,429486560,4294886698,1884,0.99,-0.19,0.07,-3.1,2.34,-2.41,-11.17,-77.09,-15.34,-8.25,-1.37,-15.17,-11.01,Sitting
15:31.5,472,520,780,955,445,1.3,769.9,2.17,41.04,445,234,20724.06,235,429486560,4294875918,2118,0.99,-0.18,0.09,-2.1,2.92,-1.27,-10.73,-77.1,-15.5,-8.16,-1.42,-15.31,-10.92,Sitting
15:31.6,484,519,778.5,955,445,1.3,769.9,2.17,39.94,445,234,20724.06,235,429486528,0,0,0.99,-0.18,0.12,-1.34,3.26,-1.01,-10.94,-76.08,-15.58,-8.03,-1.44,-15.39,-10.76,Sitting
15:31.7,511,519,778.5,955,445,1.3,769.9,2.17,39.94,445,235,20724.06,235,429486528,4294956985,235,0.99,-0.18,0.11,-1.39,-4.06,-0.34,-10.68,-76.65,-15.66,-8.65,-1.39,-15.46,-11.37,Sitting
15:31.8,786,522,783,955,445,1.3,769.9,2.17,39.94,445,235,20724.06,235,429486528,4294946674,470,1.01,-0.18,0.07,-0.27,0.63,-1.69,-10.68,-77.47,-15.63,-8.79,-1.49,-15.43,-11.53,Sitting
15:31.9,405,521,781.5,955,446,1.29,772.96,2.18,39.94,445,235,20724.06,235,429486528,4294936363,705,1,-0.18,0.06,-1.37,-1.41,-2.07,-10.7,-77.75,-15.71,-9.13,-1.62,-15.51,-11.88,Sitting
15:32.0,494,521,781.5,955,446,1.29,772.96,2.18,39.94,445,236,20724.06,235,429486528,4294926523,941,1,-0.18,0.06,-2.67,0.95,-3.92,-10.67,-77.78,-15.93,-9.24,-1.93,-15.72,-11.98,Sitting
15:32.1,369,519,778.5,955,445,1.3,769.9,2.17,39.94,445,235,20724.06,235,429486528,4294916212,1176,0.98,-0.16,0.08,-2.83,2.11,1.29,-9.86,-78.16,-16.16,-9.23,-1.72,-15.91,-11.99,Sitting
15:32.2,409,518,777,955,445,1.3,769.9,2.17,39.94,445,235,20724.06,235,429486528,4294905901,1411,1,-0.19,0.09,-1.75,-0.39,1.6,-11.1,-76.64,-16.28,-9.47,-1.47,-16.07,-12.16,Sitting
15:32.3,482,517,775.5,955,445,1.3,769.9,2.17,39.94,445,237,20724.06,235,429486528,4294896534,1648,1.02,-0.19,0.08,-2.36,-0.16,-1.06,-11.13,-77.04,-16.46,-9.69,-1.5,-16.25,-12.39,Sitting
15:32.4,654,519,778.5,955,445,1.3,769.9,2.17,39.94,445,237,20724.06,235,429486528,4294887167,1885,1,-0.18,0.07,-2.59,2.15,-3.6,-10.63,-77.61,-16.67,-9.68,-1.79,-16.43,-12.4,Sitting
15:32.5,471,518,777,955,445,1.3,769.9,2.17,39.94,445,236,20724.06,235,429486528,4294877327,2121,0.98,-0.17,0.06,-2.09,1.33,-1.53,-10.43,-78.01,-16.83,-9.75,-1.86,-16.57,-12.48,Sitting
15:32.6,602,519,778.5,955,445,1.3,769.9,2.17,39.94,445,237,20724.06,235,429486784,0,0,0.99,-0.19,0.09,-2.59,1.44,1.24,-11.16,-76.7,-17.03,-9.8,-1.66,-16.8,-12.48,Sitting
15:32.7,493,519,778.5,955,446,1.29,772.96,2.18,39.94,445,238,20724.06,235,429486784,4294958404,238,1,-0.19,0.09,-1.82,2.19,-1.02,-11.11,-76.63,-17.16,-9.78,-1.68,-16.92,-12.46,Sitting
15:32.8,552,515,772.5,955,446,1.29,772.96,2.18,39.94,445,238,20724.06,235,429486784,4294949512,476,1.01,-0.19,0.1,-2.24,0.27,-3.41,-11.02,-76.55,-17.33,-9.96,-1.95,-17.08,-12.62,Sitting
15:32.9,532,516,774,955,446,1.29,772.96,2.18,39.94,445,237,20724.06,235,429486784,4294940145,713,0.99,-0.18,0.09,-2.47,-0.32,-3.41,-10.73,-77.11,-17.53,-10.2,-2.22,-17.26,-12.88,Sitting
15:33.0,590,516,774,955,446,1.29,772.96,2.18,39.94,445,238,20724.06,235,429486784,4294931253,951,0.98,-0.17,0.06,-1.06,-0.21,-0.63,-10.36,-78.06,-17.58,-10.43,-2.2,-17.29,-13.13,Sitting
15:33.1,675,518,777,955,446,1.29,772.96,2.18,39.94,445,239,20724.06,235,429486784,4294922838,1190,1,-0.17,0.08,-1.27,3.76,1.49,-10.27,-77.64,-17.65,-10.24,-1.97,-17.36,-12.94,Sitting
15:33.2,561,519,778.5,955,445,1.3,769.9,2.17,39.94,445,241,20724.06,235,429486784,4294915383,1431,1.01,-0.18,0.09,-2.05,0.21,0.66,-10.79,-76.92,-17.8,-10.43,-1.82,-17.52,-13.09,Sitting
15:33.3,601,521,781.5,955,445,1.3,769.9,2.17,39.94,445,238,20724.06,235,429486784,4294906491,1669,1,-0.19,0.09,-1.66,1.97,-2.85,-11.38,-76.36,-17.92,-10.43,-2.03,-17.65,-13.07,Sitting
15:33.4,507,519,778.5,955,445,1.3,769.9,2.17,39.94,445,237,20724.06,235,429486784,4294897124,1906,1,-0.17,0.08,-1.87,0.3,-2.55,-10.41,-77.59,-18.05,-10.61,-2.21,-17.75,-13.29,Sitting
15:33.5,551,520,780,955,445,1.3,769.9,2.17,39.94,445,238,20724.06,235,429486784,4294888232,2144,0.98,-0.18,0.07,-2.4,-2.43,0,-10.81,-77.34,-18.24,-11.06,-2.13,-17.94,-13.71,Sitting
15:33.6,564,520,780,955,445,1.3,769.9,2.17,43.15,445,238,20724.09,238,429487936,0,0,0.99,-0.19,0.06,-0.52,2.34,-0.71,-11.36,-77.07,-18.23,-11.02,-2.12,-17.96,-13.66,Sitting
15:33.7,600,522,783,955,445,1.3,769.9,2.17,43.15,445,238,20724.09,238,429487936,4294958404,238,1.01,-0.18,0.08,-3.01,2.16,-1.13,-10.5,-77.59,-18.48,-11.01,-2.16,-18.16,-13.67,Sitting
15:33.8,565,522,783,955,445,1.3,769.9,2.17,43.15,445,238,20724.09,238,429487936,4294949512,476,1,-0.19,0.08,-3.48,0.91,-0.72,-11.24,-76.82,-18.78,-11.12,-2.15,-18.48,-13.75,Sitting
15:33.9,527,521,781.5,955,445,1.3,769.9,2.17,43.15,445,238,20724.09,238,429487936,4294940620,714,1,-0.18,0.1,-1.63,2.05,-2.11,-10.96,-76.71,-18.89,-11.11,-2.28,-18.57,-13.74,Sitting
15:34.0,586,521,781.5,955,445,1.3,769.9,2.17,43.15,445,239,20724.09,238,429487936,4294932205,953,1,-0.18,0.09,-1.31,-0.86,-2.45,-10.93,-76.76,-18.97,-11.4,-2.45,-18.65,-14.02,Sitting
15:34.1,488,520,780,955,445,1.3,769.9,2.17,43.15,445,239,20724.09,238,429487936,4294923790,1192,0.99,-0.18,0.09,-2.28,-3.28,-1.09,-10.63,-77.2,-19.15,-11.95,-2.48,-18.81,-14.56,Sitting
15:40.7,562,562,843,562,436,1.35,742.76,2.13,0,0,231,0,0,0,4294943874,464,1,-0.11,0.15,-4.45,4.58,-1.44,-6.91,-77.9,-0.36,0.61,-0.28,-0.62,-2.53,Left Fall while Sitting
15:40.8,523,542,813,562,436,1.35,742.76,2.13,0,0,231,0,0,0,4294931699,695,0.97,-0.12,0.15,-0.96,5.39,-2.21,-7.27,-77.29,-0.4,0.94,-0.42,-0.67,-2.19,Left Fall while Sitting
15:40.9,518,534,801,562,436,1.35,742.76,2.13,0,0,231,0,0,0,4294919524,926,0.97,-0.11,0.2,-1.4,-2.21,-1.95,-7.19,-74.9,-0.48,0.53,-0.53,-0.75,-2.49,Left Fall while Sitting
15:41.0,570,543,814.5,570,437,1.34,745.73,2.14,0,0,233,0,0,0,4294908277,1159,1.01,-0.1,0.22,0.53,-0.25,0.29,-5.85,-74.83,-0.37,0.31,-0.43,-0.59,-2.7,Left Fall while Sitting
15:41.1,525,539,808.5,570,437,1.34,745.73,2.14,0,0,233,0,0,0,4294897030,1392,1.03,-0.11,0.16,8.71,11.14,-15.52,-6.59,-77.99,0.54,1.2,-1.87,0.25,-1.96,Left Fall while Sitting
15:41.2,531,538,807,570,437,1.34,745.73,2.14,0,0,233,0,0,0,4294885783,1625,0.95,-0.06,0.12,3.67,20.03,-16.15,-4.05,-80.42,0.95,2.97,-3.37,0.75,-0.37,Left Fall while Sitting
15:41.3,544,539,808.5,570,437,1.34,745.73,2.14,0,0,234,0,0,0,4294875003,1859,0.94,-0.02,0.18,-0.1,5.43,-2.44,-1.64,-77.41,1,3.31,-3.54,0.89,0.08,Left Fall while Sitting
15:41.4,553,540,810,570,437,1.34,745.73,2.14,0,0,232,0,0,0,4294863291,2091,1,-0.05,0.2,0.67,-2.54,-2.14,-3.13,-76.68,1.12,2.86,-3.67,0.95,-0.33,Left Fall while Sitting
15:41.5,992,590,885,992,438,1.34,748.72,2.14,20724.16,436,231,20724.02,232,429485120,0,0,0.98,-0.02,0.21,0.94,-0.31,-7.53,-1.9,-76.21,1.27,2.63,-4.34,1.14,-0.53,Left Fall while Sitting
15:41.6,530,584,876,992,436,1.35,742.76,2.13,20724.16,436,234,20724.02,232,429485120,4294956516,234,0.97,-0.01,0.24,3.88,4.88,-12.48,-1.42,-74.83,1.72,2.92,-5.52,1.59,-0.19,Left Fall while Sitting
15:41.7,625,588,882,992,435,1.35,739.8,2.13,20724.16,436,231,20724.02,232,429485120,4294944341,465,1,0,0.2,2.62,5.44,-16.82,-0.72,-77.25,2.04,3.27,-7.15,1.93,0.05,Left Fall while Sitting
15:41.8,507,581,871.5,992,434,1.36,736.84,2.12,20724.16,436,234,20724.02,232,429485120,4294933561,699,0.91,0.03,0.2,6.91,9.69,-13.29,1.4,-75.79,2.79,4.04,-8.4,2.73,0.84,Left Fall while Sitting
15:41.9,528,577,865.5,992,432,1.37,730.96,2.11,20724.16,436,234,20724.02,232,429485120,4294922781,933,0.95,0.04,0.24,2.5,8.3,-7.82,1.6,-74.15,3.1,4.68,-9.12,3.04,1.53,Left Fall while Sitting
15:42.0,530,574,861,992,430,1.38,725.13,2.1,20724.16,436,229,20724.02,232,429485120,4294909686,1162,1.01,0.06,0.28,3.06,9.12,-16.63,2.75,-72.75,3.46,5.39,-10.7,3.43,2.27,Left Fall while Sitting
15:42.1,481,567,850.5,992,429,1.38,722.22,2.1,20724.16,436,229,20724.02,232,429485120,4294896591,1391,0.97,0.11,0.26,9.43,0.13,-20.34,5.77,-72.44,4.47,5.2,-12.68,4.52,2.1,Left Fall while Sitting
15:42.2,446,560,840,992,428,1.39,719.33,2.09,20724.16,436,233,20724.02,232,429485120,4294885344,1624,0.96,0.15,0.24,11.57,-5.67,-20.66,8.06,-71.8,5.71,4.42,-14.7,5.8,1.37,Left Fall while Sitting
15:42.3,552,559,838.5,992,427,1.4,716.44,2.09,20724.16,436,232,20724.02,232,429485120,4294873632,1856,0.91,0.19,0.25,6.51,0.11,-21,10.54,-69.51,6.42,4.23,-16.75,6.59,1.28,Left Fall while Sitting
15:42.4,520,557,835.5,992,426,1.4,713.57,2.08,20724.16,436,232,20724.02,232,429485120,4294861920,2088,0.92,0.23,0.25,6.5,9.17,-21.47,12.72,-68.45,7.13,4.95,-18.83,7.36,2.02,Left Fall while Sitting
15:42.5,540,556,834,992,427,1.4,716.44,2.09,20724.03,430,233,20724.02,232,429485056,0,0,0.92,0.24,0.25,5.74,4.85,-23.85,13.8,-67.44,7.76,5.24,-21.14,8.01,2.33,Left Fall while Sitting
15:42.6,585,558,837,992,426,1.4,713.57,2.08,20724.03,430,233,20724.02,232,429485056,4294956049,233,0.91,0.3,0.26,10.68,8.16,-26.12,16.7,-64.94,8.9,5.86,-23.7,9.21,3.03,Left Fall while Sitting
15:42.7,534,556,834,992,427,1.4,716.44,2.09,20724.03,430,233,20724.02,232,429485056,4294944802,466,0.88,0.36,0.27,13.63,15.48,-27.69,21,-61.29,10.33,7.22,-26.42,10.76,4.48,Left Fall while Sitting
15:42.8,499,554,831,992,426,1.4,713.57,2.08,20724.03,430,233,20724.02,232,429485056,4294933555,699,0.87,0.41,0.24,13.58,6.24,-25.96,23.99,-59.79,11.78,7.65,-28.98,12.26,4.96,Left Fall while Sitting
15:42.9,510,552,828,992,427,1.4,716.44,2.09,20724.03,430,233,20724.02,232,429485056,4294922308,932,0.83,0.46,0.23,4.58,-4.27,-19.53,27.43,-56.84,12.3,7.02,-30.88,12.9,4.47,Left Fall while Sitting
15:43.0,418,546,819,992,427,1.4,716.44,2.09,20724.03,430,231,20724.02,232,429485056,4294910133,1163,0.83,0.48,0.22,3.44,3.43,-14.4,28.49,-55.91,12.71,7.17,-32.28,13.34,4.64,Left Fall while Sitting
15:43.1,389,540,810,992,428,1.39,719.33,2.09,20724.03,430,233,20724.02,232,429485056,4294898886,1396,0.8,0.5,0.27,5.83,7.95,-19.83,30.13,-52.94,13.35,7.77,-34.2,14.02,5.34,Left Fall while Sitting
15:43.2,384,534,801,992,429,1.38,722.22,2.1,20724.03,430,234,20724.02,232,429485056,4294888106,1630,0.76,0.56,0.27,11.8,5.07,-20.52,34.39,-48.98,14.6,8.08,-36.19,15.39,5.8,Left Fall while Sitting
15:43.3,421,530,795,992,429,1.38,722.22,2.1,20724.03,430,233,20724.02,232,429485056,4294876859,1863,0.75,0.57,0.19,9.64,0.81,-15.9,36.1,-49.35,15.65,7.96,-37.75,16.47,5.66,Left Fall while Sitting
15:43.4,902,543,814.5,992,429,1.38,722.22,2.1,20724.03,430,231,20724.02,232,429485056,4294864684,2094,0.73,0.61,0.2,-3.47,5.38,-5.33,38.15,-47.28,15.36,8.3,-38.21,16.27,6.07,Left Fall while Sitting
15:43.5,519,542,813,992,427,1.4,716.44,2.09,20723.97,427,233,20724.03,232,429485344,0,0,0.77,0.59,0.27,-7.26,8.55,-1.89,35.41,-48.28,14.7,8.95,-38.32,15.52,6.66,Left Fall while Sitting
15:43.6,689,547,820.5,992,426,1.4,713.57,2.08,20723.97,427,231,20724.03,232,429485344,4294955121,231,0.75,0.57,0.31,-1.82,-0.19,0.07,34.39,-47.63,14.57,8.72,-38.23,15.36,6.47,Left Fall while Sitting
15:43.7,638,550,825,992,423,1.42,705,2.07,20723.97,427,233,20724.03,232,429485344,4294943874,464,0.73,0.59,0.23,4.11,2.72,-5.34,37.31,-47.1,15.04,8.79,-38.69,15.93,6.56,Left Fall while Sitting
15:43.8,680,554,831,992,421,1.43,699.34,2.06,20723.97,427,230,20724.03,232,429485344,4294931238,694,0.77,0.6,0.24,-0.63,8.29,-9.36,35.93,-48.65,15.04,9.43,-39.56,15.87,7.11,Left Fall while Sitting
15:43.9,693,558,837,992,419,1.44,693.71,2.05,20723.97,427,230,20724.03,232,429485344,4294918602,924,0.72,0.62,0.25,0.5,1.44,-10.12,38.6,-45.37,15.15,9.37,-40.51,16.08,7.18,Left Fall while Sitting
15:44.0,673,562,843,992,418,1.45,690.91,2.04,20723.97,427,230,20724.03,232,429485344,4294905966,1154,0.69,0.61,0.25,1.4,-4.51,-0.12,39.32,-44.73,15.34,8.71,-40.44,16.3,6.58,Left Fall while Sitting
15:44.1,658,564,846,992,415,1.47,682.57,2.03,20723.97,427,233,20724.03,232,429485344,4294894719,1387,0.72,0.63,0.22,-0.26,-0.43,2.31,39.13,-45.9,15.37,8.47,-40.13,16.32,6.29,Left Fall while Sitting
15:44.2,630,566,849,992,414,1.47,679.8,2.02,20723.97,427,232,20724.03,232,429485344,4294883007,1619,0.74,0.62,0.21,-3.99,0.5,1.7,38.29,-47,15.03,8.32,-39.88,15.96,6.1,Left Fall while Sitting
15:44.3,626,568,852,992,413,1.48,677.05,2.02,20723.97,427,231,20724.03,232,429485344,4294870832,1850,0.74,0.61,0.23,-6.4,0.6,-0.44,37.42,-47.35,14.43,8.17,-39.84,15.35,5.95,Left Fall while Sitting
15:44.4,555,567,850.5,992,412,1.48,674.3,2.01,20723.97,427,229,20724.03,232,429485344,4294857737,2079,0.72,0.61,0.2,-14.02,-4.83,4.45,38.96,-46.36,13.07,7.48,-39.31,14.1,5.33,Left Fall while Sitting
15:44.5,539,567,850.5,992,412,1.48,674.3,2.01,20723.76,417,226,20724,230,429484320,0,0,0.79,0.6,0.29,-3.93,-4.54,-0.59,34.78,-48.45,12.73,6.83,-39.29,13.61,4.62,Left Fall while Sitting
15:44.6,541,566,849,992,411,1.49,671.57,2.01,20723.76,417,226,20724,230,429484320,4294952836,226,0.77,0.58,0.28,-4.81,-7.11,-5.33,34.91,-48.36,12.3,5.9,-39.76,13.2,3.73,Left Fall while Sitting
15:44.7,521,565,847.5,992,411,1.49,671.57,2.01,20723.76,417,228,20724,230,429484320,4294939284,454,0.72,0.6,0.21,-1.66,-10.85,2.37,38.12,-46.92,12.18,4.6,-39.44,13.22,2.54,Left Fall while Sitting
15:44.8,500,563,844.5,992,410,1.5,668.84,2,20723.76,417,225,20724,230,429484320,4294924373,679,0.71,0.58,0.17,-2.12,-5.41,5.66,37.86,-48.08,12.03,3.85,-38.79,13.06,1.77,Left Fall while Sitting
15:44.9,563,563,844.5,992,412,1.48,674.3,2.01,20723.76,417,228,20724,230,429484320,4294910821,907,0.79,0.57,0.19,-1.48,-0.43,6.53,34.12,-51.58,11.93,3.6,-38.04,12.82,1.39,Left Fall while Sitting
15:45.0,450,561,841.5,992,412,1.48,674.3,2.01,20723.76,417,228,20724,230,429484320,4294897269,1135,0.77,0.57,0.21,-8.15,12.63,2.67,34.93,-50.15,11.17,4.68,-37.69,12.12,2.48,Left Fall while Sitting
15:45.1,468,559,838.5,992,413,1.48,677.05,2.02,20723.76,417,233,20724,230,429484320,4294886022,1368,0.79,0.58,0.21,-5.72,9.32,4.34,34.61,-50.62,10.64,5.43,-37.16,11.59,3.19,Left Fall while Sitting
15:45.2,465,557,835.5,992,414,1.47,679.8,2.02,20723.76,417,234,20724,230,429484320,4294875242,1602,0.79,0.55,0.23,-7.56,1.2,2.48,33.15,-51.49,9.93,5.35,-36.83,10.86,3.07,Left Fall while Sitting
15:45.3,467,555,832.5,992,415,1.47,682.57,2.03,20723.76,417,234,20724,230,429484320,4294864462,1836,0.78,0.54,0.25,-3.46,-1.86,-0.69,32.76,-51.12,9.64,4.96,-36.82,10.56,2.72,Left Fall while Sitting
15:45.4,435,552,828,992,417,1.45,688.12,2.04,20723.76,417,234,20724,230,429484320,4294853682,2070,0.79,0.53,0.25,-8.5,-7.78,6.24,32.25,-51.81,8.83,3.96,-36.1,9.76,1.73,Left Fall while Sitting
15:45.5,478,551,826.5,992,418,1.45,690.91,2.04,20723.68,413,232,20724,230,429484192,0,0,0.8,0.56,0.22,-2.51,7.21,-2.5,33.71,-51.19,8.63,4.48,-36.27,9.64,2.25,Left Fall while Sitting
15:45.6,554,551,826.5,992,420,1.44,696.52,2.05,20723.68,413,233,20724,230,429484192,4294956049,233,0.78,0.54,0.25,-5.64,-2,5.25,32.96,-50.87,8.12,4.07,-35.66,9.11,1.88,Left Fall while Sitting
15:45.7,439,549,823.5,992,420,1.44,696.52,2.05,20723.68,413,233,20724,230,429484192,4294944802,466,0.79,0.53,0.26,-3.5,5.43,2.63,32.12,-51.39,7.82,4.42,-35.31,8.79,2.19,Left Fall while Sitting
15:45.8,483,547,820.5,992,419,1.44,693.71,2.05,20723.68,413,232,20724,230,429484192,4294933090,698,0.78,0.51,0.23,-4.74,-7.44,6.04,31.54,-52.87,7.4,3.48,-34.63,8.37,1.22,Left Fall while Sitting
15:45.9,505,546,819,992,422,1.42,702.16,2.06,20723.68,413,231,20724,230,429484192,4294920915,929,0.8,0.52,0.22,-1.77,-0.66,6.17,31.18,-53.43,7.28,3.21,-33.93,8.24,0.94,Left Fall while Sitting
15:46.0,459,545,817.5,992,423,1.42,705,2.07,20723.68,413,233,20724,230,429484192,4294909668,1162,0.83,0.5,0.23,-6.23,2.47,9.73,29.62,-54.83,6.7,3.26,-32.86,7.62,0.93,Left Fall while Sitting
15:46.1,439,543,814.5,992,424,1.41,707.85,2.07,20723.68,413,234,20724,230,429484192,4294898888,1396,0.83,0.48,0.27,-8.63,2.25,7.77,28,-55.01,5.89,3.28,-31.99,6.77,0.95,Left Fall while Sitting
15:46.2,502,542,813,992,425,1.41,710.7,2.08,20723.68,413,235,20724,230,429484192,4294888577,1631,0.83,0.45,0.26,-8.56,5.37,5.1,26.48,-56.7,5.08,3.62,-31.4,5.93,1.21,Left Fall while Sitting
15:46.3,429,540,810,992,426,1.4,713.57,2.08,20723.68,413,233,20724,230,429484192,4294877330,1864,0.8,0.43,0.22,-11.9,14.98,7.29,27.09,-56.91,3.93,4.93,-30.58,4.86,2.46,Left Fall while Sitting
15:46.4,440,538,807,992,426,1.4,713.57,2.08,20723.68,413,233,20724,230,429484192,4294866083,2097,0.86,0.39,0.25,-20.42,7.93,18.76,23.14,-60.01,1.93,5.53,-28.61,2.78,2.91,Left Fall while Sitting
15:46.5,448,537,805.5,992,427,1.4,716.44,2.09,20723.88,423,233,20724.03,233,429485472,0,0,0.83,0.38,0.37,-23.27,8.21,17.92,21.84,-56.17,-0.34,6.15,-26.74,0.54,3.66,Left Fall while Sitting
15:46.6,434,535,802.5,992,427,1.4,716.44,2.09,20723.88,423,236,20724.03,233,429485472,4294957456,236,0.85,0.34,0.39,-15.02,17.96,18.18,19.24,-57.04,-1.82,7.78,-24.8,-0.98,5.19,Left Fall while Sitting
15:46.7,434,533,799.5,992,428,1.39,719.33,2.09,20723.88,423,231,20724.03,233,429485472,4294945281,467,0.84,0.28,0.42,-13.66,4.35,22.45,16.03,-57.11,-3.14,8.02,-22.45,-2.37,5.42,Left Fall while Sitting
15:46.8,453,532,798,992,428,1.39,719.33,2.09,20723.88,423,230,20724.03,233,429485472,4294932645,697,0.86,0.25,0.43,-1.51,1.89,25.63,13.81,-58.5,-3.24,8.01,-19.76,-2.56,5.35,Left Fall while Sitting
15:46.9,418,530,795,992,429,1.38,722.22,2.1,20723.88,423,232,20724.03,233,429485472,4294920933,929,0.9,0.2,0.4,-11.91,-9.67,20.38,10.68,-62.07,-4.38,6.83,-17.62,-3.78,4.07,Left Fall while Sitting
15:47.0,351,528,792,992,429,1.38,722.22,2.1,20723.88,423,232,20724.03,233,429485472,4294909221,1161,0.92,0.18,0.37,-1.48,-13.41,17.35,10.03,-64.3,-4.48,5.24,-15.75,-3.9,2.46,Left Fall while Sitting
15:47.1,381,525,787.5,992,431,1.37,728.04,2.11,20723.88,423,245,20724.03,233,429485472,4294903710,1406,0.93,0.13,0.36,-3,-17.04,16.01,6.88,-65.74,-4.73,3.3,-14.04,-4.26,0.54,Left Fall while Sitting
15:47.2,398,523,784.5,992,431,1.37,728.04,2.11,20723.88,423,234,20724.03,233,429485472,4294892930,1640,0.95,0.12,0.33,-4.66,-24.92,14.32,6.1,-68.38,-5.14,0.58,-12.51,-4.69,-2.18,Left Fall while Sitting
15:47.3,380,521,781.5,992,430,1.38,725.13,2.1,20723.88,423,234,20724.03,233,429485472,4294882150,1874,0.95,0.09,0.28,0.76,-18.89,15.28,4.86,-70.94,-5.01,-1.57,-10.86,-4.61,-4.34,Left Fall while Sitting
15:47.4,485,521,781.5,992,431,1.37,728.04,2.11,20723.88,423,234,20724.03,233,429485472,4294871370,2108,0.99,0.05,0.23,-1.46,-32.66,17.6,2.08,-75.33,-5.1,-5.07,-9,-4.81,-7.88,Left Fall while Sitting
15:47.5,481,520,780,992,431,1.37,728.04,2.11,20724.01,429,238,20724.05,234,429486240,0,0,0.98,0.04,0.14,7.38,-6.31,7.5,1.8,-80.01,-4.3,-5.9,-8.17,-4.06,-8.87,Left Fall while Sitting
15:47.6,508,520,780,992,432,1.37,730.96,2.11,20724.01,429,236,20724.05,234,429486240,4294957456,236,0.97,0.01,0.14,-2.87,-10.06,10.41,-0.22,-80.26,-4.54,-7.13,-7.03,-4.37,-10.06,Left Fall while Sitting
15:47.7,595,521,781.5,992,431,1.37,728.04,2.11,20724.01,429,237,20724.05,234,429486240,4294948089,473,1.01,0.01,0.12,-2.51,1.05,6.04,-0.25,-81.45,-4.74,-7.23,-6.33,-4.56,-10.2,Left Fall while Sitting
15:47.8,597,522,783,992,430,1.38,725.13,2.1,20724.01,429,238,20724.05,234,429486240,4294939197,711,0.98,-0.01,0.15,-12.71,17.68,5.72,-0.96,-79.7,-5.98,-5.63,-5.67,-5.78,-8.59,Left Fall while Sitting
15:47.9,594,523,784.5,992,429,1.38,722.22,2.1,20724.01,429,238,20724.05,234,429486240,4294930305,949,0.99,-0.03,0.21,-15.65,9.57,3.78,-2.56,-76.53,-7.51,-4.86,-5.2,-7.32,-7.72,Left Fall while Sitting
15:48.0,615,524,786,992,427,1.4,716.44,2.09,20724.01,429,238,20724.05,234,429486240,4294921413,1187,0.97,-0.03,0.23,-16.73,5.99,3.63,-2.34,-75.16,-9.15,-4.45,-4.75,-8.88,-7.28,Left Fall while Sitting
15:48.1,541,524,786,992,424,1.41,707.85,2.07,20724.01,429,238,20724.05,234,429486240,4294912521,1425,0.97,-0.05,0.26,-16.24,0.05,12.92,-3.47,-72.92,-10.76,-4.65,-3.34,-10.47,-7.38,Left Fall while Sitting
15:48.2,503,524,786,992,421,1.43,699.34,2.06,20724.01,429,234,20724.05,234,429486240,4294901741,1659,0.96,-0.09,0.27,-12.82,-6.14,12.56,-6,-71.81,-12.01,-5.48,-1.98,-11.77,-8.14,Left Fall while Sitting
15:48.4,518,524,786,992,418,1.45,690.91,2.04,20724.01,429,233,20724.05,234,429486240,4294890494,1892,0.97,-0.1,0.25,-2.73,-12.36,5.03,-6.08,-72.98,-12.24,-6.96,-1.38,-11.99,-9.6,Left Fall while Sitting
15:48.5,534,524,786,992,415,1.47,682.57,2.03,20724.01,429,232,20724.05,234,429486240,4294878782,2124,0.96,-0.11,0.18,-0.91,-18.97,13.37,-7.01,-75.78,-12.27,-9.1,0.06,-12.06,-11.77,Left Fall while Sitting
15:48.6,467,523,784.5,992,413,1.48,677.05,2.02,20723.9,424,235,20724.07,235,429486848,0,0,1.01,-0.15,0.13,1.34,-17.44,14.05,-8.94,-77.3,-12.08,-11.05,1.55,-11.96,-13.7,Left Fall while Sitting
15:55.1,514,514,771,514,416,1.46,685.34,2.03,0,0,233,0,0,0,4294945269,467,1.01,-0.09,0.06,-1.14,-1.46,-4.11,-5.89,-82.02,-0.05,-0.16,-0.35,-0.28,-3.44,Right Fall while Sitting
15:55.2,454,484,726,514,416,1.46,685.34,2.03,0,0,234,0,0,0,4294934489,701,0.99,-0.08,0.08,0.1,-1.88,-1.77,-5.36,-81.86,0.02,-0.54,-0.45,-0.2,-3.8,Right Fall while Sitting
15:55.3,554,507,760.5,554,417,1.45,688.12,2.04,0,0,234,0,0,0,4294923709,935,1.01,-0.09,0.06,-1.77,-2.37,2.83,-5.71,-82.38,-0.1,-0.97,-0.09,-0.32,-4.23,Right Fall while Sitting
15:55.4,440,490,735,554,417,1.45,688.12,2.04,0,0,234,0,0,0,4294912929,1169,1.02,-0.1,0.05,-0.95,2.64,0.31,-6.29,-81.95,-0.14,-0.91,0.02,-0.39,-4.15,Right Fall while Sitting
15:55.5,481,488,732,554,418,1.45,690.91,2.04,0,0,232,0,0,0,4294901217,1401,1.01,-0.11,0.05,-2.6,-0.49,-0.4,-6.5,-81.85,-0.34,-1.15,0.06,-0.58,-4.38,Right Fall while Sitting
15:55.6,543,497,745.5,554,419,1.44,693.71,2.05,0,0,233,0,0,0,4294889970,1634,1.02,-0.1,0.05,-2.73,3.3,-2.5,-5.99,-82.22,-0.55,-1.02,-0.11,-0.77,-4.27,Right Fall while Sitting
15:55.7,501,498,747,554,420,1.44,696.52,2.05,0,0,232,0,0,0,4294878258,1866,1.02,-0.11,0.06,-1.75,3.34,-2.53,-6.64,-81.53,-0.67,-0.89,-0.28,-0.91,-4.11,Right Fall while Sitting
15:55.8,509,499,748.5,554,420,1.44,696.52,2.05,0,0,233,0,0,0,4294867011,2099,1,-0.09,0.07,-2.15,1.82,-2.07,-5.94,-81.76,-0.83,-0.91,-0.41,-1.03,-4.14,Right Fall while Sitting
15:55.9,449,493,739.5,554,420,1.44,696.52,2.05,20723.77,417,232,20724.03,233,429485536,0,0,0.99,-0.09,0.06,-1.24,1.93,0.83,-5.55,-82.26,-0.89,-0.91,-0.25,-1.08,-4.17,Right Fall while Sitting
15:56.0,465,491,736.5,554,420,1.44,696.52,2.05,20723.77,417,231,20724.03,233,429485536,4294955121,231,1.01,-0.11,0.08,-1.27,-0.46,1.92,-6.62,-80.74,-0.97,-1.16,0.03,-1.19,-4.34,Right Fall while Sitting
15:56.1,503,492,738,554,421,1.43,699.34,2.06,20723.77,417,232,20724.03,233,429485536,4294943409,463,1.02,-0.12,0.05,-0.92,-0.4,-1.12,-7.12,-81.31,-1,-1.41,-0.01,-1.25,-4.6,Right Fall while Sitting
15:56.2,532,495,742.5,554,421,1.43,699.34,2.06,20723.77,417,232,20724.03,233,429485536,4294931697,695,1,-0.1,0.08,-1.82,1.96,-1.04,-6.05,-81.47,-1.13,-1.41,-0.03,-1.33,-4.61,Right Fall while Sitting
15:56.3,501,495,742.5,554,423,1.42,705,2.07,20723.77,417,232,20724.03,233,429485536,4294919985,927,1,-0.1,0.07,-2.11,0.93,-0.37,-6.08,-81.52,-1.29,-1.52,0.01,-1.48,-4.72,Right Fall while Sitting
15:56.4,510,496,744,554,423,1.42,705,2.07,20723.77,417,234,20724.03,233,429485536,4294909205,1161,1.01,-0.1,0.06,-1.51,1.86,-0.6,-6.41,-81.65,-1.39,-1.53,0.03,-1.59,-4.74,Right Fall while Sitting
15:56.5,469,495,742.5,554,422,1.42,702.16,2.06,20723.77,417,232,20724.03,233,429485536,4294897493,1393,1.02,-0.12,0.07,-2.5,0.69,-0.21,-7.15,-80.63,-1.58,-1.67,0.09,-1.81,-4.83,Right Fall while Sitting
15:56.6,560,499,748.5,560,423,1.42,705,2.07,20723.77,417,232,20724.03,233,429485536,4294885781,1625,1.01,-0.11,0.06,-3.31,-0.73,0.02,-6.91,-81.34,-1.87,-1.95,0.17,-2.07,-5.12,Right Fall while Sitting
15:56.7,605,505,757.5,605,423,1.42,705,2.07,20723.77,417,232,20724.03,233,429485536,4294874069,1857,1,-0.1,0.06,-1.6,0.78,-1.85,-6.09,-82.04,-1.97,-2.07,0.06,-2.14,-5.27,Right Fall while Sitting
15:56.8,493,504,756,605,424,1.41,707.85,2.07,20723.77,417,236,20724.03,233,429485536,4294864229,2093,1.01,-0.1,0.07,-1.24,-0.95,-0.27,-6.49,-81.39,-2.04,-2.37,0.12,-2.22,-5.54,Right Fall while Sitting
15:56.9,591,509,763.5,605,424,1.41,707.85,2.07,20723.87,422,232,20724.03,232,429485248,0,0,1.01,-0.12,0.06,-1.08,-0.96,-1.15,-7.3,-80.84,-2.09,-2.67,0.08,-2.3,-5.79,Right Fall while Sitting
15:57.0,989,533,799.5,989,425,1.41,710.7,2.08,20723.87,422,230,20724.03,232,429485248,4294954660,230,1,-0.1,0.04,-1.15,0.66,-1.21,-6.4,-82.23,-2.15,-2.8,0.04,-2.32,-5.98,Right Fall while Sitting
15:57.1,618,537,805.5,989,425,1.41,710.7,2.08,20723.87,422,234,20724.03,232,429485248,4294943880,464,1.01,-0.1,0.05,-0.71,2.98,-0.37,-6.34,-82.11,-2.17,-2.7,0.08,-2.34,-5.88,Right Fall while Sitting
15:57.2,711,545,817.5,989,425,1.41,710.7,2.08,20723.87,422,238,20724.03,232,429485248,4294934988,702,1.01,-0.12,0.06,-1.49,1.39,0.11,-7.2,-80.92,-2.26,-2.77,0.17,-2.46,-5.89,Right Fall while Sitting
15:57.3,613,548,822,989,425,1.41,710.7,2.08,20723.87,422,235,20724.03,232,429485248,4294924677,937,1.01,-0.12,0.07,-1.99,0.69,-0.34,-7.51,-80.49,-2.41,-2.9,0.22,-2.61,-6,Right Fall while Sitting
15:57.4,661,552,828,989,426,1.4,713.57,2.08,20723.87,422,234,20724.03,232,429485248,4294913897,1171,1,-0.12,0.04,-1.25,0.25,0.39,-7.25,-81.4,-2.48,-3.08,0.34,-2.67,-6.21,Right Fall while Sitting
15:57.5,582,553,829.5,989,424,1.41,707.85,2.07,20723.87,422,232,20724.03,232,429485248,4294902185,1403,1.02,-0.12,0.02,-2.65,1.18,-1.92,-7.21,-81.68,-2.69,-3.16,0.22,-2.87,-6.3,Right Fall while Sitting
15:57.6,509,552,828,989,423,1.42,705,2.07,20723.87,422,233,20724.03,232,429485248,4294890938,1636,0.93,-0.09,0.03,-0.1,15.99,9.4,-5.99,-82.61,-2.64,-1.72,1.27,-2.78,-4.95,Right Fall while Sitting
15:57.7,503,550,825,989,422,1.42,702.16,2.06,20723.87,422,236,20724.03,232,429485248,4294881098,1872,1.02,-0.18,0.11,-5.35,4.06,21.63,-10.56,-76.84,-3.13,-1.51,3.54,-3.42,-4.52,Right Fall while Sitting
15:57.8,377,544,816,989,420,1.44,696.52,2.05,20723.87,422,236,20724.03,232,429485248,4294871258,2108,1.08,-0.21,0.12,-0.02,6.17,13.38,-11.29,-75.9,-3.07,-1.09,4.98,-3.4,-4.08,Right Fall while Sitting
15:57.9,373,538,807,989,418,1.45,690.91,2.04,20723.88,423,236,20724.05,234,429486144,0,0,0.97,-0.21,0.1,1.66,-0.2,15.56,-12.77,-75.01,-2.85,-1.31,6.62,-3.25,-4.25,Right Fall while Sitting
15:58.0,341,531,796.5,989,417,1.45,688.12,2.04,20723.88,423,235,20724.05,234,429486144,4294956985,235,0.98,-0.26,0.08,-13.05,-32.05,32.27,-15.41,-72.95,-4.12,-4.78,9.99,-4.57,-7.51,Right Fall while Sitting
15:58.1,371,526,789,989,416,1.46,685.34,2.03,20723.88,423,233,20724.05,234,429486144,4294945738,468,0.95,-0.33,0.08,3.02,-19.8,22.43,-19.72,-68.71,-3.76,-7.02,12.38,-4.39,-9.49,Right Fall while Sitting
15:58.3,411,522,783,989,415,1.47,682.57,2.03,20723.88,423,233,20724.05,234,429486144,4294934491,701,0.84,-0.35,0,3.92,-11.96,19.7,-23.38,-65.62,-3.3,-8.43,14.45,-4.11,-10.72,Right Fall while Sitting
15:58.4,473,521,781.5,989,414,1.47,679.8,2.02,20723.88,423,235,20724.05,234,429486144,4294924180,936,0.96,-0.39,-0.08,12.89,6.27,32.04,-22.6,-65.93,-1.92,-7.99,17.83,-2.74,-10.31,Right Fall while Sitting
15:58.5,474,520,780,989,414,1.47,679.8,2.02,20723.88,423,235,20724.05,234,429486144,4294913869,1171,1.03,-0.49,0,-3.63,12.88,19.48,-25.91,-63.09,-2.23,-6.87,19.92,-3.18,-9.12,Right Fall while Sitting
15:58.6,542,520,780,989,415,1.47,682.57,2.03,20723.88,423,237,20724.05,234,429486144,4294904502,1408,0.94,-0.48,0.01,4.08,34,-2.44,-27.4,-61.59,-1.76,-3.61,19.75,-2.79,-5.93,Right Fall while Sitting
15:58.7,837,529,793.5,989,415,1.47,682.57,2.03,20723.88,423,237,20724.05,234,429486144,4294895135,1645,0.9,-0.5,0.11,-10.92,22.12,0.24,-29.38,-58.87,-2.81,-1.58,19.86,-3.87,-3.87,Right Fall while Sitting
15:58.8,510,528,792,989,415,1.47,682.57,2.03,20723.88,423,238,20724.05,234,429486144,4294886243,1883,0.91,-0.47,0.19,-11.45,6.79,-10.4,-27.66,-59.05,-3.93,-1.08,18.87,-4.88,-3.4,Right Fall while Sitting
15:58.9,538,529,793.5,989,414,1.47,679.8,2.02,20723.88,423,237,20724.05,234,429486144,4294876876,2120,0.88,-0.41,0.18,1.58,11.5,-11.31,-25.17,-61.4,-3.71,-0.11,17.8,-4.57,-2.57,Right Fall while Sitting
15:59.0,499,528,792,989,414,1.47,679.8,2.02,20723.71,414,236,20724.06,235,429486688,0,0,0.83,-0.4,0.15,-3.77,-5.71,5.22,-26.05,-61.15,-4.03,-0.89,18.4,-4.91,-3.3,Right Fall while Sitting
15:59.1,442,526,789,989,412,1.48,674.3,2.01,20723.71,414,234,20724.06,235,429486688,4294956516,234,0.91,-0.43,0.18,0.78,-4.6,8.35,-25.51,-61.36,-3.9,-1.57,19.33,-4.76,-3.96,Right Fall while Sitting
15:59.2,404,523,784.5,989,411,1.49,671.57,2.01,20723.71,414,236,20724.06,235,429486688,4294946676,470,0.9,-0.48,0.12,3.47,-4.02,5.56,-28.24,-59.76,-3.49,-2.17,19.98,-4.48,-4.48,Right Fall while Sitting
15:59.3,379,519,778.5,989,409,1.5,666.12,2,20723.71,414,236,20724.06,235,429486688,4294936836,706,0.91,-0.48,0.09,0.89,-2.66,4.05,-28.28,-60.15,-3.34,-2.65,20.47,-4.34,-4.95,Right Fall while Sitting
15:59.4,468,518,777,989,407,1.51,660.71,1.99,20723.71,414,234,20724.06,235,429486688,4294926056,940,0.88,-0.49,0.09,-2.29,0.92,0.47,-29.28,-59.19,-3.52,-2.76,20.6,-4.55,-5.02,Right Fall while Sitting
15:59.5,385,515,772.5,989,405,1.53,655.34,1.98,20723.71,414,234,20724.06,235,429486688,4294915276,1174,0.91,-0.48,0.1,-7.44,-2.67,1.04,-28.2,-60.1,-4.22,-3.24,20.79,-5.18,-5.52,Right Fall while Sitting
15:59.6,442,513,769.5,989,403,1.54,650,1.97,20723.71,414,234,20724.06,235,429486688,4294904496,1408,0.89,-0.48,0.12,-0.89,2.72,2.34,-28.56,-59.53,-4.26,-3.17,21.11,-5.23,-5.43,Right Fall while Sitting
15:59.7,511,513,769.5,989,402,1.54,647.34,1.96,20723.71,414,234,20724.06,235,429486688,4294893716,1642,0.85,-0.48,0.1,-7.61,-11.88,12.11,-29.56,-58.7,-4.97,-4.57,22.41,-5.95,-6.74,Right Fall while Sitting
15:59.8,684,517,775.5,989,403,1.54,650,1.97,20723.71,414,236,20724.06,235,429486688,4294883876,1878,0.85,-0.52,0.1,-7.95,-15.21,21.96,-32.08,-56.34,-5.73,-6.35,24.76,-6.79,-8.35,Right Fall while Sitting
15:59.9,511,517,775.5,989,402,1.54,647.34,1.96,20723.71,414,235,20724.06,235,429486688,4294873565,2113,0.91,-0.58,0.02,-6.08,-11.69,16.12,-32.98,-55.98,-6.29,-7.74,26.48,-7.36,-9.67,Right Fall while Sitting
16:00.0,595,518,777,989,403,1.54,650,1.97,27.66,405,233,20724.05,234,429486240,0,0,0.87,-0.58,-0.01,-3.08,-10.69,7.79,-34.5,-54.49,-6.55,-9.03,27.35,-7.67,-10.84,Right Fall while Sitting
16:00.1,557,519,778.5,989,403,1.54,650,1.97,27.66,405,234,20724.05,234,429486240,4294956516,234,0.83,-0.6,-0.01,-11.46,-11.89,7.26,-36.31,-52.69,-7.66,-10.44,28.17,-8.81,-12.13,Right Fall while Sitting
16:00.2,538,520,780,989,411,1.49,671.57,2.01,27.66,405,230,20724.05,234,429486240,4294943880,464,0.93,-0.56,-0.12,-0.58,11.78,-1.24,-31.67,-56.61,-7.66,-9.44,28.12,-8.62,-11.33,Right Fall while Sitting
16:00.3,476,519,778.5,989,409,1.5,666.12,2,27.66,405,210,20724.05,234,429486240,4294922444,674,0.86,-0.6,-0.01,-2.77,4.5,-2.15,-35.53,-53.46,-7.89,-9.19,27.98,-8.99,-10.96,Right Fall while Sitting
16:00.4,482,518,777,989,409,1.5,666.12,2,27.66,405,204,20724.05,234,429486240,4294898524,878,0.84,-0.59,0.03,3.37,7.98,-3.73,-35.69,-53.27,-7.49,-8.58,27.68,-8.62,-10.37,Right Fall while Sitting
16:00.5,505,518,777,989,409,1.5,666.12,2,27.66,405,204,20724.05,234,429486240,4294874604,1082,0.84,-0.6,0,-3.21,-2.44,-2.53,-35.9,-53.1,-7.75,-9.03,27.51,-8.88,-10.79,Right Fall while Sitting
16:00.6,504,517,775.5,989,410,1.5,668.84,2,27.66,405,204,20724.05,234,429486240,4294850684,1286,0.85,-0.58,0.01,1.58,4.56,-6.53,-35.02,-53.98,-7.53,-8.76,26.92,-8.63,-10.57,Right Fall while Sitting
16:00.7,473,517,775.5,989,412,1.48,674.3,2.01,27.66,405,205,20724.05,234,429486240,4294827173,1491,0.82,-0.58,0,-3.31,4.4,-1.39,-35.76,-53.24,-7.81,-8.52,26.86,-8.93,-10.31,Right Fall while Sitting
16:00.8,519,517,775.5,989,414,1.47,679.8,2.02,27.66,405,208,20724.05,234,429486240,4294804901,1699,0.84,-0.57,0.02,0.69,4.34,2.59,-34.71,-54.26,-7.68,-8.28,27.2,-8.76,-10.12,Right Fall while Sitting
16:00.9,481,516,774,989,415,1.47,682.57,2.03,27.66,405,206,20724.05,234,429486240,4294781801,1905,0.85,-0.6,0.02,-1.06,1.87,2.58,-35.58,-53.39,-7.73,-8.29,27.54,-8.85,-10.1,Right Fall while Sitting
16:01.0,503,516,774,989,416,1.46,685.34,2.03,20723.79,410,209,20723.8,211,429476000,0,0,0.85,-0.6,0.02,-4.2,-1.2,-0.52,-35.77,-53.2,-8.09,-8.61,27.57,-9.2,-10.39,Right Fall while Sitting
16:01.1,536,516,774,989,416,1.46,685.34,2.03,20723.79,410,210,20723.8,211,429476000,4294945860,210,0.8,-0.61,0.05,-1.9,-3.76,1.11,-37.81,-51.04,-8.23,-9.2,27.77,-9.42,-10.88,Right Fall while Sitting
16:01.2,469,515,772.5,989,417,1.45,688.12,2.04,20723.79,410,210,20723.8,211,429476000,4294924424,420,0.83,-0.59,0,-4.87,-10.44,6.51,-36.01,-52.99,-8.67,-10.47,28.51,-9.77,-12.17,Right Fall while Sitting
16:01.3,504,515,772.5,989,418,1.45,690.91,2.04,20723.79,410,208,20723.8,211,429476000,4294902152,628,0.84,-0.63,0.01,1.85,-0.17,-2.08,-37.37,-51.62,-8.42,-10.7,28.38,-9.58,-12.33,Right Fall while Sitting
16:01.4,508,515,772.5,989,419,1.44,693.71,2.05,20723.79,410,212,20723.8,211,429476000,4294881560,840,0.82,-0.6,-0.02,-1.6,-2.34,-3.05,-36.77,-52.2,-8.53,-11.14,28.15,-9.66,-12.78,Right Fall while Sitting
16:01.5,701,518,777,989,420,1.44,696.52,2.05,20723.79,410,211,20723.8,211,429476000,4294860545,1051,0.8,-0.61,0,-1.24,0.65,-0.53,-38.06,-50.94,-8.6,-11.28,28.17,-9.78,-12.86,Right Fall while Sitting
16:01.6,497,518,777,989,421,1.43,699.34,2.06,20723.79,410,212,20723.8,211,429476000,4294839953,1263,0.82,-0.61,0.01,-3.11,3.27,-1.86,-37.32,-51.68,-8.86,-11.15,28.06,-10,-12.77,Right Fall while Sitting
16:01.7,558,518,777,989,421,1.43,699.34,2.06,20723.79,410,211,20723.8,211,429476000,4294818938,1474,0.82,-0.6,0,-6.1,-0.7,1.06,-36.74,-52.26,-9.43,-11.42,28.25,-10.52,-13.06,Right Fall while Sitting
16:01.8,460,517,775.5,989,422,1.42,702.16,2.06,20723.79,410,209,20723.8,211,429476000,4294797083,1683,0.84,-0.62,0.01,0.2,1.67,-0.96,-36.96,-52.04,-9.35,-11.46,28.23,-10.45,-13.08,Right Fall while Sitting
16:01.9,509,517,775.5,989,423,1.42,705,2.07,20723.79,410,207,20723.8,211,429476000,4294774396,1890,0.83,-0.61,-0.01,-1.41,0.15,-1.16,-36.79,-52.2,-9.44,-11.65,28.2,-10.53,-13.27,Right Fall while Sitting
16:02.0,472,517,775.5,989,423,1.42,705,2.07,20723.82,420,197,20723.77,208,429474752,0,0,0.82,-0.6,-0.03,-2.43,-1.17,-1.63,-36.88,-52.08,-9.62,-11.96,28.11,-10.71,-13.57,Right Fall while Sitting
16:02.1,476,516,774,989,423,1.42,705,2.07,20723.82,420,193,20723.77,208,429474752,4294939009,193,0.83,-0.6,-0.02,-1.53,3.99,-1.26,-36.72,-52.27,-9.72,-11.76,28.06,-10.8,-13.38,Right Fall while Sitting
16:02.2,493,516,774,989,423,1.42,705,2.07,20723.82,420,191,20723.77,208,429474752,4294909954,384,0.83,-0.6,0,-3.09,2.88,-1.82,-36.37,-52.63,-9.98,-11.67,27.96,-11.04,-13.3,Right Fall while Sitting
16:02.3,447,515,772.5,989,423,1.42,705,2.07,20723.82,420,188,20723.77,208,429474752,4294879762,572,0.82,-0.6,0.02,-0.1,3.5,-0.66,-36.86,-52.12,-9.93,-11.51,27.97,-11.01,-13.14,Right Fall while Sitting
16:02.4,402,513,769.5,989,424,1.41,707.85,2.07,20723.82,420,191,20723.77,208,429474752,4294850707,763,0.83,-0.61,0,-1.88,1.81,0.16,-36.93,-52.07,-10.07,-11.53,28.07,-11.14,-13.15,Right Fall while Sitting
16:02.5,423,512,768,989,425,1.41,710.7,2.08,20723.82,420,191,20723.77,208,429474752,4294821652,954,0.86,-0.61,-0.03,-1.2,2.86,-3.42,-35.82,-53.13,-10.13,-11.44,27.8,-11.16,-13.11,Right Fall while Sitting
16:02.6,386,510,765,989,425,1.41,710.7,2.08,20723.82,420,193,20723.77,208,429474752,4294793365,1147,0.86,-0.6,0.02,4.22,10.22,-10.34,-35.72,-53.26,-9.64,-10.59,26.81,-10.68,-12.3,Right Fall while Sitting
16:02.7,399,509,763.5,989,425,1.41,710.7,2.08,20723.82,420,191,20723.77,208,429474752,4294764310,1338,0.85,-0.58,0.03,1.52,7.79,-10.79,-34.97,-53.99,-9.42,-10,25.79,-10.45,-11.76,Right Fall while Sitting
16:02.9,499,509,763.5,989,426,1.4,713.57,2.08,20723.82,420,189,20723.77,208,429474752,4294734495,1527,0.86,-0.57,0.07,3.79,11.37,-13.34,-34.03,-54.66,-8.98,-9.03,24.5,-9.98,-10.86,Right Fall while Sitting
16:03.0,449,508,762,989,425,1.41,710.7,2.08,20723.82,420,191,20723.77,208,429474752,4294705440,1718,0.84,-0.54,0.06,6.22,8.63,-13.67,-33.26,-55.51,-8.28,-8.35,23.17,-9.28,-10.24,Right Fall while Sitting
16:03.1,520,508,762,989,425,1.41,710.7,2.08,20723.91,424,188,20723.6,190,429467520,0,0,0.84,-0.52,0.07,-2.6,-0.68,-4.98,-32.23,-56.44,-8.48,-8.61,22.75,-9.43,-10.53,Right Fall while Sitting
16:03.2,557,509,763.5,989,426,1.4,713.57,2.08,20723.91,424,188,20723.6,190,429467520,4294937104,188,0.9,-0.52,0.09,4.62,5.49,-6.86,-30.64,-57.89,-7.95,-8.26,22.13,-8.85,-10.24,Right Fall while Sitting
16:03.3,562,509,763.5,989,426,1.4,713.57,2.08,20723.91,424,187,20723.6,190,429467520,4294906537,375,0.89,-0.52,0.07,2.03,10.22,-12.02,-30.81,-57.87,-7.68,-7.42,20.98,-8.61,-9.43,Right Fall while Sitting
16:03.4,659,511,766.5,989,426,1.4,713.57,2.08,20723.91,424,190,20723.6,190,429467520,4294877101,565,0.91,-0.5,0.09,-1.57,2.56,-13.49,-29.29,-59.16,-7.79,-7.36,19.68,-8.65,-9.43,Right Fall while Sitting
16:03.5,750,514,771,989,426,1.4,713.57,2.08,20723.91,424,189,20723.6,190,429467520,4294847286,754,0.91,-0.47,0.14,4.44,13.37,-20.08,-27.79,-59.89,-7.28,-6.2,17.71,-8.1,-8.35,Right Fall while Sitting
16:03.6,705,516,774,989,427,1.4,716.44,2.09,20723.91,424,189,20723.6,190,429467520,4294817471,943,0.89,-0.43,0.16,-2.8,7.82,-27.05,-26.03,-61.06,-7.5,-5.61,15.06,-8.24,-7.83,Right Fall while Sitting
