Datetime, ECGRaw , AvgECG , ampECG , MAX , GSRRaw , Resistance , GSR(kohm) , SCL , GSRRMS , GSRMAV , EMGRaw , EMGRMS , EMGMAV , EMGVAR , EMGSSI , IEMG , AccX , AccY, AccZ , GyroX , GyroY , GyroZ , Aroll , Apitch , Groll , Gpitch, Gyaw , Combroll , Combpitch,Features
40:22.5,835,630,945,1000,349,1.93,517.8,1.71,20724.12,351,203,20723.72,202,429472320,4294875327,825,1.02,-0.04,-0.03,-1.21,1.29,-2.41,-2.78,-85.74,-4.41,-4.24,-1.06,-4.34,-7.5,Standing
40:22.6,495,626,939,1000,349,1.93,517.8,1.71,20724.12,351,204,20723.72,202,429472320,4294851407,1029,1,-0.03,-0.03,-1.73,1.31,-0.15,-2.19,-86.23,-4.53,-4.31,-0.99,-4.43,-7.59,Standing
40:22.7,743,630,945,1000,349,1.93,517.8,1.71,20724.12,351,204,20723.72,202,429472320,4294827487,1233,1.01,-0.06,-0.04,-2.57,3.64,3.79,-3.8,-84.4,-4.73,-4.15,-0.53,-4.69,-7.36,Standing
40:22.8,700,632,948,1000,349,1.93,517.8,1.71,20724.12,351,204,20723.72,202,429472320,4294803567,1437,1.04,-0.07,-0.02,-2.06,3.98,-1.34,-4.15,-84.72,-4.88,-3.95,-0.58,-4.85,-7.18,Standing
40:23.0,508,628,942,1000,349,1.93,517.8,1.71,20724.12,351,200,20723.72,202,429472320,4294778031,1637,1.04,-0.04,0,-5.24,-2.37,-6.65,-2.95,-86.05,-5.36,-4.4,-1.19,-5.27,-7.66,Standing
40:23.1,390,622,933,1000,349,1.93,517.8,1.71,20724.12,351,201,20723.72,202,429472320,4294752896,1838,1,-0.03,-0.02,-2.5,-0.11,-7.05,-2.36,-86.22,-5.56,-4.61,-1.82,-5.44,-7.88,Standing
40:23.2,416,617,925.5,1000,349,1.93,517.8,1.71,20724.08,348,202,20723.73,204,429472800,0,0,0.98,-0.02,-0.01,-1.63,-1.52,0.89,-1.84,-87.02,-5.67,-4.96,-1.66,-5.52,-8.25,Standing
40:23.3,593,616,924,1000,349,1.93,517.8,1.71,20724.08,348,204,20723.73,204,429472800,4294943376,204,1.01,-0.04,-0.03,-0.74,-0.79,4.97,-2.74,-85.7,-5.69,-5.25,-1.06,-5.57,-8.47,Standing
40:23.4,819,621,931.5,1000,349,1.93,517.8,1.71,20724.08,348,198,20723.73,204,429472800,4294917044,402,1.04,-0.06,-0.03,-0.84,1.34,-0.71,-3.79,-84.73,-5.72,-5.32,-1.06,-5.64,-8.5,Standing
40:23.5,788,625,937.5,1000,349,1.93,517.8,1.71,20724.08,348,195,20723.73,204,429472800,4294889533,597,1.02,-0.05,-0.04,-2.81,1.02,-3.3,-3.27,-85.02,-5.95,-5.42,-1.31,-5.84,-8.6,Standing
40:23.6,516,622,933,1000,349,1.93,517.8,1.71,20724.08,348,194,20723.73,204,429472800,4294861633,791,1.01,-0.04,-0.03,-2.73,2.24,-2.23,-2.58,-85.89,-6.17,-5.4,-1.46,-6.02,-8.62,Standing
40:23.7,482,619,928.5,1000,350,1.92,520.06,1.71,20724.08,348,203,20723.73,204,429472800,4294837306,994,1.02,-0.04,-0.03,-2.44,1.27,-0.87,-2.77,-85.7,-6.36,-5.47,-1.47,-6.22,-8.68,Standing
40:23.8,525,617,925.5,1000,349,1.93,517.8,1.71,20724.08,348,201,20723.73,204,429472800,4294812171,1195,1.01,-0.04,-0.02,-1.51,-0.37,-0.7,-2.8,-85.99,-6.46,-5.72,-1.46,-6.31,-8.93,Standing
40:23.9,533,615,922.5,1000,349,1.93,517.8,1.71,20724.08,348,206,20723.73,204,429472800,4294789071,1401,1.02,-0.05,-0.02,-1.9,-0.34,0.29,-3.15,-85.63,-6.59,-5.96,-1.35,-6.46,-9.14,Standing
40:24.0,529,613,919.5,1000,349,1.93,517.8,1.71,20724.08,348,207,20723.73,204,429472800,4294766384,1608,1.03,-0.05,-0.03,-1.32,-0.05,-2.79,-3.15,-85.2,-6.67,-6.17,-1.55,-6.53,-9.33,Standing
40:24.1,595,613,919.5,1000,349,1.93,517.8,1.71,20724.08,348,209,20723.73,204,429472800,4294744529,1817,1.01,-0.04,-0.04,-0.67,0.31,-3.11,-2.71,-85.4,-6.68,-6.34,-1.79,-6.53,-9.5,Standing
40:24.2,595,613,919.5,1000,349,1.93,517.8,1.71,20724.08,349,209,20723.71,202,429472256,0,0,1.01,-0.03,-0.04,-1.9,1.06,1.12,-2.22,-85.44,-6.82,-6.43,-1.6,-6.63,-9.59,Standing
40:24.3,506,610,915,1000,349,1.93,517.8,1.71,20724.08,349,210,20723.71,202,429472256,4294945860,210,1.03,-0.06,-0.02,-2.52,5.57,2.52,-3.65,-85.11,-7.02,-6.07,-1.26,-6.89,-9.23,Standing
40:24.4,204,602,903,1000,348,1.94,515.56,1.7,20724.08,349,205,20723.71,202,429472256,4294922349,415,1.04,-0.05,-0.02,-2.44,1.53,-2.67,-3.3,-85.43,-7.21,-6.11,-1.45,-7.06,-9.29,Standing
40:24.5,200,595,892.5,1000,349,1.93,517.8,1.71,20724.08,349,209,20723.71,202,429472256,4294900494,624,1.01,-0.04,-0.02,-1.72,-0.81,-3.1,-2.83,-85.88,-7.33,-6.4,-1.69,-7.15,-9.58,Standing
40:24.6,327,590,885,1000,349,1.93,517.8,1.71,20724.08,349,209,20723.71,202,429472256,4294878639,833,1.01,-0.04,-0.03,-0.97,0.26,-0.1,-2.88,-85.57,-7.37,-6.58,-1.62,-7.19,-9.74,Standing
40:24.7,315,585,877.5,1000,348,1.94,515.56,1.7,20724.08,349,212,20723.71,202,429472256,4294858047,1045,1.03,-0.05,-0.03,-2,-0.15,0.23,-3.49,-84.92,-7.52,-6.8,-1.51,-7.36,-9.92,Standing
40:24.8,368,581,871.5,1000,348,1.94,515.56,1.7,20724.08,349,211,20723.71,202,429472256,4294837032,1256,1.03,-0.05,-0.04,-2.06,1.16,-3.82,-3.47,-84.71,-7.67,-6.88,-1.82,-7.5,-10,Standing
40:24.9,630,581,871.5,1000,349,1.93,517.8,1.71,20724.08,349,211,20723.71,202,429472256,4294816017,1467,1,-0.04,-0.03,-2.33,2.63,-3.06,-3.14,-85.44,-7.85,-6.82,-2.06,-7.66,-9.96,Standing
40:25.0,388,578,867,1000,349,1.93,517.8,1.71,20724.08,349,212,20723.71,202,429472256,4294795425,1679,1.02,-0.03,-0.02,-2.07,1,-0.75,-2.33,-86.33,-8.01,-6.92,-2.05,-7.78,-10.1,Standing
40:25.1,535,577,865.5,1000,349,1.93,517.8,1.71,20724.08,349,211,20723.71,202,429472256,4294774410,1890,1.02,-0.04,-0.02,-1.21,-0.77,0.05,-2.76,-85.97,-8.07,-7.2,-1.97,-7.86,-10.35,Standing
40:25.2,708,580,870,1000,350,1.92,520.06,1.71,20724.08,348,213,20723.79,210,429475424,0,0,1.03,-0.04,-0.03,-2.12,0.85,-1.11,-2.99,-85.42,-8.23,-7.32,-2,-8.02,-10.44,Standing
40:25.3,701,582,873,1000,348,1.94,515.56,1.7,20724.08,348,204,20723.79,210,429475424,4294943376,204,1.03,-0.05,-0.03,-2.17,1.15,-3.02,-3.1,-85.38,-8.4,-7.41,-2.23,-8.18,-10.53,Standing
40:25.4,740,584,876,1000,349,1.93,517.8,1.71,20724.08,348,202,20723.79,210,429475424,4294918644,406,1.01,-0.04,-0.04,-3.11,2.65,-3.41,-2.71,-85.49,-8.66,-7.34,-2.5,-8.42,-10.47,Standing
40:25.5,996,591,886.5,1000,350,1.92,520.06,1.71,20724.08,348,203,20723.79,210,429475424,4294894317,609,1,-0.02,-0.02,-2.8,4.04,-1.37,-1.75,-86.65,-8.89,-7.13,-2.56,-8.6,-10.31,Standing
40:25.6,691,592,888,1000,350,1.92,520.06,1.71,20724.08,348,203,20723.79,210,429475424,4294869990,812,1.01,-0.02,-0.01,-2.06,1.93,0.76,-1.96,-86.86,-9.04,-7.14,-2.4,-8.76,-10.33,Standing
40:25.7,526,591,886.5,1000,350,1.92,520.06,1.71,20724.08,348,204,20723.79,210,429475424,4294846070,1016,1.03,-0.04,-0.02,-1.52,-1.05,-0.37,-2.81,-85.97,-9.14,-7.45,-2.35,-8.88,-10.59,Standing
40:25.8,399,588,882,1000,350,1.92,520.06,1.71,20724.08,348,204,20723.79,210,429475424,4294822150,1220,1.03,-0.04,-0.03,-2.08,-0.98,-1.26,-3.09,-85.4,-9.29,-7.76,-2.4,-9.05,-10.86,Standing
40:25.9,986,594,891,1000,351,1.91,522.32,1.72,20724.08,348,207,20723.79,210,429475424,4294799463,1427,1.02,-0.04,-0.04,-2.59,1.81,-1.5,-3.05,-85.14,-9.5,-7.78,-2.48,-9.25,-10.87,Standing
40:26.0,946,600,900,1000,351,1.91,522.32,1.72,20724.08,348,208,20723.79,210,429475424,4294777191,1635,1.02,-0.03,-0.02,-2.48,3.34,-2.6,-2.38,-86.3,-9.7,-7.64,-2.66,-9.41,-10.78,Standing
40:26.1,995,605,907.5,1000,351,1.91,522.32,1.72,20724.08,348,213,20723.79,210,429475424,4294757024,1848,1.02,-0.04,-0.01,-2.19,-0.01,-2.37,-2.62,-86.25,-9.87,-7.84,-2.82,-9.58,-10.98,Standing
40:26.2,991,611,916.5,1000,351,1.91,522.32,1.72,20724.1,350,216,20723.75,206,429473824,0,0,1.01,-0.03,-0.02,-1.63,0.95,-0.85,-2.5,-86.11,-9.97,-7.95,-2.83,-9.68,-11.07,Standing
40:26.3,829,614,921,1000,350,1.92,520.06,1.71,20724.1,350,209,20723.75,206,429473824,4294945441,209,1.02,-0.03,-0.03,-2.02,0.25,-0.33,-2.25,-86.22,-10.13,-8.13,-2.78,-9.81,-11.25,Standing
40:26.4,778,616,924,1000,350,1.92,520.06,1.71,20724.1,350,208,20723.75,206,429473824,4294923169,417,1.03,-0.04,-0.02,-2.43,1.38,-1.56,-2.92,-85.76,-10.32,-8.19,-2.86,-10.02,-11.29,Standing
40:26.5,703,618,927,1000,351,1.91,522.32,1.72,20724.1,350,208,20723.75,206,429473824,4294900897,625,1.01,-0.03,-0.03,-1.69,1.43,-2.06,-2.38,-85.96,-10.43,-8.25,-2.99,-10.11,-11.36,Standing
40:26.6,646,618,927,1000,350,1.92,520.06,1.71,20724.1,350,205,20723.75,206,429473824,4294877386,830,1.01,-0.03,-0.02,-1.3,2.25,-1.14,-2.27,-86.27,-10.51,-8.22,-3.03,-10.18,-11.35,Standing
40:26.7,840,621,931.5,1000,351,1.91,522.32,1.72,20724.1,350,208,20723.75,206,429473824,4294855114,1038,1.01,-0.04,-0.02,-2.22,1.48,-0.9,-2.59,-86.18,-10.68,-8.28,-3.04,-10.35,-11.39,Standing
40:26.8,454,619,928.5,1000,351,1.91,522.32,1.72,20724.1,350,208,20723.75,206,429473824,4294832842,1246,1.03,-0.03,-0.02,-1.65,0.39,-1.08,-2.28,-86.48,-10.79,-8.44,-3.07,-10.45,-11.57,Standing
40:26.9,411,616,924,1000,351,1.91,522.32,1.72,20724.1,350,208,20723.75,206,429473824,4294810570,1454,1.01,-0.03,-0.03,-1.82,-0.1,-1.85,-2.44,-86.03,-10.92,-8.66,-3.18,-10.58,-11.75,Standing
40:27.0,477,614,921,1000,352,1.91,524.59,1.72,20724.1,350,209,20723.75,206,429473824,4294788715,1663,1.01,-0.02,-0.03,-1.83,0.98,-0.92,-1.96,-86.29,-11.05,-8.76,-3.19,-10.69,-11.87,Standing
40:27.1,491,613,919.5,1000,352,1.91,524.59,1.72,20724.1,350,208,20723.75,206,429473824,4294766443,1871,1.02,-0.03,-0.01,-1.73,2.69,-0.28,-2.26,-86.58,-11.17,-8.69,-3.14,-10.81,-11.81,Standing
40:27.2,458,611,916.5,1000,351,1.91,522.32,1.72,20724.11,350,208,20723.77,207,429474432,0,0,1.03,-0.03,-0.01,-2.05,1.61,-1.3,-2.38,-86.51,-11.32,-8.73,-3.19,-10.96,-11.84,Standing
40:27.3,374,608,912,1000,352,1.91,524.59,1.72,20724.11,350,208,20723.77,207,429474432,4294945024,208,1.02,-0.03,-0.02,-2.84,1.11,-0.18,-2.41,-86.38,-11.56,-8.82,-3.13,-11.19,-11.93,Standing
40:27.4,360,605,907.5,1000,352,1.91,524.59,1.72,20724.11,350,208,20723.77,207,429474432,4294922752,416,1.02,-0.04,-0.03,-1.92,-0.04,-1.55,-2.64,-85.8,-11.7,-9.03,-3.2,-11.33,-12.1,Standing
40:27.6,370,602,903,1000,352,1.91,524.59,1.72,20724.11,350,208,20723.77,207,429474432,4294900480,624,1.01,-0.03,-0.02,-2.21,0.44,-1.74,-2.5,-86.3,-11.87,-9.19,-3.3,-11.49,-12.28,Standing
40:39.8,542,542,813,542,352,1.91,524.59,1.72,0,0,206,0,0,0,4294921509,413,1.04,-0.04,0.01,-8.34,6.18,0.86,-2.78,-86.1,-2.37,-0.4,0.3,-2.39,-3.83,Left Fall while Standing
40:39.9,437,489,733.5,542,351,1.91,522.32,1.72,0,0,206,0,0,0,4294898409,619,1.03,-0.03,0.03,-2.95,2.21,-2.91,-2.32,-85.82,-2.61,-0.38,0.09,-2.6,-3.8,Left Fall while Standing
40:40.0,364,447,670.5,542,351,1.91,522.32,1.72,0,0,207,0,0,0,4294875722,826,1.01,-0.02,0.02,-4.95,-1.98,-0.14,-1.7,-86.92,-3.04,-0.77,0.15,-2.98,-4.22,Left Fall while Standing
40:40.1,306,412,618,542,352,1.91,524.59,1.72,0,0,208,0,0,0,4294853450,1034,1.04,-0.04,0.03,0.25,-0.27,-3.98,-2.52,-85.8,-2.96,-1,-0.16,-2.94,-4.39,Left Fall while Standing
40:40.2,343,398,597,542,352,1.91,524.59,1.72,0,0,209,0,0,0,4294831595,1243,1.01,-0.03,0.01,1.19,2.36,-8.15,-2.37,-86.48,-2.78,-0.96,-0.89,-2.77,-4.38,Left Fall while Standing
40:40.3,457,408,612,542,352,1.91,524.59,1.72,0,0,207,0,0,0,4294808908,1450,1.01,0,0.01,-1.47,0.53,-4.21,-0.39,-87.7,-2.87,-1.11,-1.23,-2.77,-4.57,Left Fall while Standing
40:40.4,462,415,622.5,542,352,1.91,524.59,1.72,0,0,208,0,0,0,4294786636,1658,1.02,0.01,0.01,-0.38,4.29,-4.11,-0.11,-87.81,-2.86,-0.88,-1.55,-2.75,-4.36,Left Fall while Standing
40:40.5,546,432,648,546,352,1.91,524.59,1.72,0,0,208,0,0,0,4294764364,1866,1.02,0.01,0.01,-2.95,4.41,-4.95,-0.17,-87.65,-3.09,-0.64,-1.97,-2.98,-4.12,Left Fall while Standing
40:40.6,611,452,678,611,352,1.91,524.59,1.72,20724.13,351,208,20723.76,207,429474208,0,0,1.01,0.01,0.05,-2.52,2.74,-8.18,0.15,-85.69,-3.29,-0.57,-2.7,-3.15,-3.98,Left Fall while Standing
40:40.7,678,474,711,678,353,1.9,526.87,1.73,20724.13,351,209,20723.76,207,429474208,4294945441,209,1,0.02,0.03,0.07,4.51,-8.47,0.64,-86.54,-3.22,-0.31,-3.48,-3.07,-3.76,Left Fall while Standing
40:40.8,594,485,727.5,678,353,1.9,526.87,1.73,20724.13,351,225,20723.76,207,429474208,4294930530,434,1,0.04,0.04,-0.27,3.27,-4.82,1.72,-85.29,-3.19,-0.19,-3.89,-3,-3.59,Left Fall while Standing
40:40.9,944,523,784.5,944,353,1.9,526.87,1.73,20724.13,351,212,20723.76,207,429474208,4294909938,646,1.02,0.05,0.06,-2.71,3.04,-2.15,2.49,-83.8,-3.41,-0.08,-4.03,-3.18,-3.43,Left Fall while Standing
40:41.0,945,556,834,945,353,1.9,526.87,1.73,20724.13,351,215,20723.76,207,429474208,4294890627,861,1.02,0.04,0.06,-1.02,3.82,-6.04,1.52,-84.47,-3.46,0.11,-4.56,-3.26,-3.28,Left Fall while Standing
40:41.1,796,573,859.5,945,353,1.9,526.87,1.73,20724.13,351,215,20723.76,207,429474208,4294871316,1076,1.03,0.05,0.03,2.69,4.4,-12.5,2.22,-85.01,-3.13,0.35,-5.74,-2.92,-3.07,Left Fall while Standing
40:41.2,501,568,852,945,352,1.91,524.59,1.72,20724.13,351,212,20723.76,207,429474208,4294850724,1288,0.98,0.1,0.04,1.95,5.5,-14.4,5.11,-82.34,-2.88,0.7,-7.12,-2.56,-2.62,Left Fall while Standing
40:41.3,529,565,847.5,945,351,1.91,522.32,1.72,20724.13,351,213,20723.76,207,429474208,4294830557,1501,0.99,0.12,0.05,-1.76,6.18,-7.92,6.28,-81.05,-3,1.13,-7.85,-2.63,-2.16,Left Fall while Standing
40:41.4,417,557,835.5,945,351,1.91,522.32,1.72,20724.13,351,214,20723.76,207,429474208,4294810817,1715,1.01,0.12,0.09,-0.13,1.28,-11.59,5.98,-80.22,-2.96,1.06,-8.94,-2.6,-2.2,Left Fall while Standing
40:41.5,211,537,805.5,945,352,1.91,524.59,1.72,20724.13,351,212,20723.76,207,429474208,4294790225,1927,1.01,0.14,0.09,1.51,0.16,-15.45,7.23,-78.97,-2.75,0.87,-10.42,-2.35,-2.32,Left Fall while Standing
40:41.6,181,519,778.5,945,351,1.91,522.32,1.72,20724.13,352,210,20723.83,213,429476864,0,0,0.98,0.18,0.07,2.92,7.07,-16.85,9.82,-77.34,-2.4,1.38,-12.04,-1.91,-1.77,Left Fall while Standing
40:41.7,372,511,766.5,945,351,1.91,522.32,1.72,20724.13,352,212,20723.83,213,429476864,4294946704,212,0.96,0.19,0.08,0.05,6.24,-14.37,10.79,-76,-2.33,1.81,-13.41,-1.81,-1.3,Left Fall while Standing
40:41.8,637,517,775.5,945,352,1.91,524.59,1.72,20724.13,352,215,20723.83,213,429476864,4294927393,427,0.97,0.21,0.09,-0.46,7.12,-12.85,11.64,-75.04,-2.32,2.33,-14.64,-1.77,-0.76,Left Fall while Standing
40:41.9,869,533,799.5,945,351,1.91,522.32,1.72,20724.13,352,214,20723.83,213,429476864,4294907653,641,0.98,0.24,0.11,2.73,3.54,-15.92,13.05,-73.38,-1.99,2.49,-16.19,-1.39,-0.54,Left Fall while Standing
40:42.0,935,551,826.5,945,351,1.91,522.32,1.72,20724.13,352,214,20723.83,213,429476864,4294887913,855,0.94,0.28,0.1,5.92,-2.56,-16.97,15.76,-70.99,-1.33,2.03,-17.82,-0.65,-0.89,Left Fall while Standing
40:42.1,932,567,850.5,945,350,1.92,520.06,1.71,20724.13,352,215,20723.83,213,429476864,4294868602,1070,0.96,0.29,0.06,4.92,-6.58,-15.62,16.22,-71.31,-0.77,1.15,-19.33,-0.09,-1.74,Left Fall while Standing
40:42.2,954,582,873,954,350,1.92,520.06,1.71,20724.13,352,216,20723.83,213,429476864,4294849722,1286,0.94,0.32,0.09,3.12,-0.17,-15.21,17.96,-69.17,-0.4,0.93,-20.8,0.34,-1.87,Left Fall while Standing
40:42.3,1001,598,897,1001,350,1.92,520.06,1.71,20724.13,352,216,20723.83,213,429476864,4294830842,1502,0.95,0.34,0.06,3.49,0.03,-15.01,19.01,-68.47,0.02,0.73,-22.27,0.78,-2.04,Left Fall while Standing
40:42.4,1001,613,919.5,1001,349,1.93,517.8,1.71,20724.13,352,217,20723.83,213,429476864,4294812395,1719,0.94,0.37,0.06,-1.51,3.79,-15.4,20.7,-66.82,-0.08,0.91,-23.74,0.75,-1.8,Left Fall while Standing
40:42.5,1001,627,940.5,1001,349,1.93,517.8,1.71,20724.13,352,216,20723.83,213,429476864,4294793515,1935,0.91,0.39,0.11,-3.76,4.24,-16.8,22.45,-64.46,-0.4,1.14,-25.38,0.51,-1.48,Left Fall while Standing
40:42.6,998,640,960,1001,349,1.93,517.8,1.71,20724.1,350,216,20723.84,215,429477472,0,0,0.9,0.42,0.09,0.41,1.07,-17.51,24.54,-62.75,-0.31,1.05,-27.07,0.69,-1.51,Left Fall while Standing
40:42.7,748,643,964.5,1001,348,1.94,515.56,1.7,20724.1,350,214,20723.84,215,429477472,4294947556,214,0.88,0.45,0.08,0.02,2.7,-16.3,26.57,-60.83,-0.25,1.12,-28.63,0.82,-1.36,Left Fall while Standing
40:42.8,570,641,961.5,1001,348,1.94,515.56,1.7,20724.1,350,214,20723.84,215,429477472,4294927816,428,0.85,0.46,0.08,-0.48,0.28,-13.52,27.97,-59.46,-0.24,0.94,-29.92,0.89,-1.47,Left Fall while Standing
40:42.9,411,634,951,1001,347,1.95,513.31,1.7,20724.1,350,214,20723.84,215,429477472,4294908076,642,0.85,0.49,0.06,1.17,-1.95,-10.62,29.26,-58.34,-0.06,0.54,-30.93,1.11,-1.82,Left Fall while Standing
40:43.0,312,624,936,1001,347,1.95,513.31,1.7,20724.1,350,215,20723.84,215,429477472,4294888765,857,0.86,0.49,0.05,1.34,1.08,-8.96,29.25,-58.45,0.13,0.44,-31.75,1.29,-1.91,Left Fall while Standing
40:43.1,295,614,921,1001,347,1.95,513.31,1.7,20724.1,350,212,20723.84,215,429477472,4294868173,1069,0.88,0.51,0.07,-1.33,0.39,-10.95,29.52,-58.05,0.05,0.28,-32.79,1.23,-2.05,Left Fall while Standing
40:43.2,299,605,907.5,1001,347,1.95,513.31,1.7,20724.1,350,203,20723.84,215,429477472,4294843846,1272,0.84,0.53,0.08,1.9,-7.06,-11.6,31.45,-55.96,0.3,-0.64,-33.89,1.55,-2.86,Left Fall while Standing
40:43.3,306,597,895.5,1001,347,1.95,513.31,1.7,20724.1,350,200,20723.84,215,429477472,4294818310,1472,0.84,0.55,0.06,2.44,-3.55,-8.76,32.35,-55.27,0.61,-1.2,-34.7,1.88,-3.37,Left Fall while Standing
40:43.4,231,587,880.5,1001,348,1.94,515.56,1.7,20724.1,350,212,20723.84,215,429477472,4294797718,1684,0.83,0.55,0.04,-1.47,1.16,-6.96,32.59,-55.15,0.51,-1.29,-35.33,1.8,-3.45,Left Fall while Standing
40:43.5,230,578,867,1001,348,1.94,515.56,1.7,20724.1,350,203,20723.84,215,429477472,4294773391,1887,0.82,0.55,0.05,-2.84,0.27,-6.25,33.25,-54.41,0.28,-1.47,-35.89,1.6,-3.58,Left Fall while Standing
40:43.6,116,566,849,1001,347,1.95,513.31,1.7,20724.05,347,197,20723.77,208,429474656,0,0,0.82,0.56,0.05,-1.8,2.55,-4.43,33.6,-54.11,0.16,-1.41,-36.25,1.5,-3.52,Left Fall while Standing
40:43.7,148,555,832.5,1001,347,1.95,513.31,1.7,20724.05,347,196,20723.77,208,429474656,4294940176,196,0.81,0.57,0.05,-2.34,2.15,-4.37,34.37,-53.3,-0.02,-1.4,-36.61,1.35,-3.47,Left Fall while Standing
40:43.8,137,545,817.5,1001,347,1.95,513.31,1.7,20724.05,347,196,20723.77,208,429474656,4294913056,392,0.8,0.58,0.05,-2.26,-1.18,-3.82,35.41,-52.26,-0.19,-1.72,-36.92,1.23,-3.74,Left Fall while Standing
40:43.9,214,537,805.5,1001,347,1.95,513.31,1.7,20724.05,347,197,20723.77,208,429474656,4294886329,589,0.81,0.58,0.05,-0.95,1.79,-1.66,35.08,-52.61,-0.23,-1.74,-37.01,1.18,-3.77,Left Fall while Standing
40:44.0,295,532,798,1001,347,1.95,513.31,1.7,20724.05,347,198,20723.77,208,429474656,4294859997,787,0.8,0.58,0.04,-5.76,-0.7,-0.88,35.12,-52.63,-0.76,-2.01,-37.02,0.68,-4.04,Left Fall while Standing
40:44.1,292,526,789,1001,347,1.95,513.31,1.7,20724.05,347,198,20723.77,208,429474656,4294833665,985,0.82,0.59,0.07,-0.73,-2.08,-0.18,34.89,-52.67,-0.78,-2.43,-36.96,0.65,-4.44,Left Fall while Standing
40:44.2,272,520,780,1001,346,1.96,511.08,1.69,20724.05,347,198,20723.77,208,429474656,4294807333,1183,0.82,0.56,0.02,-0.12,3.37,-2.64,33.78,-54.02,-0.73,-2.29,-37.15,0.65,-4.36,Left Fall while Standing
40:44.3,55,510,765,1001,347,1.95,513.31,1.7,20724.05,347,199,20723.77,208,429474656,4294781398,1382,0.81,0.58,0.05,-3.33,-2.27,-3.06,34.77,-52.95,-1.01,-2.72,-37.38,0.42,-4.73,Left Fall while Standing
40:44.4,0,499,748.5,1001,347,1.95,513.31,1.7,20724.05,347,197,20723.77,208,429474656,4294754671,1579,0.8,0.59,0.07,0.65,0.46,-0.19,35.8,-51.74,-0.89,-2.88,-37.31,0.58,-4.83,Left Fall while Standing
40:44.5,0,489,733.5,1001,346,1.96,511.08,1.69,20724.05,347,199,20723.77,208,429474656,4294728736,1778,0.81,0.56,0.01,-0.3,0.58,1.71,34.28,-53.55,-0.86,-3.02,-37.06,0.55,-5.04,Left Fall while Standing
40:44.6,0,479,718.5,1001,346,1.96,511.08,1.69,20724.04,346,203,20723.67,198,429470432,0,0,0.8,0.58,0.04,-2.6,0.69,1,35.16,-52.59,-1.06,-3.15,-36.88,0.39,-5.13,Left Fall while Standing
40:44.7,0,469,703.5,1001,346,1.96,511.08,1.69,20724.04,346,205,20723.67,198,429470432,4294943785,205,0.82,0.56,0.04,-1.69,0.07,4.98,33.6,-54.14,-1.18,-3.35,-36.3,0.22,-5.38,Left Fall while Standing
40:44.8,0,460,690,1001,346,1.96,511.08,1.69,20724.04,346,205,20723.67,198,429470432,4294920274,410,0.83,0.55,0.05,-3.67,0.43,5.22,33.23,-54.42,-1.49,-3.51,-35.69,-0.1,-5.54,Left Fall while Standing
40:44.9,0,451,676.5,1001,346,1.96,511.08,1.69,20724.04,346,206,20723.67,198,429470432,4294897174,616,0.82,0.55,0.06,-1.81,-0.99,7.44,33.27,-54.34,-1.62,-3.81,-34.86,-0.22,-5.83,Left Fall while Standing
40:45.0,0,443,664.5,1001,346,1.96,511.08,1.69,20724.04,346,206,20723.67,198,429470432,4294874074,822,0.83,0.54,0.04,-1.35,-2.98,14.76,32.34,-55.42,-1.7,-4.32,-33.27,-0.34,-6.36,Left Fall while Standing
40:45.1,0,435,652.5,1001,346,1.96,511.08,1.69,20724.04,346,207,20723.67,198,429470432,4294851387,1029,0.88,0.49,0.01,-2.09,-0.67,13.58,28.77,-59.06,-1.85,-4.59,-31.81,-0.63,-6.77,Left Fall while Standing
40:45.2,0,427,640.5,1001,346,1.96,511.08,1.69,20724.04,346,206,20723.67,198,429470432,4294828287,1235,0.89,0.48,0.06,-5.34,-3.09,6.15,28.06,-59.52,-2.34,-5.11,-31.1,-1.12,-7.28,Left Fall while Standing
40:45.3,0,419,628.5,1001,345,1.97,508.85,1.69,20724.04,346,205,20723.67,198,429470432,4294804776,1440,0.88,0.49,0.04,2.93,0.37,6.91,28.36,-59.39,-1.98,-5.27,-30.31,-0.77,-7.44,Left Fall while Standing
40:45.4,0,412,618,1001,346,1.96,511.08,1.69,20724.04,346,205,20723.67,198,429470432,4294781265,1645,0.88,0.47,-0.03,-1.45,2.08,9.27,27.44,-60.34,-2.07,-5.27,-29.3,-0.89,-7.47,Left Fall while Standing
40:45.6,0,405,607.5,1001,346,1.96,511.08,1.69,20724.04,346,206,20723.67,198,429470432,4294758165,1851,0.87,0.44,0.03,-11.49,1.04,12.82,26.56,-61.22,-3.19,-5.36,-27.91,-2,-7.6,Left Fall while Standing
40:45.7,0,398,597,1001,347,1.95,513.31,1.7,20724.03,346,205,20723.74,205,429473472,0,0,0.87,0.41,0.06,-1.97,-0.23,19.31,24.7,-62.84,-3.33,-5.59,-25.9,-2.21,-7.88,Left Fall while Standing
40:45.8,203,394,591,1001,346,1.96,511.08,1.69,20724.03,346,202,20723.74,205,429473472,4294942564,202,0.92,0.39,0.03,2.82,-0.16,20.56,22.45,-65.31,-2.98,-5.81,-23.72,-1.97,-8.19,Left Fall while Standing
40:45.9,503,396,594,1001,346,1.96,511.08,1.69,20724.03,346,185,20723.74,205,429473472,4294911253,387,0.97,0.34,-0.01,0.25,-2.07,19.15,18.48,-69.35,-2.9,-6.22,-21.69,-2.05,-8.75,Left Fall while Standing
40:46.0,806,403,604.5,1001,344,1.97,506.63,1.68,20724.03,346,173,20723.74,205,429473472,4294941182,560,0.94,0.3,0.04,-4,-1.72,19.25,17.06,-70.66,-3.25,-6.6,-19.64,-2.44,-9.16,Left Fall while Standing
40:46.1,815,409,613.5,1001,343,1.98,504.41,1.68,20724.03,346,172,20723.74,205,429473472,3470,732,0.94,0.27,0.02,-0.8,2.17,22.12,15.11,-72.69,-3.28,-6.58,-17.31,-2.54,-9.23,Left Fall while Standing
40:46.2,902,417,625.5,1001,343,1.98,504.41,1.68,20724.03,346,169,20723.74,205,429473472,32031,901,0.95,0.23,0.01,-6.76,-3.25,24.47,13.3,-74.52,-3.9,-7.12,-14.75,-3.22,-9.81,Left Fall while Standing
40:46.3,490,418,627,1001,343,1.98,504.41,1.68,20724.03,346,167,20723.74,205,429473472,59920,1068,1.01,0.2,0.04,-6.76,0.43,18.68,10.53,-77.07,-4.53,-7.27,-12.79,-3.93,-10.07,Left Fall while Standing
40:46.4,330,417,625.5,1001,343,1.98,504.41,1.68,20724.03,346,167,20723.74,205,429473472,87809,1235,1,0.16,0,-0.27,3.93,16.62,8.41,-79.43,-4.5,-7.08,-11.01,-3.98,-9.97,Left Fall while Standing
40:46.5,534,419,628.5,1001,343,1.98,504.41,1.68,20724.03,346,167,20723.74,205,429473472,115698,1402,1,0.14,0.03,-1.68,-0.92,15.73,7.53,-80.1,-4.61,-7.37,-9.34,-4.13,-10.28,Left Fall while Standing
40:46.6,548,420,630,1001,342,1.99,502.2,1.67,20724.03,346,167,20723.74,205,429473472,143587,1569,1,0.1,0,-2.89,-5.39,14.69,4.93,-82.91,-4.85,-8.12,-7.78,-4.46,-11.11,Left Fall while Standing
40:46.7,526,422,633,1001,343,1.98,504.41,1.68,20723.99,343,167,130.95,173,17146,0,0,1.02,0.08,0.03,-6.17,2.75,12.82,3.82,-83.67,-5.41,-8.04,-6.42,-5.04,-11.07,Left Fall while Standing
40:46.8,716,426,639,1001,343,1.98,504.41,1.68,20723.99,343,166,130.95,173,17146,27556,166,1.02,0.04,0.01,-5.91,-3.71,14.05,1.8,-85.98,-5.94,-8.61,-4.95,-5.63,-11.7,Left Fall while Standing
40:46.9,1001,434,651,1001,343,1.98,504.41,1.68,20723.99,343,166,130.95,173,17146,55112,332,1.01,0.02,-0.07,-14.36,-9.98,15.38,0.37,-84.24,-7.33,-9.82,-3.32,-7.02,-12.79,Left Fall while Standing
40:47.0,1001,442,663,1001,343,1.98,504.41,1.68,20723.99,343,166,130.95,173,17146,82668,498,1.04,-0.03,-0.02,-17.5,-6.21,18.08,-2.02,-86.5,-9.04,-10.65,-1.41,-8.76,-13.68,Left Fall while Standing
40:47.1,1001,450,675,1001,344,1.97,506.63,1.68,20723.99,343,166,130.95,173,17146,110224,664,1.04,-0.06,0,-5.33,-11.65,13.31,-3.88,-85.12,-9.53,-12.03,0.01,-9.3,-14.95,Left Fall while Standing
40:47.2,1001,457,685.5,1001,343,1.98,504.41,1.68,20723.99,343,166,130.95,173,17146,137780,830,0.99,-0.07,-0.02,-5.31,-31.56,15.81,-4.4,-84.45,-10,-15.42,1.69,-9.78,-18.18,Left Fall while Standing
40:47.3,1001,464,696,1001,343,1.98,504.41,1.68,20723.99,343,165,130.95,173,17146,165005,995,1.07,-0.11,-0.08,14.09,-18.55,10.84,-6.6,-80.92,-8.52,-17.49,2.86,-8.45,-20.03,Left Fall while Standing
40:47.4,1001,472,708,1001,344,1.97,506.63,1.68,20723.99,343,168,130.95,173,17146,193229,1163,0.99,-0.13,-0.23,12.85,13.14,-5.82,-7.74,-73.51,-7.17,-16.37,2.36,-7.19,-18.65,Left Fall while Standing
40:47.5,1001,478,717,1001,345,1.97,508.85,1.69,20723.99,343,172,130.95,173,17146,222813,1335,0.99,-0.1,-0.16,5.26,9.7,-3.01,-6.14,-77.8,-6.58,-15.58,2.13,-6.56,-18.07,Left Fall while Standing
40:47.6,1001,485,727.5,1001,345,1.97,508.85,1.69,20723.99,343,175,130.95,173,17146,253438,1510,1,-0.1,-0.12,-2.31,5.76,-1.95,-5.99,-79.52,-6.75,-15.2,2.01,-6.72,-17.78,Left Fall while Standing
40:47.7,997,492,738,1001,346,1.96,511.08,1.69,20724,343,176,168.64,168,28440,0,0,1,-0.1,-0.11,0.08,27.98,1.57,-6.27,-80.08,-6.69,-12.63,2.25,-6.67,-15.33,Left Fall while Standing
40:47.8,809,496,744,1001,345,1.97,508.85,1.69,20724,343,176,168.64,168,28440,30976,176,1.04,-0.12,-0.04,-5.95,28.57,-2.73,-6.87,-81.7,-7.23,-9.95,2.05,-7.22,-12.82,Left Fall while Standing
40:47.9,604,497,745.5,1001,346,1.96,511.08,1.69,20724,343,176,168.64,168,28440,61952,352,1.04,-0.11,-0.01,-14.51,4.53,-4.85,-6.87,-82.08,-8.64,-9.69,1.64,-8.57,-12.59,Left Fall while Standing
40:48.0,112,492,738,1001,344,1.97,506.63,1.68,20724,343,175,168.64,168,28440,92577,527,1.02,-0.1,-0.01,-3.76,8.49,-6.97,-6.34,-82.65,-8.96,-9.04,1.02,-8.86,-11.99,Left Fall while Standing
40:48.1,0,486,729,1001,346,1.96,511.08,1.69,20724,343,177,168.64,168,28440,123906,704,1.01,-0.12,0.03,-2.62,-7.11,-8.5,-7.43,-81.4,-9.17,-9.95,0.25,-9.1,-12.81,Left Fall while Standing
40:48.2,0,480,720,1001,345,1.97,508.85,1.69,20724,343,175,168.64,168,28440,154531,879,0.98,-0.05,-0.03,3.66,1.6,-7.01,-3.62,-84.85,-8.75,-9.99,-0.37,-8.54,-12.99,Left Fall while Standing
40:48.3,0,475,712.5,1001,345,1.97,508.85,1.69,20724,343,176,168.64,168,28440,185507,1055,0.99,-0.07,0,-0.08,-6.47,0.84,-4.45,-84.55,-8.7,-10.85,-0.2,-8.53,-13.8,Left Fall while Standing
40:48.4,0,469,703.5,1001,345,1.97,508.85,1.69,20724,343,176,168.64,168,28440,216483,1231,1.03,-0.09,-0.02,0.78,-0.34,0.06,-5.5,-83.34,-8.56,-11.08,-0.12,-8.44,-13.97,Left Fall while Standing
40:48.5,0,464,696,1001,346,1.96,511.08,1.69,20724,343,176,168.64,168,28440,247459,1407,1.04,-0.09,-0.02,-0.66,5.03,-2.09,-5.65,-83.22,-8.57,-10.78,-0.25,-8.46,-13.68,Left Fall while Standing
40:48.6,208,461,691.5,1001,345,1.97,508.85,1.69,20724,343,174,168.64,168,28440,277735,1581,1.01,-0.08,-0.01,0.21,7.15,-2.35,-5.15,-83.84,-8.5,-10.26,-0.41,-8.36,-13.2,Left Fall while Standing
40:48.7,352,460,690,1001,345,1.97,508.85,1.69,20724.02,345,175,175.6,175,30835,0,0,1,-0.09,0,0.7,8.04,0.17,-5.94,-83.06,-8.37,-9.66,-0.31,-8.27,-12.6,Left Fall while Standing
40:48.8,436,459,688.5,1001,345,1.97,508.85,1.69,20724.02,345,174,175.6,175,30835,30276,174,1.02,-0.05,-0.01,0.61,0.88,0.27,-3.59,-85.4,-8.25,-9.77,-0.21,-8.07,-12.8,Left Fall while Standing
40:48.9,417,459,688.5,1001,346,1.96,511.08,1.69,20724.02,345,174,175.6,175,30835,60552,348,1.03,-0.07,0.04,2.56,5.98,1.22,-4.6,-83.84,-7.94,-9.37,0,-7.8,-12.35,Left Fall while Standing
40:54.4,705,705,1057.5,705,349,1.93,517.8,1.71,0,0,162,0,0,0,52813,325,1.03,-0.09,0.04,-2.48,6.5,-6.82,-5.59,-83.01,-0.72,-0.44,0,-0.92,-3.74,Right Fall while Standing
40:54.5,830,767,1150.5,830,350,1.92,520.06,1.71,0,0,164,0,0,0,79709,489,0.99,-0.06,0.01,-2.82,11.31,-1.98,-3.85,-85.11,-0.94,0.47,-0.11,-1.06,-2.96,Right Fall while Standing
40:54.6,914,816,1224,914,350,1.92,520.06,1.71,0,0,163,0,0,0,106278,652,1,-0.07,0.03,-6.97,2.65,11,-4.58,-84.03,-1.57,0.53,1.04,-1.69,-2.85,Right Fall while Standing
40:54.7,997,861,1291.5,997,349,1.93,517.8,1.71,0,0,161,0,0,0,132199,813,1.03,-0.12,0.07,-7.01,8.15,9.79,-7.12,-80.86,-2.2,1.13,2.07,-2.39,-2.15,Right Fall while Standing
40:54.8,854,860,1290,997,348,1.94,515.56,1.7,0,0,162,0,0,0,158443,975,0.99,-0.11,0.04,-5.02,13.7,11.82,-6.74,-81.88,-2.63,2.27,3.31,-2.8,-1.09,Right Fall while Standing
40:54.9,914,869,1303.5,997,349,1.93,517.8,1.71,0,0,162,0,0,0,184687,1137,0.93,-0.12,0.05,-0.36,14.25,22.5,-7.62,-80.81,-2.61,3.47,5.59,-2.81,0.1,Right Fall while Standing
40:55.0,826,862,1293,997,348,1.94,515.56,1.7,0,0,161,0,0,0,210608,1298,0.96,-0.2,0.07,-2.31,5.84,36.02,-12.12,-76.05,-2.78,3.85,9.16,-3.16,0.65,Right Fall while Standing
40:55.1,783,852,1278,997,348,1.94,515.56,1.7,0,0,158,0,0,0,235572,1456,0.93,-0.24,0.19,-2.99,5.84,27.03,-14.69,-70.37,-3.02,4.23,11.91,-3.49,1.24,Right Fall while Standing
40:55.2,768,843,1264.5,997,347,1.95,513.31,1.7,20724.08,348,155,161.12,161,25958,0,0,0.95,-0.3,0.14,4.98,0.62,21.38,-17.85,-69.28,-2.48,4.09,14.08,-3.1,1.16,Right Fall while Standing
40:55.3,961,855,1282.5,997,347,1.95,513.31,1.7,20724.08,348,154,161.12,161,25958,23716,154,0.97,-0.33,0.12,8.21,1.82,16.49,-19.47,-68.32,-1.6,4.07,15.81,-2.32,1.18,Right Fall while Standing
40:55.4,738,844,1266,997,347,1.95,513.31,1.7,20724.08,348,155,161.12,161,25958,47741,309,0.95,-0.36,0.12,2.02,1.98,15,-21.33,-66.54,-1.35,4.07,17.39,-2.15,1.25,Right Fall while Standing
40:55.5,741,835,1252.5,997,348,1.94,515.56,1.7,20724.08,348,156,161.12,161,25958,72077,465,0.95,-0.38,0.1,0.72,-1.63,14.82,-22.02,-66.24,-1.22,3.71,18.95,-2.05,0.91,Right Fall while Standing
40:55.6,651,821,1231.5,997,347,1.95,513.31,1.7,20724.08,348,156,161.12,161,25958,96413,621,0.92,-0.4,0.12,-2.97,-1.14,17.95,-23.94,-64.02,-1.46,3.4,20.81,-2.36,0.7,Right Fall while Standing
40:55.7,400,791,1186.5,997,346,1.96,511.08,1.69,20724.08,348,154,161.12,161,25958,120129,775,0.9,-0.44,0.13,-2.18,-0.2,19.15,-26.43,-61.39,-1.62,3.18,22.82,-2.61,0.59,Right Fall while Standing
40:55.8,343,761,1141.5,997,346,1.96,511.08,1.69,20724.08,348,157,161.12,161,25958,144778,932,0.93,-0.45,0.12,-1.79,-3.58,10.98,-26.34,-61.72,-1.74,2.62,24,-2.73,0.05,Right Fall while Standing
40:55.9,250,729,1093.5,997,346,1.96,511.08,1.69,20724.08,348,154,161.12,161,25958,168494,1086,0.91,-0.46,0.1,2.69,0.72,3.54,-27.29,-61.06,-1.42,2.49,24.43,-2.45,-0.05,Right Fall while Standing
40:56.0,337,706,1059,997,346,1.96,511.08,1.69,20724.08,348,155,161.12,161,25958,192519,1241,0.88,-0.49,0.08,-1.42,1.24,6.88,-29.88,-58.71,-1.51,2.41,25.21,-2.64,-0.03,Right Fall while Standing
40:56.1,282,683,1024.5,997,347,1.95,513.31,1.7,20724.08,348,156,161.12,161,25958,216855,1397,0.9,-0.51,0.1,-5.79,-0.81,7.18,-29.92,-58.45,-2.03,2.13,26,-3.14,-0.29,Right Fall while Standing
40:56.2,149,654,981,997,347,1.95,513.31,1.7,20724.04,346,155,155.2,155,24087,0,0,0.89,-0.51,0.12,-3.6,1.91,2.89,-30.13,-57.99,-2.33,2.12,26.37,-3.44,-0.28,Right Fall while Standing
40:56.3,0,622,933,997,346,1.96,511.08,1.69,20724.04,346,155,155.2,155,24087,24025,155,0.87,-0.52,0.11,-2.07,4.57,-0.99,-31.3,-56.98,-2.48,2.38,26.35,-3.63,0.01,Right Fall while Standing
40:56.4,0,592,888,997,346,1.96,511.08,1.69,20724.04,346,154,155.2,155,24087,47741,309,0.86,-0.52,0.11,2.41,-1.93,2.18,-31.48,-56.74,-2.19,1.99,26.64,-3.36,-0.36,Right Fall while Standing
40:56.5,0,565,847.5,997,347,1.95,513.31,1.7,20724.04,346,156,155.2,155,24087,72077,465,0.87,-0.52,0.1,-4.15,0.68,1.41,-31.51,-56.84,-2.54,1.86,26.86,-3.7,-0.49,Right Fall while Standing
40:56.6,0,541,811.5,997,346,1.96,511.08,1.69,20724.04,346,157,155.2,155,24087,96726,622,0.87,-0.5,0.11,0.26,0.27,2.27,-30.59,-57.58,-2.46,1.69,27.17,-3.58,-0.68,Right Fall while Standing
40:56.7,0,518,777,997,346,1.96,511.08,1.69,20724.04,346,156,155.2,155,24087,121062,778,0.84,-0.52,0.11,-1.2,-1.37,4.63,-32.15,-56.13,-2.52,1.35,27.7,-3.71,-0.95,Right Fall while Standing
40:56.8,202,505,757.5,997,347,1.95,513.31,1.7,20724.04,346,154,155.2,155,24087,144778,932,0.86,-0.53,0.09,-4.21,-8.21,4.93,-32.22,-56.25,-2.89,0.33,28.28,-4.06,-1.93,Right Fall while Standing
40:56.9,130,491,736.5,997,346,1.96,511.08,1.69,20724.04,346,153,155.2,155,24087,168187,1085,0.87,-0.55,0.1,-5.25,-3.58,4.44,-32.66,-55.78,-3.36,-0.23,28.8,-4.53,-2.45,Right Fall while Standing
40:57.0,32,474,711,997,346,1.96,511.08,1.69,20724.04,346,155,155.2,155,24087,192212,1240,0.85,-0.56,0.08,-1.43,1.95,1.1,-33.92,-54.74,-3.45,-0.24,28.99,-4.67,-2.42,Right Fall while Standing
40:57.1,0,457,685.5,997,345,1.97,508.85,1.69,20724.04,346,155,155.2,155,24087,216237,1395,0.85,-0.57,0.09,-4.82,-0.34,2.86,-34.59,-53.94,-3.87,-0.47,29.36,-5.1,-2.61,Right Fall while Standing
40:57.2,0,441,661.5,997,346,1.96,511.08,1.69,20724.03,346,154,154.9,154,23994,0,0,0.83,-0.55,0.09,-3.5,-5.38,2.55,-33.95,-54.59,-4.17,-1.2,29.69,-5.36,-3.34,Right Fall while Standing
40:57.3,0,426,639,997,346,1.96,511.08,1.69,20724.03,346,154,154.9,154,23994,23716,154,0.84,-0.57,0.06,-0.79,-1.63,7.19,-34.47,-54.34,-4.19,-1.56,30.48,-5.4,-3.67,Right Fall while Standing
40:57.4,18,413,619.5,997,346,1.96,511.08,1.69,20724.03,346,154,154.9,154,23994,47432,308,0.84,-0.6,0.05,-2.56,-0.69,3.71,-35.92,-52.94,-4.39,-1.83,30.93,-5.65,-3.87,Right Fall while Standing
40:57.5,0,400,600,997,346,1.96,511.08,1.69,20724.03,346,153,154.9,154,23994,70841,461,0.84,-0.6,0.08,-1.88,-0.12,2.18,-36.27,-52.41,-4.52,-2.04,31.23,-5.79,-4.06,Right Fall while Standing
40:57.6,0,388,582,997,346,1.96,511.08,1.69,20724.03,346,152,154.9,154,23994,93945,613,0.84,-0.6,0.08,0.22,-1.33,0.49,-36.09,-52.54,-4.44,-2.37,31.35,-5.71,-4.38,Right Fall while Standing
40:57.7,0,377,565.5,997,345,1.97,508.85,1.69,20724.03,346,152,154.9,154,23994,117049,765,0.83,-0.61,0.05,0.08,0.47,-0.44,-36.53,-52.33,-4.38,-2.53,31.39,-5.67,-4.52,Right Fall while Standing
40:57.8,0,366,549,997,346,1.96,511.08,1.69,20724.03,346,151,154.9,154,23994,139850,916,0.82,-0.6,0.07,-1.55,0.5,-0.44,-36.49,-52.25,-4.48,-2.68,31.43,-5.76,-4.66,Right Fall while Standing
40:57.9,0,356,534,997,345,1.97,508.85,1.69,20724.03,346,152,154.9,154,23994,162954,1068,0.83,-0.6,0.06,-0.82,0.44,-1.58,-36.17,-52.63,-4.51,-2.83,31.35,-5.77,-4.82,Right Fall while Standing
40:58.0,0,346,519,997,346,1.96,511.08,1.69,20724.03,346,152,154.9,154,23994,186058,1220,0.82,-0.6,0.06,-1.17,-2.74,-0.59,-36.84,-51.94,-4.57,-3.3,31.37,-5.86,-5.25,Right Fall while Standing
40:58.1,0,337,505.5,997,345,1.97,508.85,1.69,20724.03,346,151,154.9,154,23994,208859,1371,0.82,-0.6,0.04,-2.89,-2.16,0.81,-36.65,-52.24,-4.8,-3.72,31.53,-6.08,-5.66,Right Fall while Standing
40:58.2,169,333,499.5,997,346,1.96,511.08,1.69,20724.02,345,151,152.2,152,23165,0,0,0.81,-0.6,0.06,-3.05,-0.89,3.51,-37.24,-51.51,-5.05,-4.01,31.95,-6.34,-5.91,Right Fall while Standing
40:58.3,311,332,498,997,346,1.96,511.08,1.69,20724.02,345,154,152.2,152,23165,23716,154,0.84,-0.61,0.03,-4.75,-0.07,0.82,-36.83,-52.13,-5.47,-4.21,32.11,-6.72,-6.13,Right Fall while Standing
40:58.4,379,333,499.5,997,346,1.96,511.08,1.69,20724.02,345,151,152.2,152,23165,46517,305,0.82,-0.6,0.06,-3.22,-0.21,0.28,-36.8,-51.96,-5.74,-4.44,32.22,-6.98,-6.34,Right Fall while Standing
40:58.5,478,337,505.5,997,345,1.97,508.85,1.69,20724.02,345,153,152.2,152,23165,69926,458,0.86,-0.63,0.04,-3.04,2.71,-7.84,-36.7,-52.2,-5.98,-4.37,31.53,-7.21,-6.28,Right Fall while Standing
40:58.6,404,338,507,997,345,1.97,508.85,1.69,20724.02,345,151,152.2,152,23165,92727,609,0.85,-0.62,0.04,-2.92,3.89,-20.66,-36.68,-52.23,-6.22,-4.18,29.54,-7.44,-6.1,Right Fall while Standing
40:58.7,315,338,507,997,346,1.96,511.08,1.69,20724.02,345,150,152.2,152,23165,115227,759,0.83,-0.58,0.07,-7.47,2.53,-24.19,-35.23,-53.48,-6.91,-4.12,27.18,-8.05,-6.1,Right Fall while Standing
40:58.8,203,335,502.5,997,346,1.96,511.08,1.69,20724.02,345,150,152.2,152,23165,137727,909,0.86,-0.54,0.07,-6.73,6.08,-24.2,-32.73,-56,-7.53,-3.72,24.83,-8.54,-5.81,Right Fall while Standing
40:58.9,328,335,502.5,997,346,1.96,511.08,1.69,20724.02,345,154,152.2,152,23165,161443,1063,0.91,-0.5,0.04,-4.48,5.59,-29.6,-29.43,-59.45,-7.93,-3.35,21.9,-8.79,-5.59,Right Fall while Standing
40:59.0,500,338,507,997,346,1.96,511.08,1.69,20724.02,345,153,152.2,152,23165,184852,1216,0.94,-0.43,0.07,-8.32,3.44,-45.31,-24.94,-63.76,-8.71,-3.21,17.44,-9.36,-5.63,Right Fall while Standing
40:59.1,639,344,516,997,347,1.95,513.31,1.7,20724.02,345,151,152.2,152,23165,207653,1367,0.94,-0.37,0,-4.79,-0.4,-48.85,-21.99,-67.01,-9.13,-3.45,12.64,-9.64,-5.99,Right Fall while Standing
40:59.2,992,358,537,997,347,1.95,513.31,1.7,20724.03,346,153,152.01,152,23105,0,0,0.97,-0.27,0,-10.75,0.56,-27.68,-16.09,-72.91,-10.16,-3.59,9.92,-10.4,-6.36,Right Fall while Standing
40:59.3,999,370,555,999,348,1.94,515.56,1.7,20724.03,346,151,152.01,152,23105,22801,151,0.97,-0.25,0.1,-12.18,0.47,-17.89,-15.09,-72.81,-11.32,-3.74,8.21,-11.47,-6.51,Right Fall while Standing
40:59.4,517,373,559.5,999,346,1.96,511.08,1.69,20724.03,346,153,152.01,152,23105,46210,304,1.01,-0.24,0.04,-5.15,6.01,-23.48,-13.85,-74.97,-11.78,-3.34,5.94,-11.86,-6.21,Right Fall while Standing
40:59.5,558,377,565.5,999,347,1.95,513.31,1.7,20724.03,346,150,152.01,152,23105,68710,454,1,-0.2,0.06,-10.97,0.38,-27.73,-12.1,-76.38,-12.83,-3.51,3.22,-12.8,-6.42,Right Fall while Standing
40:59.6,540,380,570,999,346,1.96,511.08,1.69,20724.03,346,150,152.01,152,23105,91210,604,1,-0.13,0.03,-11.79,1.85,-24.73,-7.72,-81.09,-13.97,-3.52,0.81,-13.72,-6.62,Right Fall while Standing
40:59.7,555,383,574.5,999,346,1.96,511.08,1.69,20724.03,346,150,152.01,152,23105,113710,754,0.96,-0.11,0.01,-0.57,-2.27,-16.97,-6.92,-82.02,-13.97,-3.95,-0.81,-13.69,-7.07,Right Fall while Standing
40:59.8,456,384,576,999,346,1.96,511.08,1.69,20724.03,346,152,152.01,152,23105,136814,906,0.99,-0.08,0.02,1.76,-2.45,-9.49,-5,-83.85,-13.73,-4.4,-1.69,-13.38,-7.58,Right Fall while Standing
40:59.9,477,386,579,999,346,1.96,511.08,1.69,20724.03,346,152,152.01,152,23105,159918,1058,1.01,-0.06,0.01,0.92,-11.11,-6.15,-4.25,-84.72,-13.58,-5.72,-2.23,-13.21,-8.88,Right Fall while Standing
41:00.0,632,390,585,999,347,1.95,513.31,1.7,20724.03,346,153,152.01,152,23105,183327,1211,1.01,-0.06,0,7.23,2.15,-9.15,-3.71,-85.28,-12.8,-5.71,-3.07,-12.44,-8.89,Right Fall while Standing
41:00.1,802,397,595.5,999,347,1.95,513.31,1.7,20724.03,346,156,152.01,152,23105,207663,1367,1.06,-0.04,-0.03,2.13,-5.54,-4.4,-2.66,-85.76,-12.53,-6.47,-3.43,-12.14,-9.64,Right Fall while Standing
41:00.2,770,404,606,999,347,1.95,513.31,1.7,20724.04,346,154,152.11,152,23136,0,0,1.05,-0.04,0,0.6,-3.02,-0.14,-2.71,-86.28,-12.42,-6.97,-3.37,-12.03,-10.14,Right Fall while Standing
41:00.3,796,410,615,999,347,1.95,513.31,1.7,20724.04,346,151,152.11,152,23136,22801,151,1.01,-0.05,0.01,4.5,6.49,-0.44,-3.67,-85.3,-11.91,-6.52,-3.33,-11.58,-9.67,Right Fall while Standing
41:00.4,854,418,627,999,348,1.94,515.56,1.7,20724.04,346,151,152.11,152,23136,45602,302,1,-0.07,-0.01,-2.29,0.94,-0.76,-4.32,-84.61,-12.08,-6.62,-3.33,-11.77,-9.74,Right Fall while Standing
41:00.5,828,424,636,999,347,1.95,513.31,1.7,20724.04,346,153,152.11,152,23136,69011,455,1.02,-0.03,-0.04,-7.98,4.41,2.6,-2.31,-85.59,-12.82,-6.38,-2.99,-12.4,-9.55,Right Fall while Standing
41:00.6,748,429,643.5,999,348,1.94,515.56,1.7,20724.04,346,150,152.11,152,23136,91511,605,1.03,-0.07,0.01,-3.63,8.75,0.33,-4.52,-84.41,-13.13,-5.7,-2.88,-12.79,-8.85,Right Fall while Standing
41:00.7,584,432,648,999,347,1.95,513.31,1.7,20724.04,346,152,152.11,152,23136,114615,757,1.05,-0.05,0,-4.59,6.35,-4.02,-3.28,-85.71,-13.53,-5.27,-3.2,-13.12,-8.48,Right Fall while Standing
41:00.8,705,436,654,999,348,1.94,515.56,1.7,20724.04,346,150,152.11,152,23136,137115,907,1.03,-0.06,0.03,-4.9,0.37,-6.4,-3.67,-85,-13.97,-5.43,-3.76,-13.56,-8.61,Right Fall while Standing
41:00.9,614,439,658.5,999,347,1.95,513.31,1.7,20724.04,346,151,152.11,152,23136,159916,1058,1,-0.02,0.02,-0.85,1.83,-5.5,-1.77,-86.81,-14,-5.45,-4.24,-13.51,-8.7,Right Fall while Standing
41:01.0,422,438,657,999,347,1.95,513.31,1.7,20724.04,346,150,152.11,152,23136,182416,1208,0.99,-0.04,0.05,1.93,-7.63,0.44,-2.61,-84.84,-13.75,-6.41,-4.11,-13.3,-9.55,Right Fall while Standing
41:01.1,193,435,652.5,999,347,1.95,513.31,1.7,20724.04,346,153,152.11,152,23136,205825,1361,1.02,-0.04,-0.01,1.18,-6.61,3.51,-2.68,-86.27,-13.57,-7.28,-3.68,-13.14,-10.44,Right Fall while Standing
41:01.2,20,429,643.5,999,347,1.95,513.31,1.7,20724.05,347,152,151.3,151,22891,0,0,1.01,-0.05,-0.04,3.47,-6.29,2.16,-3.5,-84.57,-13.17,-8.11,-3.38,-12.78,-11.17,Right Fall while Standing
41:01.3,0,423,634.5,999,346,1.96,511.08,1.69,20724.05,347,151,151.3,151,22891,22801,151,1.02,-0.07,-0.03,1.65,1.83,2.82,-4.29,-84.33,-12.95,-8.12,-3.03,-12.6,-11.17,Right Fall while Standing
41:07.4,989,927,1390.5,1001,347,1.95,513.31,1.7,20724.08,348,154,154.3,154,23809,119816,774,1.03,-0.09,-0.13,-0.82,-10.28,9.38,-5.44,-79.69,-5.18,-9.06,1.61,-5.19,-11.89,Forward Fall while Standing
41:07.5,997,932,1398,1001,347,1.95,513.31,1.7,20724.08,348,154,154.3,154,23809,143532,928,1.05,-0.1,-0.11,-3.82,-12.79,0.6,-6.21,-80.11,-5.51,-10.54,1.74,-5.54,-13.32,Forward Fall while Standing
41:07.6,661,915,1372.5,1001,348,1.94,515.56,1.7,20724.08,348,154,154.3,154,23809,167248,1082,1.02,-0.1,-0.15,-5.92,-8.75,-4.78,-5.88,-78.35,-6.05,-11.64,1.34,-6.05,-14.31,Forward Fall while Standing
41:07.7,481,889,1333.5,1001,347,1.95,513.31,1.7,20724.08,348,154,154.3,154,23809,190964,1236,0.99,-0.08,-0.15,-0.39,-6.76,-2.71,-4.98,-78.74,-6.04,-12.52,1.14,-5.99,-15.17,Forward Fall while Standing
41:07.8,420,863,1294.5,1001,347,1.95,513.31,1.7,20724.08,348,155,154.3,154,23809,214989,1391,0.97,-0.08,-0.19,0.08,-10.05,1.94,-5.41,-76.2,-5.97,-13.74,1.42,-5.95,-16.24,Forward Fall while Standing
41:07.9,440,841,1261.5,1001,347,1.95,513.31,1.7,20724.04,346,156,154.7,154,23931,0,0,1.01,-0.08,-0.25,-2.64,-12.41,1.18,-4.85,-73.93,-6.18,-15.18,1.62,-6.13,-17.53,Forward Fall while Standing
41:08.0,143,806,1209,1001,346,1.96,511.08,1.69,20724.04,346,155,154.7,154,23931,24025,155,1.01,-0.09,-0.26,0.34,-9.18,0.98,-5.24,-73.43,-6.09,-16.31,1.79,-6.06,-18.59,Forward Fall while Standing
41:08.1,75,771,1156.5,1001,347,1.95,513.31,1.7,20724.04,346,155,154.7,154,23931,48050,310,1,-0.1,-0.26,-1.96,-0.65,-0.26,-6.22,-72.78,-6.23,-16.57,1.85,-6.23,-18.82,Forward Fall while Standing
41:08.2,223,746,1119,1001,346,1.96,511.08,1.69,20724.04,346,156,154.7,154,23931,72386,466,1.01,-0.1,-0.25,-2.79,0.76,0.69,-6.06,-73.48,-6.46,-16.7,2,-6.44,-18.97,Forward Fall while Standing
41:08.3,495,735,1102.5,1001,346,1.96,511.08,1.69,20724.04,346,156,154.7,154,23931,96722,622,1.02,-0.1,-0.23,-1.92,3.71,-2.72,-6.18,-74.67,-6.59,-16.53,1.8,-6.58,-18.85,Forward Fall while Standing
41:08.4,719,735,1102.5,1001,346,1.96,511.08,1.69,20724.04,346,155,154.7,154,23931,120747,777,1,-0.09,-0.26,-4.25,8.21,-5.33,-5.41,-73.27,-6.96,-15.91,1.35,-6.9,-18.2,Forward Fall while Standing
41:08.5,201,713,1069.5,1001,345,1.97,508.85,1.69,20724.04,346,154,154.7,154,23931,144463,931,0.99,-0.08,-0.27,-7.63,-1.46,-4.01,-4.93,-72.61,-7.68,-16.26,1.02,-7.57,-18.51,Forward Fall while Standing
41:08.6,209,694,1041,1001,346,1.96,511.08,1.69,20724.04,346,153,154.7,154,23931,167872,1084,1,-0.09,-0.19,-3.53,-7.69,-1.42,-5.61,-76.38,-7.98,-17.24,0.96,-7.89,-19.6,Forward Fall while Standing
41:08.7,374,682,1023,1001,345,1.97,508.85,1.69,20724.04,346,153,154.7,154,23931,191281,1237,1.01,-0.09,-0.27,-1.48,-13.91,-4.01,-5.59,-72.66,-8.07,-18.83,0.64,-7.97,-20.98,Forward Fall while Standing
41:08.8,515,676,1014,1001,346,1.96,511.08,1.69,20724.04,346,153,154.7,154,23931,214690,1390,1.01,-0.08,-0.32,-5.92,-15.5,-5.98,-4.64,-70.34,-8.62,-20.61,0.11,-8.46,-22.6,Forward Fall while Standing
41:08.9,417,667,1000.5,1001,346,1.96,511.08,1.69,20724.03,345,154,154.4,154,23839,0,0,0.99,-0.05,-0.3,-2.15,-7.43,-4.83,-3.48,-71.29,-8.78,-21.56,-0.3,-8.57,-23.55,Forward Fall while Standing
41:09.0,259,653,979.5,1001,345,1.97,508.85,1.69,20724.03,345,153,154.4,154,23839,23409,153,0.98,-0.06,-0.32,0.29,-5.18,-2.38,-3.93,-70.05,-8.69,-22.28,-0.46,-8.5,-24.19,Forward Fall while Standing
41:09.1,384,645,967.5,1001,346,1.96,511.08,1.69,20724.03,345,153,154.4,154,23839,46818,306,0.97,-0.06,-0.33,0.62,-1.77,-0.47,-3.96,-69.43,-8.57,-22.66,-0.42,-8.39,-24.53,Forward Fall while Standing
41:09.2,550,642,963,1001,346,1.96,511.08,1.69,20724.03,345,153,154.4,154,23839,70227,459,0.99,-0.07,-0.33,-0.92,-1.53,0.05,-4.47,-69.68,-8.61,-23.02,-0.34,-8.44,-24.88,Forward Fall while Standing
41:09.3,747,645,967.5,1001,346,1.96,511.08,1.69,20724.03,345,152,154.4,154,23839,93331,611,1.01,-0.06,-0.37,-2.57,-7.42,-2.75,-3.63,-68.36,-8.81,-23.97,-0.54,-8.61,-25.74,Forward Fall while Standing
41:09.4,896,652,978,1001,346,1.96,511.08,1.69,20724.03,345,150,154.4,154,23839,115831,761,1.06,-0.07,-0.45,-4.42,-6.6,-7.41,-3.86,-65.1,-9.2,-24.84,-1.21,-8.99,-26.45,Forward Fall while Standing
41:09.5,925,660,990,1001,345,1.97,508.85,1.69,20724.03,345,146,154.4,154,23839,137147,907,0.94,-0.04,-0.35,-0.82,-5.12,-5.69,-2.61,-68.14,-9.23,-25.56,-1.7,-8.97,-27.26,Forward Fall while Standing
41:09.6,984,669,1003.5,1001,344,1.97,506.63,1.68,20724.03,345,147,154.4,154,23839,158756,1054,0.95,-0.04,-0.39,1.21,-1.84,0.81,-2.72,-65.82,-9.05,-25.95,-1.54,-8.8,-27.54,Forward Fall while Standing
41:09.7,996,678,1017,1001,345,1.97,508.85,1.69,20724.03,345,146,154.4,154,23839,180072,1200,1,-0.05,-0.43,-0.72,-2.31,1.81,-3.25,-65.18,-9.07,-26.38,-1.28,-8.83,-27.93,Forward Fall while Standing
41:09.8,999,686,1029,1001,344,1.97,506.63,1.68,20724.03,345,146,154.4,154,23839,201388,1346,0.99,-0.06,-0.39,-5.72,-1.6,-3.06,-3.74,-66.84,-9.59,-26.74,-1.51,-9.35,-28.34,Forward Fall while Standing
41:09.9,999,694,1041,1001,344,1.97,506.63,1.68,20724.01,345,147,149.33,149,22298,0,0,0.95,-0.05,-0.37,-4.3,-6.88,-3.92,-3.47,-67.07,-9.96,-27.64,-1.83,-9.7,-29.21,Forward Fall while Standing
41:10.0,999,702,1053,1001,344,1.97,506.63,1.68,20724.01,345,147,149.33,149,22298,21609,147,0.94,-0.03,-0.37,0.83,-5.02,0.44,-2.33,-66.62,-9.83,-28.34,-1.7,-9.53,-29.87,Forward Fall while Standing
41:10.1,840,705,1057.5,1001,343,1.98,504.41,1.68,20724.01,345,146,149.33,149,22298,42925,293,0.96,-0.06,-0.45,0.98,-8.45,4.15,-3.85,-63.1,-9.67,-29.39,-1.2,-9.44,-30.74,Forward Fall while Standing
41:10.2,596,703,1054.5,1001,344,1.97,506.63,1.68,20724.01,345,148,149.33,149,22298,64829,441,0.96,-0.08,-0.44,-1.73,-13.53,6.1,-4.76,-63.28,-9.79,-30.96,-0.51,-9.59,-32.26,Forward Fall while Standing
41:10.3,561,699,1048.5,1001,344,1.97,506.63,1.68,20724.01,345,147,149.33,149,22298,86438,588,1.05,-0.09,-0.51,-0.68,-16.31,2.82,-4.84,-61.96,-9.8,-32.79,-0.15,-9.6,-33.96,Forward Fall while Standing
41:10.4,761,701,1051.5,1001,344,1.97,506.63,1.68,20724.01,345,147,149.33,149,22298,108047,735,0.95,-0.07,-0.48,0.62,-15.5,-1.1,-4.59,-61.33,-9.68,-34.58,-0.18,-9.48,-35.65,Forward Fall while Standing
41:10.5,996,707,1060.5,1001,345,1.97,508.85,1.69,20724.01,345,147,149.33,149,22298,129656,882,0.92,-0.07,-0.5,1.65,-13.82,-1.87,-4.46,-59.55,-9.46,-36.18,-0.29,-9.26,-37.11,Forward Fall while Standing
41:10.6,864,711,1066.5,1001,344,1.97,506.63,1.68,20724.01,345,147,149.33,149,22298,151265,1029,0.89,-0.08,-0.54,1.27,-15.91,-0.14,-4.98,-57.03,-9.27,-37.99,-0.22,-9.1,-38.75,Forward Fall while Standing
41:10.7,980,716,1074,1001,344,1.97,506.63,1.68,20724.01,345,146,149.33,149,22298,172581,1175,0.89,-0.07,-0.5,0.32,-16.29,3.54,-4.76,-58.6,-9.18,-39.85,0.22,-9,-40.6,Forward Fall while Standing
41:10.8,916,721,1081.5,1001,345,1.97,508.85,1.69,20724.01,345,147,149.33,149,22298,194190,1322,0.87,-0.09,-0.61,2.77,-16.63,3.71,-5.48,-53.37,-8.85,-41.71,0.67,-8.71,-42.18,Forward Fall while Standing
41:10.9,884,724,1086,1001,344,1.97,506.63,1.68,20724,344,146,146.8,146,21549,0,0,0.84,-0.12,-0.67,1.13,-12.53,4.47,-7.03,-49.44,-8.68,-43.17,1.2,-8.61,-43.42,Forward Fall while Standing
41:11.0,826,726,1089,1001,345,1.97,508.85,1.69,20724,344,148,146.8,146,21549,21904,148,0.86,-0.13,-0.65,-1.65,-8.36,2.6,-7.21,-50.99,-8.79,-44.21,1.54,-8.73,-44.48,Forward Fall while Standing
41:11.1,640,724,1086,1001,344,1.97,506.63,1.68,20724,344,147,146.8,146,21549,43513,295,0.83,-0.13,-0.66,-1.15,-7.61,0.96,-7.74,-49.39,-8.85,-45.17,1.72,-8.8,-45.34,Forward Fall while Standing
41:11.2,420,718,1077,1001,343,1.98,504.41,1.68,20724,344,148,146.8,146,21549,65417,443,0.84,-0.14,-0.68,-2.78,-7.7,-0.68,-7.81,-48.78,-9.07,-46.15,1.73,-9.02,-46.26,Forward Fall while Standing
41:11.3,0,705,1057.5,1001,344,1.97,506.63,1.68,20724,344,151,146.8,146,21549,88218,594,0.82,-0.14,-0.68,-4.43,-9.73,-2.29,-7.89,-48.12,-9.46,-47.34,1.57,-9.4,-47.37,Forward Fall while Standing
41:11.4,208,696,1044,1001,344,1.97,506.63,1.68,20724,344,148,146.8,146,21549,110122,742,0.81,-0.13,-0.7,-2.88,-8.48,-2.32,-7.27,-46.94,-9.69,-48.39,1.42,-9.6,-48.33,Forward Fall while Standing
41:11.5,117,685,1027.5,1001,345,1.97,508.85,1.69,20724,344,148,146.8,146,21549,132026,890,0.79,-0.13,-0.71,-0.07,-6.76,-1.49,-7.33,-46.28,-9.64,-49.28,1.35,-9.55,-49.16,Forward Fall while Standing
41:11.6,0,673,1009.5,1001,344,1.97,506.63,1.68,20724,344,150,146.8,146,21549,154526,1040,0.78,-0.13,-0.73,-2.71,-4.35,-3.15,-7.5,-44.75,-9.86,-49.92,1.11,-9.76,-49.71,Forward Fall while Standing
41:11.7,0,661,991.5,1001,344,1.97,506.63,1.68,20724,344,150,146.8,146,21549,177026,1190,0.77,-0.12,-0.73,-4.4,-7.79,-1.44,-7.2,-44.78,-10.25,-50.9,1.05,-10.12,-50.66,Forward Fall while Standing
41:11.8,0,650,975,1001,346,1.96,511.08,1.69,20724,344,151,146.8,146,21549,199827,1341,0.76,-0.12,-0.7,-1.05,-6.36,-1.06,-6.98,-45.23,-10.3,-51.75,1.02,-10.16,-51.49,Forward Fall while Standing
41:11.9,0,639,958.5,1001,345,1.97,508.85,1.69,20724,344,151,149.2,149,22261,0,0,0.76,-0.13,-0.75,2.98,-9.43,1.13,-7.32,-43.19,-9.95,-52.88,1.21,-9.84,-52.49,Forward Fall while Standing
41:12.0,0,628,942,1001,345,1.97,508.85,1.69,20724,344,149,149.2,149,22261,22201,149,0.77,-0.13,-0.78,0.02,-10.37,-0.19,-7.55,-42.73,-9.89,-54.12,1.27,-9.79,-53.66,Forward Fall while Standing
41:12.1,191,621,931.5,1001,344,1.97,506.63,1.68,20724,344,147,149.2,149,22261,43810,296,0.73,-0.14,-0.78,-1.77,-5.7,-1.89,-7.93,-41.33,-10.01,-54.89,1.16,-9.93,-54.35,Forward Fall while Standing
41:12.2,631,621,931.5,1001,346,1.96,511.08,1.69,20724,344,147,149.2,149,22261,65419,443,0.71,-0.13,-0.78,-2.63,-4.34,-0.85,-7.69,-40.68,-10.22,-55.53,1.15,-10.12,-54.94,Forward Fall while Standing
41:12.3,871,625,937.5,1001,345,1.97,508.85,1.69,20724,344,146,149.2,149,22261,86735,589,0.72,-0.13,-0.8,-1.41,-3.9,0.81,-7.26,-40.1,-10.3,-56.12,1.31,-10.18,-55.48,Forward Fall while Standing
41:12.4,994,631,946.5,1001,345,1.97,508.85,1.69,20724,344,146,149.2,149,22261,108051,735,0.72,-0.13,-0.8,-2.25,-5.25,1.21,-7.57,-40.02,-10.48,-56.86,1.52,-10.36,-56.19,Forward Fall while Standing
41:12.5,1001,636,954,1001,346,1.96,511.08,1.69,20724,344,146,149.2,149,22261,129367,881,0.73,-0.14,-0.8,-3.35,-3.87,-2.53,-7.9,-40.41,-10.76,-57.46,1.34,-10.64,-56.78,Forward Fall while Standing
41:12.6,999,642,963,1001,345,1.97,508.85,1.69,20724,344,145,149.2,149,22261,150392,1026,0.69,-0.13,-0.79,-1.84,-3.76,-3.49,-7.59,-39.44,-10.89,-58.04,1.07,-10.76,-57.3,Forward Fall while Standing
41:12.7,1000,647,970.5,1001,345,1.97,508.85,1.69,20724,344,146,149.2,149,22261,171708,1172,0.69,-0.13,-0.82,-1.91,-6.04,-2.18,-7.61,-38.05,-11.03,-58.86,0.92,-10.89,-58.02,Forward Fall while Standing
41:12.8,1000,652,978,1001,345,1.97,508.85,1.69,20724,344,146,149.2,149,22261,193024,1318,0.69,-0.12,-0.8,-2.27,-6.31,-0.97,-7.35,-39,-11.2,-59.7,0.91,-11.04,-58.87,Forward Fall while Standing
41:12.9,1001,657,985.5,1001,346,1.96,511.08,1.69,20724.02,345,146,146.4,146,21433,0,0,0.68,-0.13,-0.86,-1.83,-5.17,-2.24,-7.4,-36.22,-11.33,-60.42,0.76,-11.17,-59.45,Forward Fall while Standing
41:13.0,994,662,993,1001,346,1.96,511.08,1.69,20724.02,345,145,146.4,146,21433,21025,145,0.67,-0.12,-0.85,-0.12,2.95,-1.43,-6.8,-36.36,-11.28,-60.32,0.7,-11.1,-59.37,Forward Fall while Standing
41:13.1,882,665,997.5,1001,346,1.96,511.08,1.69,20724.02,345,145,146.4,146,21433,42050,290,0.7,-0.15,-0.81,1.79,20.54,1.15,-8.48,-38.76,-11.05,-58.45,0.89,-10.94,-57.66,Forward Fall while Standing
41:13.2,425,662,993,1001,345,1.97,508.85,1.69,20724.02,345,146,146.4,146,21433,63366,436,0.73,-0.14,-0.77,10.11,48.6,-4.31,-8.2,-41.38,-9.97,-53.75,0.54,-9.9,-53.25,Forward Fall while Standing
41:13.3,421,659,988.5,1001,345,1.97,508.85,1.69,20724.02,345,143,146.4,146,21433,83815,579,0.78,-0.16,-0.76,4.87,57.33,-3.08,-9.01,-43.33,-9.42,-48.21,0.31,-9.41,-48.02,Forward Fall while Standing
41:13.4,255,653,979.5,1001,344,1.97,506.63,1.68,20724.02,345,143,146.4,146,21433,104264,722,0.86,-0.15,-0.64,-2.35,56.39,-4.12,-8.4,-51.34,-9.61,-42.67,-0.03,-9.56,-43.01,Forward Fall while Standing
41:13.5,416,650,975,1001,345,1.97,508.85,1.69,20724.02,345,142,146.4,146,21433,124428,864,0.9,-0.15,-0.53,-0.42,48.7,-8.18,-8.73,-56.71,-9.59,-38,-0.77,-9.56,-38.74,Forward Fall while Standing
41:13.6,584,649,973.5,1001,345,1.97,508.85,1.69,20724.02,345,142,146.4,146,21433,144592,1006,0.89,-0.13,-0.47,-1.5,37.79,-5.33,-7.94,-59.6,-9.69,-34.38,-1.23,-9.62,-35.39,Forward Fall while Standing
41:13.7,868,652,978,1001,345,1.97,508.85,1.69,20724.02,345,145,146.4,146,21433,165617,1151,0.94,-0.12,-0.42,-4.63,26.92,-1.77,-7.1,-63.54,-10.1,-31.84,-1.33,-9.98,-33.11,Forward Fall while Standing
41:13.8,743,653,979.5,1001,346,1.96,511.08,1.69,20724.02,345,145,146.4,146,21433,186642,1296,0.98,-0.13,-0.39,-1.9,25.47,-2.76,-7.5,-65.82,-10.24,-29.47,-1.53,-10.13,-30.92,Forward Fall while Standing
41:13.9,821,655,982.5,1001,345,1.97,508.85,1.69,20724.02,345,144,144,144,20736,0,0,0.99,-0.13,-0.35,-4.34,23.34,-5.54,-7.46,-67.99,-10.61,-27.35,-2,-10.49,-28.98,Forward Fall while Standing
41:14.0,606,655,982.5,1001,345,1.97,508.85,1.69,20724.02,345,143,144,144,20736,20449,143,0.99,-0.1,-0.31,-5.73,31.74,-7.57,-6.37,-70.13,-11.14,-24.32,-2.69,-10.95,-26.15,Forward Fall while Standing
41:14.1,663,655,982.5,1001,345,1.97,508.85,1.69,20724.02,345,142,144,144,20736,40613,285,0.96,-0.11,-0.25,-6.11,41.73,-2.79,-6.67,-72.78,-11.7,-20.31,-2.89,-11.5,-22.41,Forward Fall while Standing
41:14.3,473,652,978,1001,345,1.97,508.85,1.69,20724.02,345,141,144,144,20736,60494,426,1.01,-0.13,-0.13,-3.96,33.23,-1.37,-7.75,-78.01,-12.04,-17.15,-2.95,-11.87,-19.59,Forward Fall while Standing
41:14.3,362,649,973.5,1001,345,1.97,508.85,1.69,20724.02,345,141,144,144,20736,80375,567,1.01,-0.09,-0.05,-13.43,-1.07,6.79,-5.54,-82.68,-13.36,-17.47,-2.18,-13.04,-20.08,Forward Fall while Standing
41:14.5,251,644,966,1001,344,1.97,506.63,1.68,20724.02,345,141,144,144,20736,100256,708,1,-0.11,-0.12,9.44,8.75,-3.87,-6.97,-79.01,-12.35,-16.79,-2.49,-12.13,-19.27,Forward Fall while Standing
41:14.6,241,639,958.5,1001,344,1.97,506.63,1.68,20724.02,345,141,144,144,20736,120137,849,0.95,-0.12,-0.17,10.02,11.94,3.4,-7.76,-75.85,-11.28,-15.78,-2.07,-11.14,-18.18,Forward Fall while Standing
41:14.7,159,634,951,1001,345,1.97,508.85,1.69,20724.02,345,141,144,144,20736,140018,990,1,-0.13,-0.06,9.06,31.92,4.18,-8.21,-79.97,-10.31,-12.76,-1.56,-10.22,-15.45,Forward Fall while Standing
41:14.8,200,629,943.5,1001,344,1.97,506.63,1.68,20724.02,345,141,144,144,20736,159899,1131,1,-0.1,-0.1,10.18,34.05,7.78,-6.42,-80.4,-9.22,-9.52,-0.7,-9.11,-12.36,Forward Fall while Standing
41:14.9,239,624,936,1001,344,1.97,506.63,1.68,20724.02,345,140,144,144,20736,179499,1271,1.07,-0.19,0.02,1.92,-17.88,8.26,-10.42,-78.49,-8.97,-11.53,0.22,-9.03,-14.21,Forward Fall while Standing
41:15.0,298,621,931.5,1001,345,1.97,508.85,1.69,20724.01,344,141,141.2,141,19937,0,0,1.16,-0.16,-0.11,13.22,-2.01,-12.61,-8.44,-78.85,-7.61,-11.93,-0.95,-7.64,-14.6,Forward Fall while Standing
41:15.1,410,618,927,1001,345,1.97,508.85,1.69,20724.01,344,141,141.2,141,19937,19881,141,1.07,-0.19,-0.06,-7.44,4.3,-12.91,-10.92,-77.6,-8.3,-11.7,-2.18,-8.41,-14.33,Forward Fall while Standing
41:15.2,474,617,925.5,1001,344,1.97,506.63,1.68,20724.01,344,140,141.2,141,19937,39481,281,0.95,-0.09,-0.09,-4.11,11.55,-20.8,-5.97,-80.7,-8.66,-10.73,-4.2,-8.55,-13.53,Forward Fall while Standing
41:15.3,454,615,922.5,1001,343,1.98,504.41,1.68,20724.01,344,141,141.2,141,19937,59362,422,0.95,-0.06,0.04,-11.27,-0.47,-2.05,-3.94,-84.28,-9.74,-10.98,-4.33,-9.51,-13.91,Forward Fall while Standing
41:15.4,577,615,922.5,1001,343,1.98,504.41,1.68,20724.01,344,140,141.2,141,19937,78962,562,0.99,-0.07,0,-1.57,9.45,1.79,-4.35,-84.65,-9.84,-10.23,-4.07,-9.62,-13.2,Forward Fall while Standing
41:15.5,853,617,925.5,1001,343,1.98,504.41,1.68,20724.01,344,140,141.2,141,19937,98562,702,1.03,-0.1,0.02,-3.79,-5.49,3.63,-5.91,-82.96,-10.17,-10.98,-3.62,-10,-13.86,Forward Fall while Standing
41:15.6,621,617,925.5,1001,343,1.98,504.41,1.68,20724.01,344,140,141.2,141,19937,118162,842,1.02,-0.1,-0.03,-0.32,-1.59,-1.24,-6.07,-82.74,-10.15,-11.34,-3.66,-9.98,-14.2,Forward Fall while Standing
41:15.7,268,614,921,1001,344,1.97,506.63,1.68,20724.01,344,140,141.2,141,19937,137762,982,1.01,-0.1,-0.03,0.89,-4.16,-1.19,-6.04,-82.71,-10,-11.97,-3.71,-9.84,-14.8,Forward Fall while Standing
41:15.8,187,609,913.5,1001,345,1.97,508.85,1.69,20724.01,344,140,141.2,141,19937,157362,1122,1.01,-0.12,-0.04,2.27,-2.53,1.07,-7.07,-81.51,-9.71,-12.43,-3.52,-9.61,-15.19,Forward Fall while Standing
41:15.9,192,605,907.5,1001,345,1.97,508.85,1.69,20724.01,344,140,141.2,141,19937,176962,1262,1.02,-0.1,-0.03,3.4,-2.69,4.66,-6.3,-82.48,-9.32,-12.9,-2.97,-9.2,-15.68,Forward Fall while Standing
41:16.0,430,603,904.5,1001,346,1.96,511.08,1.69,20724,344,139,140.1,140,19627,0,0,1.03,-0.11,-0.03,5.64,-0.77,1.41,-6.71,-82.09,-8.7,-13.17,-2.75,-8.62,-15.93,Forward Fall while Standing
41:16.1,456,602,903,1001,346,1.96,511.08,1.69,20724,344,140,140.1,140,19627,19600,140,1,-0.12,-0.03,7.9,6.56,-2.65,-7.26,-81.5,-7.85,-12.72,-2.94,-7.83,-15.47,Forward Fall while Standing
41:24.0,1000,1000,1500,1000,337,2.04,491.25,1.65,0,0,128,0,0,0,33025,257,1.02,-0.1,-0.05,-1.39,0.94,-1.68,-6.36,-82.01,-0.42,-0.65,0.01,-0.65,-3.91,Sitting
41:24.1,1001,1000,1500,1001,336,2.04,489.08,1.64,0,0,128,0,0,0,49409,385,1.02,-0.1,-0.07,-2.85,-1.12,-1.05,-6.28,-81.49,-0.64,-0.96,-0.02,-0.87,-4.18,Sitting
41:24.2,1000,1000,1500,1001,336,2.04,489.08,1.64,0,0,129,0,0,0,66050,514,1.01,-0.09,-0.09,-2.11,0,-1.17,-5.88,-80.92,-0.8,-1.16,-0.05,-1,-4.35,Sitting
41:24.3,999,1000,1500,1001,336,2.04,489.08,1.64,0,0,128,0,0,0,82434,642,1.02,-0.09,-0.09,-1.63,2.07,-0.91,-5.79,-81.2,-0.9,-1.15,-0.07,-1.1,-4.35,Sitting
41:24.4,984,996,1494,1001,336,2.04,489.08,1.64,0,0,128,0,0,0,98818,770,1.02,-0.1,-0.07,-1.63,2.47,-1.51,-6.07,-81.64,-1.01,-1.1,-0.14,-1.21,-4.32,Sitting
41:24.5,890,979,1468.5,1001,336,2.04,489.08,1.64,0,0,128,0,0,0,115202,898,1.02,-0.1,-0.07,-1.91,2.62,-1.69,-6.01,-81.7,-1.14,-1.04,-0.22,-1.33,-4.27,Sitting
41:24.6,805,954,1431,1001,336,2.04,489.08,1.64,0,0,128,0,0,0,131586,1026,1.01,-0.1,-0.08,-1.95,1.15,-1.19,-6.01,-81.49,-1.27,-1.13,-0.26,-1.46,-4.34,Sitting
41:24.7,729,926,1389,1001,336,2.04,489.08,1.64,0,0,128,0,0,0,147970,1154,1.02,-0.1,-0.06,-1.58,-0.44,-0.63,-5.95,-81.99,-1.37,-1.37,-0.25,-1.56,-4.59,Sitting
41:24.8,658,896,1344,1001,336,2.04,489.08,1.64,20723.87,336,129,128.3,128,16460,0,0,1.02,-0.09,-0.07,-0.69,0.16,-1.6,-5.54,-82.1,-1.39,-1.55,-0.33,-1.55,-4.77,Sitting
41:24.9,588,865,1297.5,1001,335,2.05,486.92,1.64,20723.87,336,129,128.3,128,16460,16641,129,1.02,-0.1,-0.08,-2.07,-0.5,-1.41,-5.9,-81.39,-1.54,-1.8,-0.39,-1.71,-4.99,Sitting
41:25.0,534,835,1252.5,1001,335,2.05,486.92,1.64,20723.87,336,128,128.3,128,16460,33025,257,1.01,-0.09,-0.07,-2.43,1.5,-2.46,-5.56,-81.93,-1.73,-1.85,-0.56,-1.88,-5.06,Sitting
41:25.1,481,805,1207.5,1001,335,2.05,486.92,1.64,20723.87,336,129,128.3,128,16460,49666,386,0.99,-0.1,-0.07,-2.97,0.21,0.14,-6.31,-81.41,-1.97,-2.03,-0.47,-2.14,-5.21,Sitting
41:25.2,544,785,1177.5,1001,335,2.05,486.92,1.64,20723.87,336,129,128.3,128,16460,66307,515,1.02,-0.07,-0.05,-0.16,-1.14,5.44,-4.7,-83.38,-1.93,-2.35,0.16,-2.04,-5.59,Sitting
41:25.3,530,767,1150.5,1001,335,2.05,486.92,1.64,20723.87,336,128,128.3,128,16460,82691,643,1.06,-0.1,-0.07,10.32,20.24,2.08,-6.19,-81.69,-0.83,-0.5,0.45,-1.04,-3.75,Sitting
41:25.4,572,754,1131,1001,335,2.05,486.92,1.64,20723.87,336,128,128.3,128,16460,99075,771,1.04,-0.12,-0.07,-4.71,-8.54,-2.05,-6.89,-81.09,-1.24,-1.56,0.32,-1.47,-4.74,Sitting
41:25.5,565,742,1113,1001,335,2.05,486.92,1.64,20723.87,336,128,128.3,128,16460,115459,899,1.01,-0.09,-0.05,-2.79,-3.44,-4.38,-5.66,-82.64,-1.47,-2.11,-0.04,-1.64,-5.33,Sitting
41:25.6,634,736,1104,1001,336,2.04,489.08,1.64,20723.87,336,127,128.3,128,16460,131588,1026,1,-0.09,-0.09,-1.64,-5.19,1.89,-5.86,-81.11,-1.58,-2.83,0.23,-1.75,-5.96,Sitting
41:25.7,626,730,1095,1001,335,2.05,486.92,1.64,20723.87,336,128,128.3,128,16460,147972,1154,1.04,-0.11,-0.1,-1.05,-7.16,-0.14,-6.32,-80.45,-1.63,-3.75,0.29,-1.81,-6.82,Sitting
41:25.8,692,728,1092,1001,335,2.05,486.92,1.64,20723.85,335,128,128.2,128,16434,0,0,1,-0.12,-0.1,4.24,5.11,-4,-7.19,-79.77,-1.15,-3.44,-0.03,-1.39,-6.49,Sitting
41:25.9,798,731,1096.5,1001,335,2.05,486.92,1.64,20723.85,335,128,128.2,128,16434,16384,128,1.02,-0.08,-0.11,-0.53,4.68,-1.38,-5.16,-80.81,-1.14,-3.17,-0.09,-1.3,-6.28,Sitting
41:26.0,830,736,1104,1001,336,2.04,489.08,1.64,20723.85,335,128,128.2,128,16434,32768,256,1.02,-0.11,-0.06,-2.98,8.44,0.04,-6.9,-81.17,-1.39,-2.53,0,-1.61,-5.67,Sitting
41:26.1,724,735,1102.5,1001,335,2.05,486.92,1.64,20723.85,335,128,128.2,128,16434,49152,384,1.01,-0.12,-0.07,-2.31,17.52,-4.9,-7.13,-80.84,-1.56,-0.96,-0.42,-1.78,-4.15,Sitting
41:26.2,599,729,1093.5,1001,336,2.04,489.08,1.64,20723.85,335,128,128.2,128,16434,65536,512,1.04,-0.09,-0.02,-11.03,-2.74,-2.11,-5.47,-83.35,-2.62,-1.44,-0.55,-2.73,-4.71,Sitting
41:26.3,515,720,1080,1001,335,2.05,486.92,1.64,20723.85,335,127,128.2,128,16434,81665,639,1,-0.08,-0.03,-4.92,-3.19,-3.53,-5.38,-83.31,-3.06,-1.96,-0.83,-3.15,-5.21,Sitting
41:26.4,490,711,1066.5,1001,335,2.05,486.92,1.64,20723.85,335,127,128.2,128,16434,97794,766,0.99,-0.07,-0.04,1.91,-4.47,0,-4.45,-84.05,-2.81,-2.61,-0.75,-2.87,-5.87,Sitting
41:26.5,475,702,1053,1001,335,2.05,486.92,1.64,20723.85,335,128,128.2,128,16434,114178,894,1.01,-0.09,-0.08,2.41,-5.35,-0.09,-5.77,-81.57,-2.51,-3.35,-0.68,-2.64,-6.48,Sitting
41:26.6,523,695,1042.5,1001,336,2.04,489.08,1.64,20723.85,335,127,128.2,128,16434,130307,1021,1.01,-0.1,-0.1,0.68,-0.66,0.66,-6.02,-80.47,-2.38,-3.62,-0.53,-2.53,-6.69,Sitting
41:26.7,566,691,1036.5,1001,336,2.04,489.08,1.64,20723.85,335,128,128.2,128,16434,146691,1149,1.02,-0.1,-0.1,-0.28,4.7,-0.19,-6.33,-80.47,-2.35,-3.35,-0.47,-2.51,-6.43,Sitting
41:26.8,630,689,1033.5,1001,336,2.04,489.08,1.64,20723.86,335,127,127.6,127,16281,0,0,1.01,-0.1,-0.07,-1.89,6.73,0.35,-6.45,-81.39,-2.49,-2.88,-0.36,-2.64,-6.02,Sitting
41:26.9,617,686,1029,1001,336,2.04,489.08,1.64,20723.86,335,127,127.6,127,16281,16129,127,1.03,-0.11,-0.06,0.34,6.37,-0.44,-6.48,-81.76,-2.4,-2.44,-0.32,-2.56,-5.61,Sitting
41:27.0,629,684,1026,1001,336,2.04,489.08,1.64,20723.86,335,126,127.6,127,16281,32005,253,1.04,-0.09,-0.03,-1.05,0.2,-4.25,-5.67,-83.06,-2.44,-2.62,-0.67,-2.57,-5.84,Sitting
41:27.1,641,683,1024.5,1001,336,2.04,489.08,1.64,20723.86,335,127,127.6,127,16281,48134,380,1.01,-0.1,-0.05,-2.24,-3.66,-4.09,-6.05,-82.34,-2.61,-3.19,-1,-2.75,-6.35,Sitting
41:27.2,659,682,1023,1001,336,2.04,489.08,1.64,20723.86,335,127,127.6,127,16281,64263,507,1,-0.09,-0.07,-1.54,-4.81,-2.7,-5.79,-81.73,-2.71,-3.88,-1.2,-2.84,-7,Sitting
41:27.3,619,680,1020,1001,337,2.04,491.25,1.65,20723.86,335,127,127.6,127,16281,80392,634,1.02,-0.08,-0.07,-1.24,1.73,-0.27,-4.97,-82.43,-2.78,-3.91,-1.14,-2.87,-7.05,Sitting
41:27.4,522,676,1014,1001,336,2.04,489.08,1.64,20723.86,335,127,127.6,127,16281,96521,761,1.04,-0.09,-0.08,-3.97,2.31,-0.45,-5.62,-81.88,-3.12,-3.88,-1.11,-3.22,-7,Sitting
41:27.5,419,669,1003.5,1001,337,2.04,491.25,1.65,20723.86,335,127,127.6,127,16281,112650,888,1.02,-0.09,-0.05,0.28,2.92,-4.65,-5.88,-82.44,-3.04,-3.78,-1.5,-3.15,-6.93,Sitting
41:27.6,305,659,988.5,1001,336,2.04,489.08,1.64,20723.86,335,126,127.6,127,16281,128526,1014,0.99,-0.08,-0.05,-2.81,-1.76,-0.46,-4.96,-83.02,-3.26,-4.16,-1.47,-3.33,-7.31,Sitting
41:27.7,245,648,972,1001,336,2.04,489.08,1.64,20723.86,335,127,127.6,127,16281,144655,1141,1.01,-0.08,-0.07,-3.05,0.32,3.08,-5.08,-82.36,-3.51,-4.33,-1.08,-3.58,-7.45,Sitting
41:27.8,230,637,955.5,1001,337,2.04,491.25,1.65,20723.87,336,127,126.8,126,16077,0,0,1.03,-0.12,-0.07,-1.15,2.77,0.02,-7.09,-80.72,-3.57,-4.25,-1,-3.71,-7.31,Sitting
41:27.9,117,624,936,1001,337,2.04,491.25,1.65,20723.87,336,127,126.8,126,16077,16129,127,1.04,-0.11,-0.05,-1.69,4.57,-4.44,-6.44,-81.83,-3.68,-4,-1.36,-3.79,-7.11,Sitting
41:28.0,84,611,916.5,1001,337,2.04,491.25,1.65,20723.87,336,126,126.8,126,16077,32005,253,1.02,-0.09,-0.05,-3.95,-0.15,-4.92,-5.38,-82.84,-4.02,-4.21,-1.77,-4.08,-7.36,Sitting
41:28.1,0,596,894,1001,337,2.04,491.25,1.65,20723.87,336,128,126.8,126,16077,48389,381,1.01,-0.08,-0.04,-4.36,1.08,-3.84,-5.39,-82.99,-4.41,-4.31,-2.08,-4.45,-7.45,Sitting
41:28.2,0,583,874.5,1001,337,2.04,491.25,1.65,20723.87,336,128,126.8,126,16077,64773,509,1.01,-0.08,-0.03,-1.71,3.8,-2.77,-5.36,-83.36,-4.52,-4.13,-2.28,-4.56,-7.29,Sitting
41:28.3,0,569,853.5,1001,337,2.04,491.25,1.65,20723.87,336,128,126.8,126,16077,81157,637,1.02,-0.07,-0.03,-1.36,-4.4,-4.67,-4.26,-84.29,-4.6,-4.76,-2.66,-4.59,-7.94,Sitting
41:28.4,165,560,840,1001,337,2.04,491.25,1.65,20723.87,336,127,126.8,126,16077,97286,764,0.98,-0.08,-0.05,2.76,-1.17,0.29,-5.02,-83.08,-4.27,-5.08,-2.55,-4.3,-8.2,Sitting
41:28.5,336,555,832.5,1001,337,2.04,491.25,1.65,20723.87,336,126,126.8,126,16077,113162,890,1.03,-0.07,-0.06,2.32,-0.46,2.77,-4.49,-83.28,-3.98,-5.33,-2.19,-4,-8.44,Sitting
41:28.6,386,552,828,1001,337,2.04,491.25,1.65,20723.87,336,128,126.8,126,16077,129546,1018,1.04,-0.09,-0.08,1.02,-3.27,-1.84,-5.71,-81.64,-3.82,-5.85,-2.3,-3.9,-8.88,Sitting
41:28.7,438,549,823.5,1001,338,2.03,493.43,1.65,20723.87,336,126,126.8,126,16077,145422,1144,1.05,-0.1,-0.07,0.76,-1.74,-4.22,-5.81,-82.08,-3.69,-6.23,-2.65,-3.77,-9.27,Sitting
41:28.8,412,547,820.5,1001,338,2.03,493.43,1.65,20723.89,337,126,127,127,16128,0,0,1.03,-0.08,-0.09,4.29,13.72,-9.4,-4.85,-81.87,-3.21,-5.07,-3.5,-3.27,-8.15,Sitting
41:28.9,521,546,819,1001,338,2.03,493.43,1.65,20723.89,337,126,127,127,16128,15876,126,0.97,-0.05,-0.1,-10.53,-6.17,-4.12,-3.38,-81.66,-4.2,-5.89,-3.84,-4.17,-8.92,Sitting
41:29.0,624,548,822,1001,338,2.03,493.43,1.65,20723.89,337,126,127,127,16128,31752,252,1.02,-0.06,-0.01,-5.05,6.05,0.5,-3.82,-85.16,-4.66,-5.48,-3.71,-4.62,-8.67,Sitting
41:29.1,728,551,826.5,1001,338,2.03,493.43,1.65,20723.89,337,126,127,127,16128,47628,378,1.02,-0.07,-0.04,-4.85,-2.78,0.67,-4.46,-83.84,-5.08,-5.96,-3.56,-5.06,-9.07,Sitting
41:29.2,819,556,834,1001,339,2.02,495.61,1.66,20723.89,337,125,127,127,16128,63253,503,1.04,-0.07,-0.06,-1.36,-5.86,-1.35,-4.36,-83.54,-5.17,-6.75,-3.62,-5.13,-9.83,Sitting
41:29.3,820,561,841.5,1001,338,2.03,493.43,1.65,20723.89,337,126,127,127,16128,79129,629,1.02,-0.07,-0.08,-0.69,-7.12,-1.45,-4.29,-82.7,-5.18,-7.67,-3.68,-5.14,-10.67,Sitting
41:29.4,800,565,847.5,1001,338,2.03,493.43,1.65,20723.89,337,126,127,127,16128,95005,755,1,-0.05,-0.1,0.37,-5.08,0.98,-3.7,-82.04,-5.09,-8.37,-3.5,-5.03,-11.32,Sitting
41:29.5,844,570,855,1001,339,2.02,495.61,1.66,20723.89,337,126,127,127,16128,110881,881,1.02,-0.08,-0.12,-3.75,-5.15,2.53,-5,-80.51,-5.41,-9.1,-3.17,-5.39,-11.95,Sitting
41:29.6,872,576,864,1001,339,2.02,495.61,1.66,20723.89,337,126,127,127,16128,126757,1007,1.04,-0.08,-0.1,-0.28,5.59,-2.11,-4.83,-81.39,-5.38,-8.73,-3.3,-5.36,-11.64,Sitting
41:29.7,830,580,870,1001,339,2.02,495.61,1.66,20723.89,337,126,127,127,16128,142633,1133,1.02,-0.07,-0.11,-2.54,6.92,-4.75,-4.55,-81.22,-5.58,-8.24,-3.7,-5.54,-11.16,Sitting
41:29.8,829,584,876,1001,339,2.02,495.61,1.66,20723.91,338,129,126.2,126,15926,0,0,1.01,-0.05,-0.07,-4.31,1.02,-1.12,-3.67,-83.54,-5.95,-8.34,-3.73,-5.86,-11.35,Sitting
41:29.9,838,588,882,1001,339,2.02,495.61,1.66,20723.91,338,127,126.2,126,15926,16129,127,1.03,-0.08,-0.08,-1.45,4.34,-0.32,-4.76,-82.37,-6.04,-8.11,-3.69,-5.99,-11.08,Sitting
41:30.0,800,592,888,1001,339,2.02,495.61,1.66,20723.91,338,126,126.2,126,15926,32005,253,1.03,-0.06,-0.09,-1.74,-4.28,0.63,-4.12,-82.11,-6.16,-8.73,-3.54,-6.08,-11.67,Sitting
41:30.1,932,597,895.5,1001,340,2.01,497.8,1.66,20723.91,338,126,126.2,126,15926,47881,379,1.01,-0.08,-0.08,1.47,2.3,-2.34,-4.89,-82.01,-5.95,-8.7,-3.7,-5.91,-11.64,Sitting
41:30.2,655,598,897,1001,339,2.02,495.61,1.66,20723.91,338,126,126.2,126,15926,63757,505,1.03,-0.07,-0.1,-3.81,-3.58,-0.25,-4.54,-81.41,-6.27,-9.26,-3.65,-6.2,-12.14,Sitting
41:30.3,546,597,895.5,1001,340,2.01,497.8,1.66,20723.91,338,127,126.2,126,15926,79886,632,1.02,-0.06,-0.12,-1.18,2.71,-2.28,-4.01,-81,-6.34,-9.18,-3.8,-6.24,-12.06,Sitting
41:30.4,546,597,895.5,1001,339,2.02,495.61,1.66,20723.91,338,126,126.2,126,15926,95762,758,1.01,-0.05,-0.1,-2.53,1.87,-1.07,-3.67,-82.04,-6.53,-9.2,-3.83,-6.42,-12.11,Sitting
41:30.5,580,596,894,1001,340,2.01,497.8,1.66,20723.91,338,126,126.2,126,15926,111638,884,1.03,-0.08,-0.1,-3.33,4.04,-0.25,-4.75,-81.49,-6.81,-8.99,-3.77,-6.73,-11.89,Sitting
41:30.6,575,596,894,1001,339,2.02,495.61,1.66,20723.91,338,126,126.2,126,15926,127514,1010,1.02,-0.06,-0.09,-2.76,-1.69,-1.69,-4.15,-82.18,-7.04,-9.37,-3.87,-6.92,-12.28,Sitting
41:30.7,576,596,894,1001,339,2.02,495.61,1.66,20723.91,338,126,126.2,126,15926,143390,1136,1.01,-0.07,-0.09,-0.42,2.24,-0.99,-4.7,-81.72,-7.02,-9.35,-3.89,-6.93,-12.24,Sitting
41:30.8,536,595,892.5,1001,340,2.01,497.8,1.66,20723.92,339,126,126.2,126,15925,0,0,1.03,-0.08,-0.09,-3.2,-1.82,-0.04,-4.78,-81.82,-7.28,-9.72,-3.81,-7.18,-12.61,Sitting
41:30.9,469,593,889.5,1001,339,2.02,495.61,1.66,20723.92,339,125,126.2,126,15925,15625,125,1.02,-0.07,-0.09,-0.67,2.25,-1.79,-4.52,-81.85,-7.29,-9.7,-3.91,-7.18,-12.58,Sitting
41:31.0,393,590,885,1001,339,2.02,495.61,1.66,20723.92,339,126,126.2,126,15925,31501,251,1.03,-0.07,-0.08,-3.57,1.02,-1.63,-4.69,-82.2,-7.6,-9.8,-4,-7.48,-12.69,Sitting
41:31.1,323,586,879,1001,339,2.02,495.61,1.66,20723.92,339,125,126.2,126,15925,47126,376,1.01,-0.07,-0.1,-3.4,-0.79,-2.12,-4.6,-81.43,-7.88,-10.08,-4.13,-7.75,-12.93,Sitting
41:31.2,358,583,874.5,1001,340,2.01,497.8,1.66,20723.92,339,126,126.2,126,15925,63002,502,1.02,-0.06,-0.08,-0.2,2.02,-1.21,-3.97,-82.65,-7.84,-10.07,-4.17,-7.69,-12.98,Sitting
41:31.3,379,581,871.5,1001,340,2.01,497.8,1.66,20723.92,339,126,126.2,126,15925,78878,628,1.01,-0.06,-0.07,-0.57,1.34,-0.73,-4.2,-82.85,-7.84,-10.14,-4.17,-7.7,-13.05,Sitting
41:31.4,354,578,867,1001,340,2.01,497.8,1.66,20723.92,339,126,126.2,126,15925,94754,754,1.02,-0.09,-0.07,-3.24,-0.58,1.37,-5.42,-82.15,-8.11,-10.4,-3.95,-8,-13.27,Sitting
41:31.5,395,575,862.5,1001,340,2.01,497.8,1.66,20723.92,339,126,126.2,126,15925,110630,880,1.03,-0.08,-0.08,-0.98,2.18,-1.56,-4.95,-82.26,-8.15,-10.38,-4.03,-8.03,-13.26,Sitting
41:31.6,383,573,859.5,1001,340,2.01,497.8,1.66,20723.92,339,126,126.2,126,15925,126506,1006,1.02,-0.07,-0.09,-1.74,-1.05,-3.18,-4.3,-81.98,-8.27,-10.69,-4.27,-8.11,-13.54,Sitting
41:31.7,369,570,855,1001,341,2,500,1.67,20723.92,339,126,126.2,126,15925,142382,1132,1.01,-0.08,-0.08,-0.73,4.42,-0.57,-5.21,-81.81,-8.29,-10.44,-4.25,-8.17,-13.3,Sitting
41:31.8,431,568,852,1001,340,2.01,497.8,1.66,20723.93,339,125,125.7,125,15799,0,0,1.04,-0.08,-0.08,-3.28,2.64,-1.17,-5.17,-82.15,-8.56,-10.38,-4.28,-8.43,-13.25,Sitting
41:31.9,503,567,850.5,1001,341,2,500,1.67,20723.93,339,126,125.7,125,15799,15876,126,1.01,-0.06,-0.1,-2.67,-0.51,-3.99,-4.14,-81.94,-8.77,-10.63,-4.6,-8.59,-13.48,Sitting
41:32.0,604,568,852,1001,341,2,500,1.67,20723.93,339,126,125.7,125,15799,31752,252,1,-0.06,-0.08,-1.61,0.22,-2.85,-4.06,-82.59,-8.88,-10.81,-4.81,-8.69,-13.68,Sitting
41:32.1,661,569,853.5,1001,341,2,500,1.67,20723.93,339,126,125.7,125,15799,47628,378,1.01,-0.06,-0.09,-0.38,-0.56,0.25,-3.84,-82.58,-8.86,-11.07,-4.71,-8.66,-13.93,Sitting
41:32.2,627,570,855,1001,341,2,500,1.67,20723.93,339,127,125.7,125,15799,63757,505,1.02,-0.09,-0.08,-0.69,0.11,0.4,-5.37,-81.84,-8.88,-11.26,-4.59,-8.74,-14.08,Sitting
41:32.3,572,570,855,1001,341,2,500,1.67,20723.93,339,126,125.7,125,15799,79633,631,1.03,-0.07,-0.09,-2.05,-0.73,-2.07,-4.49,-82.27,-9.03,-11.53,-4.72,-8.85,-14.36,Sitting
41:32.4,613,570,855,1001,341,2,500,1.67,20723.93,339,127,125.7,125,15799,95762,758,1.03,-0.06,-0.08,-0.98,1.96,-2.42,-3.94,-82.64,-9.07,-11.54,-4.89,-8.87,-14.38,Sitting
41:32.5,579,570,855,1001,341,2,500,1.67,20723.93,339,126,125.7,125,15799,111638,884,1,-0.06,-0.1,-0.33,-0.56,-3.48,-4.14,-81.76,-9.05,-11.79,-5.15,-8.85,-14.59,Sitting
41:32.6,655,571,856.5,1001,341,2,500,1.67,20723.93,339,127,125.7,125,15799,127767,1011,1,-0.05,-0.1,0.09,-3.27,1.24,-3.47,-82.19,-8.98,-12.33,-4.95,-8.76,-15.12,Sitting
41:32.7,623,572,858,1001,341,2,500,1.67,20723.93,339,127,125.7,125,15799,143896,1138,1.03,-0.12,-0.05,-2.08,7.76,-1.11,-7.34,-81.09,-9.13,-11.75,-4.98,-9.06,-14.53,Sitting
41:32.8,635,573,859.5,1001,341,2,500,1.67,20723.95,341,127,126.5,126,16001,0,0,1.03,-0.05,-0.1,-3.35,3.47,-4.54,-3.45,-82.31,-9.41,-11.61,-5.35,-9.17,-14.43,Sitting
41:32.9,621,573,859.5,1001,341,2,500,1.67,20723.95,341,127,126.5,126,16001,16129,127,1,-0.05,-0.06,0.66,9.06,-0.5,-3.72,-83.71,-9.29,-10.89,-5.32,-9.07,-13.81,Sitting
41:33.0,601,573,859.5,1001,341,2,500,1.67,20723.95,341,126,126.5,126,16001,32005,253,1.01,-0.06,-0.07,-2.76,-1.58,3.04,-4.03,-83.29,-9.51,-11.25,-4.94,-9.29,-14.13,Sitting
41:33.1,651,574,861,1001,341,2,500,1.67,20723.95,341,127,126.5,126,16001,48134,380,1.03,-0.08,-0.08,-3.02,2.04,2.42,-5.22,-82.05,-9.75,-11.25,-4.62,-9.57,-14.08,Sitting
41:33.2,500,573,859.5,1001,341,2,500,1.67,20723.95,341,127,126.5,126,16001,64263,507,1.04,-0.08,-0.11,-8.16,-1.57,1.21,-4.81,-81.19,-10.53,-11.61,-4.42,-10.3,-14.4,Sitting
41:33.3,582,574,861,1001,341,2,500,1.67,20723.95,341,127,126.5,126,16001,80392,634,1.03,-0.11,-0.07,-5.71,8.35,-0.86,-6.59,-81.29,-11.04,-10.98,-4.42,-10.87,-13.79,Sitting
41:33.4,650,574,861,1001,341,2,500,1.67,20723.95,341,127,126.5,126,16001,96521,761,1.02,-0.07,-0.03,0.02,11.27,-4.24,-4.45,-84.25,-10.98,-10.03,-4.78,-10.72,-13,Sitting
41:33.5,688,576,864,1001,340,2.01,497.8,1.66,20723.95,341,126,126.5,126,16001,112397,887,1.02,-0.08,-0.02,-4.23,-0.79,-0.44,-4.89,-83.96,-11.35,-10.31,-4.74,-11.09,-13.26,Sitting
41:33.6,718,577,865.5,1001,341,2,500,1.67,20723.95,341,126,126.5,126,16001,128273,1013,0.99,-0.09,-0.09,-6.38,-0.57,6.07,-5.7,-81,-11.95,-10.57,-4.04,-11.7,-13.39,Sitting
41:33.7,694,578,867,1001,342,1.99,502.2,1.67,20723.95,341,126,126.5,126,16001,144149,1139,1.08,-0.11,-0.01,2.31,13.19,1.87,-6.32,-82.66,-11.65,-9.43,-3.77,-11.44,-12.36,Sitting
41:33.8,665,579,868.5,1001,341,2,500,1.67,20723.95,341,126,126.5,126,16001,0,0,1.04,-0.11,-0.02,-2.66,-9.47,-4.91,-6.7,-82.23,-11.86,-10.57,-4.18,-11.66,-13.43,Sitting
41:33.9,577,579,868.5,1001,341,2,500,1.67,20723.95,341,126,126.5,126,16001,15876,126,0.99,-0.07,-0.07,2.73,-2.76,-6.6,-4.78,-82.47,-11.53,-11.05,-4.76,-11.26,-13.91,Sitting
41:34.0,529,574,861,1001,340,2.01,497.8,1.66,20723.95,341,126,126.5,126,16001,31752,252,0.99,-0.07,-0.08,-0.84,-8.59,1.27,-4.82,-82.13,-11.56,-12.12,-4.56,-11.29,-14.92,Sitting
41:34.1,501,569,853.5,1001,340,2.01,497.8,1.66,20723.95,341,126,126.5,126,16001,47628,378,1.02,-0.09,-0.09,1.24,-0.3,1.76,-5.48,-81.56,-11.38,-12.35,-4.3,-11.14,-15.12,Sitting
41:34.2,495,564,846,1001,341,2,500,1.67,20723.95,341,126,126.5,126,16001,63504,504,1.02,-0.1,-0.1,-1.22,-2.79,-0.42,-6,-80.74,-11.44,-12.83,-4.26,-11.22,-15.55,Sitting
41:34.3,529,560,840,1001,340,2.01,497.8,1.66,20723.95,341,128,126.5,126,16001,79888,632,1,-0.09,-0.12,-3.31,-0.82,1.03,-5.6,-80.07,-11.72,-13.12,-4.08,-11.48,-15.8,Sitting
41:34.4,933,559,838.5,933,341,2,500,1.67,20723.95,341,126,126.5,126,16001,95764,758,1.02,-0.11,-0.1,-4.57,6.5,3.32,-6.58,-80.33,-12.13,-12.66,-3.66,-11.91,-15.37,Sitting
41:34.5,629,556,834,933,341,2,500,1.67,20723.95,341,128,126.5,126,16001,112148,886,1.03,-0.11,-0.08,-5.53,3.41,0.08,-6.88,-80.86,-12.63,-12.52,-3.57,-12.4,-15.25,Sitting
41:34.6,606,554,831,933,341,2,500,1.67,20723.95,341,129,126.5,126,16001,128789,1015,1.01,-0.11,-0.06,-3.32,2.92,-2.46,-6.54,-81.65,-12.91,-12.43,-3.74,-12.65,-15.2,Sitting
41:34.7,535,552,828,933,341,2,500,1.67,20723.95,341,128,126.5,126,16001,145173,1143,1,-0.1,-0.07,-1.87,-1.51,0.3,-6.12,-81.67,-13.04,-12.78,-3.63,-12.76,-15.54,Sitting
41:34.8,575,552,828,933,341,2,500,1.67,20723.94,340,128,127.1,127,16154,0,0,1.02,-0.12,-0.09,-2.94,-1.53,3.3,-7.28,-80.08,-13.28,-13.13,-3.22,-13.04,-15.81,Sitting
41:34.9,590,552,828,933,340,2.01,497.8,1.66,20723.94,340,128,127.1,127,16154,16384,128,1.02,-0.11,-0.1,-0.11,-1.01,-0.59,-7.01,-79.89,-13.23,-13.44,-3.2,-12.98,-16.1,Sitting
41:35.0,518,552,828,933,341,2,500,1.67,20723.94,340,128,127.1,127,16154,32768,256,1.02,-0.13,-0.09,-3.22,3.04,0.16,-7.67,-79.83,-13.5,-13.33,-3.11,-13.27,-15.99,Sitting
41:35.1,458,551,826.5,933,340,2.01,497.8,1.66,20723.94,340,125,127.1,127,16154,48393,381,1.02,-0.11,-0.1,-3.2,2.35,-0.09,-6.86,-80.19,-13.77,-13.3,-3.04,-13.49,-15.97,Sitting
41:35.2,426,550,825,933,340,2.01,497.8,1.66,20723.94,340,129,127.1,127,16154,65034,510,1.04,-0.14,-0.06,-1.62,4.96,-2.74,-8.23,-80.09,-13.87,-13,-3.23,-13.65,-15.68,Sitting
41:47.2,741,741,1111.5,741,343,1.98,504.41,1.68,0,0,127,0,0,0,32258,254,1.02,-0.05,-0.11,-0.19,3.75,-0.5,-3.51,-81.76,-0.04,-0.49,0.1,-0.17,-3.74,Left Fall while Sitting
41:47.3,847,794,1191,847,343,1.98,504.41,1.68,0,0,128,0,0,0,48642,382,1.03,-0.07,-0.08,-0.81,2.92,-0.61,-4.39,-82.6,-0.06,-0.4,0.12,-0.23,-3.69,Left Fall while Sitting
41:47.4,862,816,1224,862,344,1.97,506.63,1.68,0,0,128,0,0,0,65026,510,1.03,-0.1,-0.06,-3.92,1.87,-2.07,-6.34,-81.67,-0.39,-0.42,0,-0.63,-3.67,Left Fall while Sitting
41:47.5,828,819,1228.5,862,344,1.97,506.63,1.68,0,0,128,0,0,0,81410,638,1.02,-0.05,-0.07,-4.59,3.62,-6.4,-3.2,-83.86,-0.78,-0.26,-0.55,-0.88,-3.6,Left Fall while Sitting
41:47.6,684,792,1188,862,344,1.97,506.63,1.68,0,0,128,0,0,0,97794,766,1.01,-0.01,-0.09,-2.74,6.3,-5.25,-1.03,-83.31,-1,0.16,-0.99,-1,-3.18,Left Fall while Sitting
41:47.7,675,772,1158,862,343,1.98,504.41,1.68,0,0,127,0,0,0,113923,893,0.99,-0.06,-0.04,-2.44,0.75,-0.9,-3.78,-84.31,-1.18,0.04,-1,-1.29,-3.33,Left Fall while Sitting
41:47.8,617,750,1125,862,343,1.98,504.41,1.68,0,0,128,0,0,0,130307,1021,1.04,-0.05,-0.04,-0.69,6.65,0.18,-3.55,-84.63,-1.19,0.5,-0.91,-1.29,-2.91,Left Fall while Sitting
41:47.9,571,728,1092,862,343,1.98,504.41,1.68,0,0,127,0,0,0,146436,1148,1.07,-0.04,-0.06,-2.59,1.52,-7.92,-2.83,-84.63,-1.39,0.45,-1.61,-1.45,-2.95,Left Fall while Sitting
41:48.0,510,703,1054.5,862,343,1.98,504.41,1.68,20723.99,343,126,127.4,127,16230,0,0,1.06,-0.03,-0.06,3.24,5.98,-23.14,-2.06,-84.72,-1.02,0.84,-3.82,-1.06,-2.58,Left Fall while Sitting
41:48.1,434,676,1014,862,343,1.98,504.41,1.68,20723.99,343,126,127.4,127,16230,15876,126,1.05,0.04,-0.07,6.5,7.97,-32.25,1.87,-83.97,-0.31,1.44,-6.96,-0.22,-1.98,Left Fall while Sitting
41:48.2,383,650,975,862,342,1.99,502.2,1.67,20723.99,343,128,127.4,127,16230,32260,254,1,0.07,-0.04,-0.83,21.44,-40.56,3.32,-83.9,-0.34,3.38,-10.94,-0.19,-0.11,Left Fall while Sitting
41:48.3,314,622,933,862,344,1.97,506.63,1.68,20723.99,343,142,127.4,127,16230,52424,396,0.96,0.15,0.04,-9.43,26.17,-28.99,8.25,-79.27,-1.22,5.8,-13.76,-0.85,2.4,Left Fall while Sitting
41:48.4,513,613,919.5,862,341,2,500,1.67,20723.99,343,131,127.4,127,16230,69585,527,0.94,0.18,0.07,-10.67,1.56,-16.79,10.26,-76.78,-2.23,5.76,-15.34,-1.73,2.46,Left Fall while Sitting
41:48.5,529,607,910.5,862,341,2,500,1.67,20723.99,343,129,127.4,127,16230,86226,656,1.02,0.18,0.05,-1.32,-11.48,-21.73,9.31,-78.17,-2.3,4.4,-17.46,-1.84,1.09,Left Fall while Sitting
41:48.6,756,617,925.5,862,342,1.99,502.2,1.67,20723.99,343,132,127.4,127,16230,103650,788,0.98,0.27,0.04,-5.27,11.68,-34.84,14.56,-73.14,-2.77,5.36,-20.86,-2.08,2.22,Left Fall while Sitting
41:48.7,863,632,948,863,343,1.98,504.41,1.68,20723.99,343,136,127.4,127,16230,122146,924,0.92,0.32,0.09,-2.55,7.25,-31.07,18.73,-68.35,-2.97,5.88,-23.86,-2.1,2.91,Left Fall while Sitting
41:48.8,1001,654,981,1001,343,1.98,504.41,1.68,20723.99,343,129,127.4,127,16230,138787,1053,0.9,0.34,0.05,7.89,-15.02,-25.26,20.25,-67.39,-2.11,4.15,-26.36,-1.21,1.29,Left Fall while Sitting
41:48.9,1001,673,1009.5,1001,343,1.98,504.41,1.68,20723.99,343,135,127.4,127,16230,157012,1188,0.92,0.39,0.02,10.27,-13.72,-23.84,22.32,-65.47,-1.03,2.58,-28.66,-0.09,-0.15,Left Fall while Sitting
41:49.0,999,690,1035,1001,344,1.97,506.63,1.68,20723.97,342,128,131.68,131,17338,0,0,0.92,0.43,-0.01,2.13,-5.26,-21.56,24.4,-63.43,-0.76,1.86,-30.72,0.25,-0.75,Left Fall while Sitting
41:49.1,904,701,1051.5,1001,342,1.99,502.2,1.67,20723.97,342,129,131.68,131,17338,16641,129,0.91,0.48,0.01,-7.49,5.77,-18.57,27.26,-60.58,-1.46,2.24,-32.52,-0.31,-0.28,Left Fall while Sitting
41:49.2,714,702,1053,1001,341,2,500,1.67,20723.97,342,128,131.68,131,17338,33025,257,0.83,0.5,0.05,-9.28,1.31,-19.2,30.31,-57.33,-2.33,2.17,-34.36,-1.03,-0.21,Left Fall while Sitting
41:49.3,556,695,1042.5,1001,341,2,500,1.67,20723.97,342,128,131.68,131,17338,49409,385,0.85,0.51,0.02,-11.21,-5.02,-19.34,30.4,-57.41,-3.4,1.47,-36.21,-2.05,-0.89,Left Fall while Sitting
41:49.4,494,686,1029,1001,341,2,500,1.67,20723.97,342,131,131.68,131,17338,66570,516,0.83,0.57,0.06,-7.44,-6.21,-14.58,33.67,-53.95,-4.09,0.64,-37.6,-2.58,-1.55,Left Fall while Sitting
41:49.5,561,681,1021.5,1001,341,2,500,1.67,20723.97,342,133,131.68,131,17338,84259,649,0.82,0.56,0.04,-1.17,2.21,-7.32,33.71,-54,-4.15,0.66,-38.26,-2.64,-1.53,Left Fall while Sitting
41:49.6,517,674,1011,1001,341,2,500,1.67,20723.97,342,132,131.68,131,17338,101683,781,0.82,0.56,-0.02,0.39,-0.42,-5.71,33.79,-54.04,-4.06,0.42,-38.76,-2.54,-1.76,Left Fall while Sitting
41:49.7,479,667,1000.5,1001,341,2,500,1.67,20723.97,342,133,131.68,131,17338,119372,914,0.81,0.57,0.01,-2.87,-1.41,-6.07,34.44,-53.39,-4.29,0.07,-39.29,-2.74,-2.07,Left Fall while Sitting
41:49.8,531,662,993,1001,341,2,500,1.67,20723.97,342,133,131.68,131,17338,137061,1047,0.8,0.55,-0.01,-1.44,-1.38,-5.54,33.83,-54.01,-4.38,-0.27,-39.76,-2.85,-2.42,Left Fall while Sitting
41:49.9,524,657,985.5,1001,340,2.01,497.8,1.66,20723.97,342,132,131.68,131,17338,154485,1179,0.8,0.58,-0.01,-1.48,1.73,-1.81,35.15,-52.69,-4.47,-0.29,-39.87,-2.89,-2.39,Left Fall while Sitting
41:50.0,537,653,979.5,1001,341,2,500,1.67,20723.95,341,133,131.21,131,17216,0,0,0.83,0.59,0,-2.24,-0.63,-2.56,34.85,-52.99,-4.64,-0.55,-40.04,-3.06,-2.65,Left Fall while Sitting
41:50.1,588,651,976.5,1001,340,2.01,497.8,1.66,20723.95,341,133,131.21,131,17216,17689,133,0.81,0.57,-0.01,-1.36,0.97,-3.11,34.27,-53.57,-4.72,-0.66,-40.27,-3.16,-2.77,Left Fall while Sitting
41:50.2,491,645,967.5,1001,340,2.01,497.8,1.66,20723.95,341,132,131.21,131,17216,35113,265,0.8,0.58,0.02,-3.93,1.29,-2.87,35.36,-52.46,-5.06,-0.73,-40.48,-3.44,-2.8,Left Fall while Sitting
41:50.3,453,639,958.5,1001,339,2.02,495.61,1.66,20723.95,341,133,131.21,131,17216,52802,398,0.82,0.58,0,-3.31,0.78,-1.73,34.58,-53.26,-5.33,-0.85,-40.58,-3.74,-2.95,Left Fall while Sitting
41:50.4,484,635,952.5,1001,339,2.02,495.61,1.66,20723.95,341,133,131.21,131,17216,70491,531,0.81,0.58,0,-2.05,-0.07,-3.44,34.76,-53.08,-5.48,-1.06,-40.84,-3.87,-3.14,Left Fall while Sitting
41:50.5,463,630,945,1001,339,2.02,495.61,1.66,20723.95,341,133,131.21,131,17216,88180,664,0.81,0.59,0,-1.51,0.63,-3.6,35.72,-52.12,-5.58,-1.2,-41.13,-3.93,-3.23,Left Fall while Sitting
41:50.6,503,626,939,1001,339,2.02,495.61,1.66,20723.95,341,133,131.21,131,17216,105869,797,0.81,0.57,0.01,-0.04,2.42,-4.78,34.53,-53.3,-5.53,-1.15,-41.53,-3.92,-3.24,Left Fall while Sitting
41:50.7,473,622,933,1001,339,2.02,495.61,1.66,20723.95,341,133,131.21,131,17216,123558,930,0.82,0.6,-0.02,-0.26,-0.47,-5.2,35.48,-52.34,-5.5,-1.4,-41.97,-3.86,-3.44,Left Fall while Sitting
41:50.8,478,618,927,1001,339,2.02,495.61,1.66,20723.95,341,133,131.21,131,17216,141247,1063,0.78,0.61,0,0.08,0.21,-5.75,37.36,-50.48,-5.43,-1.58,-42.47,-3.72,-3.54,Left Fall while Sitting
41:50.9,496,615,922.5,1001,339,2.02,495.61,1.66,20723.95,341,133,131.21,131,17216,158936,1196,0.78,0.6,-0.04,-1.02,4.66,-1.35,37.06,-50.7,-5.48,-1.31,-42.52,-3.78,-3.29,Left Fall while Sitting
41:51.0,524,612,918,1001,339,2.02,495.61,1.66,20723.92,339,133,132.9,132,17661,0,0,0.76,0.61,0.01,-4.7,4.81,3.71,38.06,-49.78,-5.89,-1.04,-42.08,-4.13,-2.99,Left Fall while Sitting
41:51.1,514,610,915,1001,340,2.01,497.8,1.66,20723.92,339,135,132.9,132,17661,18225,135,0.79,0.6,0.01,-4.4,3.56,12.16,36.56,-51.27,-6.28,-0.88,-40.77,-4.56,-2.89,Left Fall while Sitting
41:51.2,566,609,913.5,1001,339,2.02,495.61,1.66,20723.92,339,138,132.9,132,17661,37269,273,0.83,0.57,0.03,-0.76,-0.77,15.18,33.87,-53.92,-6.29,-1.15,-39.19,-4.69,-3.26,Left Fall while Sitting
41:51.3,512,606,909,1001,340,2.01,497.8,1.66,20723.92,339,144,132.9,132,17661,58005,417,0.84,0.56,0.03,5.12,1.35,12.57,33.02,-54.78,-5.73,-1.22,-37.85,-4.18,-3.36,Left Fall while Sitting
41:51.4,427,602,903,1001,340,2.01,497.8,1.66,20723.92,339,144,132.9,132,17661,78741,561,0.88,0.51,-0.03,2.11,3.73,11.29,29.53,-58.25,-5.46,-1.04,-36.63,-4.06,-3.33,Left Fall while Sitting
41:51.5,382,597,895.5,1001,340,2.01,497.8,1.66,20723.92,339,144,132.9,132,17661,99477,705,0.85,0.52,-0.03,-3.9,-0.45,8.6,30.85,-56.95,-5.79,-1.29,-35.69,-4.33,-3.51,Left Fall while Sitting
41:51.6,382,592,888,1001,340,2.01,497.8,1.66,20723.92,339,144,132.9,132,17661,120213,849,0.85,0.52,0,-10.08,-0.19,14.31,30.76,-57.08,-6.75,-1.51,-34.17,-5.25,-3.73,Left Fall while Sitting
41:51.7,333,587,880.5,1001,340,2.01,497.8,1.66,20723.92,339,139,132.9,132,17661,139534,988,0.87,0.49,0.01,-5.02,1.37,29.66,28.47,-59.36,-7.2,-1.57,-31.12,-5.77,-3.88,Left Fall while Sitting
41:51.8,317,581,871.5,1001,339,2.02,495.61,1.66,20723.92,339,138,132.9,132,17661,158578,1126,0.86,0.42,0.04,-5.73,5.9,37.67,25.65,-62.06,-7.72,-1.18,-27.28,-6.38,-3.62,Left Fall while Sitting
41:51.9,315,575,862.5,1001,339,2.02,495.61,1.66,20723.92,339,139,132.9,132,17661,177899,1265,0.92,0.32,0.03,-10.1,13.62,46.43,18.7,-69.05,-8.68,-0.01,-22.51,-7.59,-2.77,Left Fall while Sitting
41:52.0,217,568,852,1001,339,2.02,495.61,1.66,20723.92,339,139,140.44,140,19721,0,0,1.03,0.26,0.06,-8.42,13.11,33.98,13.48,-73.96,-9.47,1.1,-19.03,-8.55,-1.9,Left Fall while Sitting
41:52.1,213,561,841.5,1001,338,2.03,493.43,1.65,20723.92,339,137,140.44,140,19721,18769,137,1.01,0.18,0.06,-1.21,2.95,18.38,9.52,-77.73,-9.53,1.2,-17.13,-8.77,-1.96,Left Fall while Sitting
41:52.2,136,553,829.5,1001,338,2.03,493.43,1.65,20723.92,339,139,140.44,140,19721,38090,276,0.98,0.17,0.03,0.24,-5.27,23.32,9.44,-78.25,-9.45,0.46,-14.7,-8.69,-2.69,Left Fall while Sitting
41:52.3,138,545,817.5,1001,338,2.03,493.43,1.65,20723.92,339,140,140.44,140,19721,57690,416,0.99,0.12,0.08,-6.56,-5.63,29.53,6.45,-80.15,-10.04,-0.29,-11.7,-9.38,-3.49,Left Fall while Sitting
41:52.4,282,540,810,1001,339,2.02,495.61,1.66,20723.92,339,138,140.44,140,19721,76734,554,0.92,0.07,0.08,-7.18,1.21,45.69,3.77,-81.75,-10.7,-0.37,-7.05,-10.13,-3.63,Left Fall while Sitting
41:52.5,507,539,808.5,1001,339,2.02,495.61,1.66,20723.92,339,138,140.44,140,19721,95778,692,0.96,-0.04,0.1,4.73,-0.58,46.02,-2.82,-81.84,-10.17,-0.63,-2.32,-9.88,-3.88,Left Fall while Sitting
41:52.6,685,542,813,1001,340,2.01,497.8,1.66,20723.92,339,141,140.44,140,19721,115659,833,0.98,-0.12,0.02,16.76,13.67,35.76,-7.67,-81.22,-8.44,0.53,1.33,-8.41,-2.74,Left Fall while Sitting
41:52.7,636,543,814.5,1001,339,2.02,495.61,1.66,20723.92,339,141,140.44,140,19721,135540,974,1.05,-0.2,0.03,4.34,10.1,28.82,-11.34,-77.52,-7.95,1.34,4.29,-8.08,-1.81,Left Fall while Sitting
41:52.8,949,551,826.5,1001,340,2.01,497.8,1.66,20723.92,339,144,140.44,140,19721,156276,1118,1.08,-0.2,0.06,-4.51,0.23,13.18,-11.19,-77.31,-8.35,1.17,5.71,-8.46,-1.97,Left Fall while Sitting
41:52.9,997,558,837,1001,341,2,500,1.67,20723.92,339,157,140.44,140,19721,180925,1275,1.05,-0.24,0.01,-15.38,-18.8,4.17,-13.38,-75.6,-9.83,-0.91,6.2,-9.97,-3.9,Left Fall while Sitting
41:53.0,1001,566,849,1001,342,1.99,502.2,1.67,20723.92,339,153,142.94,142,20432,0,0,1.01,-0.21,0.05,-4.66,-0.34,-9.1,-12.46,-76.18,-10.24,-1.15,5.38,-10.32,-4.15,Left Fall while Sitting
41:53.1,998,573,859.5,1001,341,2,500,1.67,20723.92,339,151,142.94,142,20432,22801,151,0.99,-0.23,0.04,-9.92,2.46,-14.73,-13.63,-75.16,-11.18,-1.1,3.97,-11.28,-4.06,Left Fall while Sitting
41:53.2,925,579,868.5,1001,342,1.99,502.2,1.67,20723.92,339,150,142.94,142,20432,45301,301,1.01,-0.17,0.09,-15.73,-11,-16.25,-9.93,-77.76,-12.71,-2.41,2.41,-12.6,-5.43,Left Fall while Sitting
41:53.3,849,583,874.5,1001,340,2.01,497.8,1.66,20723.92,339,149,142.94,142,20432,67502,450,0.95,-0.12,0.06,-3.71,-7.56,-15.03,-7.94,-80.2,-13.03,-3.37,0.98,-12.82,-6.44,Left Fall while Sitting
41:53.4,766,586,879,1001,340,2.01,497.8,1.66,20723.92,339,147,142.94,142,20432,89111,597,0.96,-0.14,0.05,5.41,1.74,-4.82,-8.65,-79.83,-12.42,-3.39,0.58,-12.27,-6.45,Left Fall while Sitting
41:53.5,536,585,877.5,1001,340,2.01,497.8,1.66,20723.92,339,145,142.94,142,20432,110136,742,0.97,-0.13,-0.01,-0.71,-0.84,-2.55,-8.17,-80.79,-12.44,-3.68,0.4,-12.27,-6.76,Left Fall while Sitting
41:53.6,334,581,871.5,1001,339,2.02,495.61,1.66,20723.92,339,144,142.94,142,20432,130872,886,1.02,-0.13,-0.03,2.12,3.86,-0.54,-7.86,-80.97,-12.17,-3.49,0.43,-11.99,-6.59,Left Fall while Sitting
41:53.7,244,576,864,1001,340,2.01,497.8,1.66,20723.92,339,144,142.94,142,20432,151608,1030,1.03,-0.17,-0.01,2.93,4.34,-0.21,-9.99,-78.99,-11.82,-3.26,0.48,-11.74,-6.28,Left Fall while Sitting
41:53.8,251,571,856.5,1001,339,2.02,495.61,1.66,20723.92,339,145,142.94,142,20432,172633,1175,1.06,-0.14,0.04,3,1.91,-7.01,-8.33,-80.32,-11.46,-3.26,-0.14,-11.34,-6.35,Left Fall while Sitting
41:53.9,251,567,850.5,1001,341,2,500,1.67,20723.92,339,146,142.94,142,20432,193949,1321,1.01,-0.12,0.07,2.63,3.31,-12.26,-7.44,-80.4,-11.13,-3.13,-1.31,-10.99,-6.22,Left Fall while Sitting
41:54.0,363,564,846,1001,340,2.01,497.8,1.66,20723.93,340,145,146.62,146,21496,0,0,1.01,-0.08,0.03,-7.29,-6.77,-5.52,-5.19,-83.46,-11.8,-4,-1.78,-11.54,-7.18,Left Fall while Sitting
41:54.1,380,561,841.5,1001,341,2,500,1.67,20723.93,340,146,146.62,146,21496,21316,146,0.99,-0.11,-0.02,4.37,0.88,-2.59,-7.18,-81.67,-11.31,-4.11,-1.95,-11.14,-7.21,Left Fall while Sitting
41:54.2,435,559,838.5,1001,340,2.01,497.8,1.66,20723.93,340,147,146.62,146,21496,42925,293,1.02,-0.11,0.01,6.11,2.02,-5.55,-6.82,-82.13,-10.63,-4.11,-2.44,-10.48,-7.23,Left Fall while Sitting
41:54.3,475,558,837,1001,342,1.99,502.2,1.67,20723.93,340,146,146.62,146,21496,64241,439,1.01,-0.08,0.02,4.03,-0.03,-4.1,-5.16,-83.64,-10.18,-4.31,-2.77,-9.97,-7.49,Left Fall while Sitting
41:54.4,547,558,837,1001,341,2,500,1.67,20723.93,340,146,146.62,146,21496,85557,585,1.02,-0.08,0.03,2.23,8.75,-3.68,-5.02,-83.64,-9.9,-3.64,-3.06,-9.7,-6.84,Left Fall while Sitting
41:54.5,814,561,841.5,1001,341,2,500,1.67,20723.93,340,145,146.62,146,21496,106582,730,1,-0.08,0.05,-3.4,6.08,-4.22,-5.14,-83.11,-10.18,-3.23,-3.4,-9.98,-6.42,Left Fall while Sitting
41:58.0,713,713,1069.5,713,343,1.98,504.41,1.68,0,0,146,0,0,0,43517,295,1.06,-0.15,0.04,-5.5,8.22,-11.99,-8.76,-79.96,-1.58,0.03,0.47,-1.86,-3.17,Right Fall while Sitting
41:58.1,732,722,1083,732,343,1.98,504.41,1.68,0,0,147,0,0,0,65126,442,1.01,-0.07,0.08,-6.33,10.31,-14.15,-4.27,-82.76,-2.14,0.83,-0.83,-2.22,-2.51,Right Fall while Sitting
41:58.2,754,733,1099.5,754,343,1.98,504.41,1.68,0,0,149,0,0,0,87327,591,0.97,-0.01,0.08,-3.3,1.46,-10.24,-1.37,-83.87,-2.4,0.78,-1.75,-2.36,-2.61,Right Fall while Sitting
41:58.3,736,733,1099.5,754,344,1.97,506.63,1.68,0,0,149,0,0,0,109528,740,0.94,-0.04,0.05,-9.28,-12.92,3.94,-3.11,-84.64,-3.25,-0.67,-1.3,-3.25,-4.03,Right Fall while Sitting
41:58.4,617,710,1065,754,343,1.98,504.41,1.68,0,0,148,0,0,0,131432,888,0.95,-0.05,0,-4,-9.98,23.69,-3.36,-85.63,-3.59,-1.85,1.13,-3.58,-5.21,Right Fall while Sitting
41:58.5,201,625,937.5,754,343,1.98,504.41,1.68,0,0,146,0,0,0,152748,1034,1.04,-0.13,0.01,1.23,5.84,31.54,-7.78,-81.21,-3.42,-1.48,4.3,-3.59,-4.67,Right Fall while Sitting
41:58.6,3,536,804,754,343,1.98,504.41,1.68,0,0,147,0,0,0,174357,1181,1.03,-0.23,0,-3.03,3.46,22.01,-13.35,-75.65,-3.66,-1.34,6.51,-4.04,-4.31,Right Fall while Sitting
41:58.7,1001,594,891,1001,344,1.97,506.63,1.68,0,0,153,0,0,0,197766,1334,1.04,-0.23,0.04,-1.41,21.37,23.11,-13.05,-75.78,-3.74,0.58,8.87,-4.11,-2.47,Right Fall while Sitting
41:58.8,628,598,897,1001,344,1.97,506.63,1.68,20723.99,343,156,149.03,149,22209,0,0,0.97,-0.23,0.08,-11.68,34.6,36.05,-14.15,-74,-4.83,3.78,12.48,-5.2,0.67,Right Fall while Sitting
41:58.9,4,538,807,1001,343,1.98,504.41,1.68,20723.99,343,147,149.03,149,22209,21609,147,0.95,-0.33,0.11,-7.71,19.64,39.92,-19.72,-68.21,-5.54,5.54,16.55,-6.11,2.59,Right Fall while Sitting
41:59.0,4,490,735,1001,343,1.98,504.41,1.68,20723.99,343,146,149.03,149,22209,42925,293,0.92,-0.41,0.14,-22.82,-3.18,36.89,-24.42,-63.06,-7.79,5.02,20.36,-8.46,2.29,Right Fall while Sitting
41:59.1,2,449,673.5,1001,343,1.98,504.41,1.68,20723.99,343,143,149.03,149,22209,63374,436,0.91,-0.45,0.21,0.48,2.4,29.8,-26.53,-59.5,-7.69,5.06,23.39,-8.44,2.47,Right Fall while Sitting
41:59.2,1,415,622.5,1001,342,1.99,502.2,1.67,20723.99,343,143,149.03,149,22209,83823,579,0.89,-0.51,0.17,11.79,14.58,23.74,-30.02,-57.26,-6.47,6.3,25.82,-7.41,3.76,Right Fall while Sitting
41:59.3,1,385,577.5,1001,342,1.99,502.2,1.67,20723.99,343,143,149.03,149,22209,104272,722,0.86,-0.54,0.16,9.82,11.32,18.53,-32.18,-55.22,-5.42,7.24,27.77,-6.49,4.75,Right Fall while Sitting
41:59.4,1,359,538.5,1001,343,1.98,504.41,1.68,20723.99,343,143,149.03,149,22209,124721,865,0.83,-0.56,0.18,4.24,5.38,20.08,-33.9,-53.21,-4.94,7.58,29.84,-6.1,5.15,Right Fall while Sitting
41:59.5,1,337,505.5,1001,342,1.99,502.2,1.67,20723.99,343,143,149.03,149,22209,145170,1008,0.79,-0.6,0.2,-7.5,2.77,23.36,-36.97,-49.74,-5.64,7.66,32.25,-6.89,5.36,Right Fall while Sitting
41:59.6,2,317,475.5,1001,342,1.99,502.2,1.67,20723.99,343,144,149.03,149,22209,165906,1152,0.8,-0.62,0.18,-3.97,2.37,24.33,-37.57,-49.63,-5.98,7.69,34.76,-7.24,5.4,Right Fall while Sitting
41:59.7,1,300,450,1001,343,1.98,504.41,1.68,20723.99,343,143,149.03,149,22209,186355,1295,0.76,-0.65,0.22,-8.1,8.18,16.66,-39.79,-46.54,-6.73,8.31,36.51,-8.05,6.12,Right Fall while Sitting
41:59.8,1,284,426,1001,342,1.99,502.2,1.67,20723.97,342,140,143.51,143,20594,0,0,0.75,-0.65,0.19,-0.52,4.84,12.96,-40.52,-46.35,-6.73,8.59,37.86,-8.08,6.39,Right Fall while Sitting
41:59.9,1,270,405,1001,342,1.99,502.2,1.67,20723.97,342,142,143.51,143,20594,20164,142,0.75,-0.68,0.21,4.63,7.68,6.93,-41.72,-45,-6.2,9.16,38.63,-7.62,7,Right Fall while Sitting
42:00.0,1,257,385.5,1001,342,1.99,502.2,1.67,20723.97,342,143,143.51,143,20594,40613,285,0.73,-0.68,0.21,0.83,2.03,-0.86,-42.71,-43.75,-6.07,9.17,38.63,-7.53,7.05,Right Fall while Sitting
42:00.1,1,245,367.5,1001,342,1.99,502.2,1.67,20723.97,342,144,143.51,143,20594,61349,429,0.72,-0.67,0.2,-2.53,-3.76,2.69,-42.45,-44.29,-6.26,8.6,38.97,-7.71,6.48,Right Fall while Sitting
42:00.2,119,240,360,1001,342,1.99,502.2,1.67,20723.97,342,144,143.51,143,20594,82085,573,0.7,-0.69,0.26,-0.43,-1.49,2.94,-43.32,-42.03,-6.25,8.25,39.34,-7.73,6.24,Right Fall while Sitting
42:00.3,486,250,375,1001,343,1.98,504.41,1.68,20723.97,342,144,143.51,143,20594,102821,717,0.73,-0.68,0.18,-1.05,0.4,3.05,-42.84,-44.38,-6.3,8.09,39.73,-7.76,5.99,Right Fall while Sitting
42:00.4,623,265,397.5,1001,343,1.98,504.41,1.68,20723.97,342,147,143.51,143,20594,124430,864,0.7,-0.69,0.2,-1.46,-1.2,5.67,-44.19,-42.46,-6.39,7.77,40.37,-7.9,5.76,Right Fall while Sitting
42:00.5,743,283,424.5,1001,343,1.98,504.41,1.68,20723.97,342,147,143.51,143,20594,146039,1011,0.71,-0.71,0.21,-1.88,1.24,2.33,-44.11,-42.5,-6.52,7.69,40.69,-8.02,5.68,Right Fall while Sitting
42:00.6,862,305,457.5,1001,343,1.98,504.41,1.68,20723.97,342,149,143.51,143,20594,168240,1160,0.7,-0.7,0.21,1.02,2.85,2.42,-44.22,-42.35,-6.36,7.77,41.01,-7.88,5.77,Right Fall while Sitting
42:00.7,958,328,492,1001,344,1.97,506.63,1.68,20723.97,342,150,143.51,143,20594,190740,1310,0.69,-0.71,0.19,-2.46,1.66,4.29,-45.15,-41.72,-6.55,7.74,41.52,-8.1,5.76,Right Fall while Sitting
42:00.8,996,351,526.5,1001,344,1.97,506.63,1.68,20723.98,342,151,146.13,146,21353,0,0,0.66,-0.72,0.21,-2.31,-0.18,6.98,-46.62,-39.84,-6.73,7.52,42.29,-8.32,5.63,Right Fall while Sitting
42:00.9,998,373,559.5,1001,344,1.97,506.63,1.68,20723.98,342,153,146.13,146,21353,23409,153,0.68,-0.73,0.22,-2.93,2.19,3.38,-46.29,-40.01,-6.96,7.54,42.7,-8.54,5.64,Right Fall while Sitting
42:01.0,1000,393,589.5,1001,344,1.97,506.63,1.68,20723.98,342,155,146.13,146,21353,47434,308,0.69,-0.74,0.23,0.08,0.39,-2.55,-46.17,-40.11,-6.9,7.38,42.53,-8.47,5.48,Right Fall while Sitting
42:01.0,998,412,618,1001,345,1.97,508.85,1.69,20723.98,342,155,146.13,146,21353,71459,463,0.67,-0.73,0.21,-1.89,-2.74,-3.98,-46.93,-39.69,-7.03,6.91,42.21,-8.63,5.04,Right Fall while Sitting
42:01.2,995,429,643.5,1001,344,1.97,506.63,1.68,20723.98,342,156,146.13,146,21353,95795,619,0.65,-0.72,0.22,-2.97,-4.63,-5.29,-46.85,-39.41,-7.27,6.25,41.76,-8.86,4.42,Right Fall while Sitting
42:01.3,992,446,669,1001,345,1.97,508.85,1.69,20723.98,342,157,146.13,146,21353,120444,776,0.68,-0.71,0.2,-5.25,-5.17,-3.17,-45.66,-41.09,-7.74,5.53,41.52,-9.26,3.66,Right Fall while Sitting
42:01.4,960,461,691.5,1001,344,1.97,506.63,1.68,20723.98,342,155,146.13,146,21353,144469,931,0.71,-0.71,0.16,-3.25,-1.82,-2.19,-44.97,-42.62,-8.01,5.14,41.38,-9.49,3.23,Right Fall while Sitting
42:01.5,994,475,712.5,1001,344,1.97,506.63,1.68,20723.98,342,156,146.13,146,21353,168805,1087,0.71,-0.73,0.16,-5.95,3.83,-1.02,-45.58,-41.96,-8.55,5.33,41.36,-10.03,3.43,Right Fall while Sitting
42:01.6,879,486,729,1001,343,1.98,504.41,1.68,20723.98,342,156,146.13,146,21353,193141,1243,0.67,-0.72,0.17,-7.85,2.79,-0.62,-46.71,-40.6,-9.28,5.41,41.37,-10.78,3.57,Right Fall while Sitting
42:01.7,801,495,742.5,1001,344,1.97,506.63,1.68,20723.98,342,159,146.13,146,21353,218422,1402,0.71,-0.72,0.2,-1.08,-2.77,-0.9,-45.04,-41.86,-9.33,4.92,41.36,-10.76,3.05,Right Fall while Sitting
42:01.8,778,502,753,1001,344,1.97,506.63,1.68,20724,344,166,156.83,156,24596,0,0,0.71,-0.71,0.16,-3.24,-2.59,-8.78,-45.1,-42.53,-9.6,4.47,40.57,-11.02,2.59,Right Fall while Sitting
42:01.9,747,508,762,1001,344,1.97,506.63,1.68,20724,344,169,156.83,156,24596,28561,169,0.7,-0.7,0.16,-4.26,-0.41,-7.63,-44.98,-42.61,-9.97,4.23,39.88,-11.37,2.35,Right Fall while Sitting
42:02.0,659,512,768,1001,344,1.97,506.63,1.68,20724,344,169,156.83,156,24596,57122,338,0.73,-0.71,0.15,-4.33,-1.44,-7.28,-44.25,-43.54,-10.35,3.88,39.23,-11.71,1.99,Right Fall while Sitting
42:02.1,535,512,768,1001,345,1.97,508.85,1.69,20724,344,183,156.83,156,24596,25075,521,0.76,-0.72,0.19,-5.2,-4.08,-18.18,-43.06,-44.11,-10.81,3.27,37.49,-12.1,1.38,Right Fall while Sitting
42:02.2,362,509,763.5,1001,344,1.97,506.63,1.68,20724,344,187,156.83,156,24596,4294961804,708,0.78,-0.7,0.15,1.01,-7.67,-38.64,-41.79,-46.02,-10.65,2.29,33.63,-11.9,0.36,Right Fall while Sitting
42:02.3,81,499,748.5,1001,343,1.98,504.41,1.68,20724,344,188,156.83,156,24596,4294931612,896,0.83,-0.65,0.15,-4.77,-10.96,-54.27,-38.1,-49.73,-11.08,0.98,28.23,-12.16,-1.05,Right Fall while Sitting
42:02.4,97,490,735,1001,343,1.98,504.41,1.68,20724,344,188,156.83,156,24596,4294901420,1084,0.86,-0.58,0.13,-5.64,-11.26,-61.29,-33.99,-54.05,-11.59,-0.36,22.12,-12.49,-2.51,Right Fall while Sitting
42:02.5,0,479,718.5,1001,343,1.98,504.41,1.68,20724,344,190,156.83,156,24596,4294871984,1274,0.91,-0.43,0.13,-3.73,-4.27,-56.23,-25.92,-61.89,-11.92,-1.01,16.41,-12.48,-3.44,Right Fall while Sitting
42:02.6,432,478,717,1001,342,1.99,502.2,1.67,20724,344,186,156.83,156,24596,4294841044,1460,0.94,-0.32,0.07,0.31,-0.48,-42.11,-19.09,-69.39,-11.83,-1.26,12.19,-12.12,-3.98,Right Fall while Sitting
42:02.7,997,489,733.5,1001,342,1.99,502.2,1.67,20724,344,173,156.83,156,24596,4294870973,1633,0.96,-0.27,0.08,-4.73,-3.17,-35.02,-16.28,-71.99,-12.26,-1.79,8.7,-12.42,-4.59,Right Fall while Sitting
42:02.8,705,493,739.5,1001,342,1.99,502.2,1.67,20723.98,343,169,20724.14,180,429489952,0,0,0.98,-0.22,0.09,-7.82,-1.31,-31.75,-13.26,-74.64,-12.98,-2.12,5.61,-12.99,-5.02,Right Fall while Sitting
42:02.9,459,493,739.5,1001,342,1.99,502.2,1.67,20723.98,343,171,20724.14,180,429489952,29241,171,1.01,-0.18,0.11,-0.34,-4.43,-39.91,-10.54,-76.68,-12.96,-2.77,1.62,-12.86,-5.73,Right Fall while Sitting
42:03.0,493,493,739.5,1001,344,1.97,506.63,1.68,20723.98,343,174,20724.14,180,429489952,59517,345,0.96,-0.09,0,9.89,9.69,-35.03,-5.66,-83.34,-11.89,-1.99,-1.88,-11.64,-5.24,Right Fall while Sitting
42:03.1,563,494,741,1001,343,1.98,504.41,1.68,20723.98,343,176,20724.14,180,429489952,90493,521,0.94,-0.05,0.06,-13.23,-13.15,-17.76,-3.37,-84.04,-13.18,-3.53,-3.61,-12.79,-6.75,Right Fall while Sitting
42:03.2,343,491,736.5,1001,343,1.98,504.41,1.68,20723.98,343,175,20724.14,180,429489952,121118,696,0.98,-0.04,0.05,-11.73,-24.67,-10.37,-2.67,-84.92,-14.32,-6.25,-4.58,-13.86,-9.4,Right Fall while Sitting
42:03.3,384,489,733.5,1001,344,1.97,506.63,1.68,20723.98,343,179,20724.14,180,429489952,153159,875,1,-0.03,0.02,-1.19,-15.88,-13.42,-2.32,-86.46,-14.39,-8.08,-5.87,-13.91,-11.21,Right Fall while Sitting
42:03.4,379,487,730.5,1001,343,1.98,504.41,1.68,20723.98,343,181,20724.14,180,429489952,185920,1056,0.97,0.03,-0.03,-0.94,-5.37,-8.51,0.91,-86.2,-14.43,-8.84,-6.67,-13.81,-11.93,Right Fall while Sitting
42:03.5,494,487,730.5,1001,344,1.97,506.63,1.68,20723.98,343,180,20724.14,180,429489952,218320,1236,0.98,0.02,-0.1,1.76,8.92,-6.41,0.68,-82.56,-14.19,-8.13,-7.24,-13.6,-11.11,Right Fall while Sitting
42:03.6,653,490,735,1001,344,1.97,506.63,1.68,20723.98,343,180,20724.14,180,429489952,250720,1416,1.02,0.01,-0.04,-5.27,6.06,-5.69,0.15,-85.91,-14.67,-7.72,-7.74,-14.08,-10.85,Right Fall while Sitting
42:03.7,661,493,739.5,1001,344,1.97,506.63,1.68,20723.98,343,182,20724.14,180,429489952,218308,1598,1.05,0,0.02,-14.13,-17.79,-5.01,-0.58,-87.52,-16.05,-9.74,-8.17,-15.43,-12.85,Right Fall while Sitting
42:03.8,694,497,745.5,1001,344,1.97,506.63,1.68,20723.99,343,182,136.34,178,18588,0,0,1.04,0.08,0.02,-9.02,-18.81,-10.39,3.64,-84.02,-16.9,-11.82,-9.13,-16.08,-14.71,Right Fall while Sitting
42:03.9,775,501,751.5,1001,344,1.97,506.63,1.68,20723.99,343,184,136.34,178,18588,4294935616,184,0.99,0.04,0,4.89,-12.36,-2.9,1.7,-86.14,-16.34,-13.29,-9.34,-15.62,-16.2,Right Fall while Sitting
42:04.0,644,504,756,1001,344,1.97,506.63,1.68,20723.99,343,182,136.34,178,18588,4294903204,366,0.98,0.04,-0.08,8.63,-10.74,-1.59,1.46,-83.12,-15.41,-14.57,-9.42,-14.74,-17.31,Right Fall while Sitting
42:04.1,657,506,759,1001,343,1.98,504.41,1.68,20723.99,343,167,136.34,178,18588,4294931093,533,1.01,0.03,-0.13,-0.53,-5.86,2.27,1.25,-80.68,-15.41,-15.37,-9.11,-14.74,-17.99,Right Fall while Sitting
42:04.2,645,508,762,1001,342,1.99,502.2,1.67,20723.99,343,159,136.34,178,18588,4294956374,692,1.02,0.03,-0.16,-3.47,1.14,2.86,1.01,-79.31,-15.71,-15.46,-8.74,-15.04,-18.02,Right Fall while Sitting
42:04.3,687,511,766.5,1001,342,1.99,502.2,1.67,20723.99,343,157,136.34,178,18588,13727,849,1.03,0.03,-0.12,-2.24,8.42,-1.04,0.87,-81.81,-15.88,-14.81,-8.77,-15.21,-17.49,Right Fall while Sitting
42:04.4,753,515,772.5,1001,341,2,500,1.67,20723.99,343,156,136.34,178,18588,38063,1005,1.03,0.03,-0.08,-3.63,6.44,-2.53,0.89,-83.91,-16.18,-14.36,-8.94,-15.5,-17.14,Right Fall while Sitting
42:04.5,893,520,780,1001,341,2,500,1.67,20723.99,343,157,136.34,178,18588,62712,1162,1.03,0.03,-0.05,-2.28,10.66,-5.28,0.84,-85.24,-16.35,-13.5,-9.39,-15.67,-16.37,Right Fall while Sitting
42:04.6,924,526,789,1001,342,1.99,502.2,1.67,20723.99,343,156,136.34,178,18588,87048,1318,1.01,0.04,-0.02,-4.91,2.22,-4.82,1.84,-85.77,-16.8,-13.47,-9.8,-16.05,-16.37,Right Fall while Sitting
42:04.7,986,533,799.5,1001,343,1.98,504.41,1.68,20723.99,343,173,136.34,178,18588,116977,1491,1.01,0.05,-0.01,-2.09,-0.15,-0.81,2.24,-85.48,-16.95,-13.69,-9.8,-16.19,-16.56,Right Fall while Sitting
42:04.8,996,540,810,1001,344,1.97,506.63,1.68,20723.97,342,176,121.63,166,14794,0,0,1,0.05,-0.02,1.82,-4.62,0.61,2.02,-85.67,-16.72,-14.35,-9.66,-15.97,-17.2,Right Fall while Sitting
42:04.9,474,539,808.5,1001,344,1.97,506.63,1.68,20723.97,342,176,121.63,166,14794,30976,176,1.02,0.03,-0.04,0.47,-7.38,3.24,1.33,-85.35,-16.61,-15.29,-9.26,-15.9,-18.1,Right Fall while Sitting
42:07.7,982,982,1473,982,343,1.98,504.41,1.68,0,0,185,0,0,0,4294906549,375,1.02,0.01,0.04,-5.45,0.12,-2.1,-0.17,-86.38,-0.93,0.16,-0.22,-0.9,-3.3,Forward Fall while Sitting
42:07.8,826,904,1356,982,343,1.98,504.41,1.68,0,0,186,0,0,0,4294875609,561,1,0.02,0.04,-3.57,-0.74,-2.34,0.8,-85.63,-1.22,-0.11,-0.37,-1.14,-3.53,Forward Fall while Sitting
42:07.9,803,870,1305,982,344,1.97,506.63,1.68,0,0,191,0,0,0,4294846554,752,1.02,0.05,0.02,-2.97,-3.56,-0.53,2.28,-85.35,-1.46,-0.65,-0.35,-1.31,-4.04,Forward Fall while Sitting
42:08.0,761,843,1264.5,982,344,1.97,506.63,1.68,0,0,190,0,0,0,4294817118,942,1,0.02,0,-6.12,9.65,-1.01,0.36,-87.46,-2.01,0.1,-0.37,-1.91,-3.4,Forward Fall while Sitting
42:08.1,673,809,1213.5,982,344,1.97,506.63,1.68,0,0,190,0,0,0,4294787682,1132,1.01,0.01,-0.04,-15.11,-2.76,-1.32,-0.12,-86.17,-3.43,-0.36,-0.42,-3.3,-3.8,Forward Fall while Sitting
42:08.2,583,771,1156.5,982,344,1.97,506.63,1.68,0,0,191,0,0,0,4294758627,1323,1,0.03,0.11,-9.76,-12.98,8.81,1.29,-81.94,-4.34,-1.85,0.53,-4.12,-5.05,Forward Fall while Sitting
42:08.3,546,739,1108.5,982,344,1.97,506.63,1.68,0,0,197,0,0,0,4294731900,1520,1.03,-0.01,0.08,-1.09,0.67,4.29,-1.15,-84.14,-4.4,-1.98,1.03,-4.27,-5.26,Forward Fall while Sitting
42:08.4,531,713,1069.5,982,344,1.97,506.63,1.68,0,0,197,0,0,0,4294705173,1717,1.03,-0.01,0,-2.46,-7.73,-4.92,-1.08,-87.85,-4.59,-2.95,0.62,-4.45,-6.35,Forward Fall while Sitting
42:08.5,529,692,1038,982,343,1.98,504.41,1.68,20723.99,343,194,20723.6,191,429467712,0,0,1.02,0.02,0.01,0.82,-27.09,-4.21,0.36,-87.4,-4.45,-5.83,0.28,-4.26,-9.09,Forward Fall while Sitting
42:08.6,473,670,1005,982,344,1.97,506.63,1.68,20723.99,343,195,20723.6,191,429467712,4294939785,195,0.99,0,-0.05,5.97,-30.02,2.66,-0.85,-85.39,-3.78,-9.1,0.63,-3.67,-12.15,Forward Fall while Sitting
42:08.7,373,643,964.5,982,343,1.98,504.41,1.68,20723.99,343,193,20723.6,191,429467712,4294911498,388,1.01,-0.04,-0.13,4.58,-13.08,6.31,-2.99,-80.49,-3.26,-10.63,1.35,-3.25,-13.43,Forward Fall while Sitting
42:08.8,349,619,928.5,982,343,1.98,504.41,1.68,20723.99,343,179,20723.6,191,429467712,4294943539,567,1.02,-0.06,-0.16,-1.02,-4.21,4.46,-3.94,-79.02,-3.31,-11.27,1.89,-3.33,-13.98,Forward Fall while Sitting
42:08.9,325,596,894,982,343,1.98,504.41,1.68,20723.99,343,180,20723.6,191,429467712,8643,747,1.03,-0.04,-0.14,-4.49,-12.68,2.06,-2.57,-80.27,-3.71,-12.76,2.18,-3.66,-15.47,Forward Fall while Sitting
42:09.0,331,577,865.5,982,344,1.97,506.63,1.68,20723.99,343,190,20723.6,191,429467712,4294946503,937,1.03,-0.04,-0.2,-2.84,-28.22,2.54,-2.69,-77.36,-3.94,-15.85,2.52,-3.89,-18.31,Forward Fall while Sitting
42:09.1,285,558,837,982,344,1.97,506.63,1.68,20723.99,343,187,20723.6,191,429467712,4294915936,1124,1.03,-0.06,-0.24,3.49,-34.4,-1.44,-3.85,-74.98,-3.53,-19.56,2.45,-3.54,-21.78,Forward Fall while Sitting
42:09.2,330,543,814.5,982,344,1.97,506.63,1.68,20723.99,343,176,20723.6,191,429467712,4294946912,1300,1.04,-0.04,-0.35,4.59,-33.27,-3.82,-2.79,-69.85,-3,-23.19,2.14,-2.99,-25.06,Forward Fall while Sitting
42:09.3,611,547,820.5,982,342,1.99,502.2,1.67,20723.99,343,170,20723.6,191,429467712,8516,1470,0.94,-0.06,-0.36,3.44,-36.73,1.82,-3.77,-67.43,-2.59,-27.11,2.41,-2.64,-28.72,Forward Fall while Sitting
42:09.4,751,559,838.5,982,342,1.99,502.2,1.67,20723.99,343,170,20723.6,191,429467712,37416,1640,0.98,-0.04,-0.49,9.44,-46.18,8.72,-2.68,-61.89,-1.57,-32.02,3.37,-1.62,-33.22,Forward Fall while Sitting
42:09.5,392,550,825,982,341,2,500,1.67,20723.98,343,168,81.02,180,6563,0,0,0.94,-0.1,-0.53,18.24,-28.31,10.67,-5.74,-58.47,0.29,-35.02,4.51,0.05,-35.96,Forward Fall while Sitting
42:09.6,0,522,783,982,341,2,500,1.67,20723.98,343,166,81.02,180,6563,27556,166,0.88,-0.13,-0.59,9.21,-25.5,6.97,-7.56,-54.09,1.25,-37.74,5.28,0.9,-38.4,Forward Fall while Sitting
42:09.7,320,513,769.5,982,340,2.01,497.8,1.66,20723.98,343,168,81.02,180,6563,55780,334,0.81,-0.15,-0.52,1.88,-25.15,7.16,-9.21,-54.81,1.5,-40.46,6.07,1.07,-41.03,Forward Fall while Sitting
42:09.8,290,502,753,982,341,2,500,1.67,20723.98,343,165,81.02,180,6563,83005,499,0.83,-0.16,-0.66,-5.25,-27.37,2.98,-9.3,-49.16,1.03,-43.4,6.45,0.62,-43.63,Forward Fall while Sitting
42:09.9,217,490,735,982,341,2,500,1.67,20723.98,343,165,81.02,180,6563,110230,664,0.79,-0.16,-0.66,-7.89,-33.09,3.57,-9.45,-47.59,0.3,-46.87,6.88,-0.09,-46.9,Forward Fall while Sitting
42:10.0,32,471,706.5,982,341,2,500,1.67,20723.98,343,168,81.02,180,6563,138454,832,0.76,-0.16,-0.67,2.32,-27.78,5.04,-9.4,-46.44,0.59,-49.88,7.47,0.19,-49.74,Forward Fall while Sitting
42:10.1,0,452,678,982,340,2.01,497.8,1.66,20723.98,343,167,81.02,180,6563,166343,999,0.78,-0.17,-0.79,4.29,-16.34,4.15,-9.43,-42.36,1.07,-51.69,7.96,0.65,-51.32,Forward Fall while Sitting
42:10.2,984,472,708,984,342,1.99,502.2,1.67,20723.98,343,167,81.02,180,6563,194232,1166,0.72,-0.2,-0.81,-3.19,-15.93,3.89,-11.27,-39.4,0.81,-53.47,8.42,0.33,-52.91,Forward Fall while Sitting
42:10.3,849,486,729,984,342,1.99,502.2,1.67,20723.98,343,168,81.02,180,6563,222456,1334,0.71,-0.18,-0.73,-3.31,-9.17,2.68,-10.88,-41.63,0.54,-54.6,8.77,0.08,-54.08,Forward Fall while Sitting
42:10.4,464,486,729,984,341,2,500,1.67,20723.98,343,170,81.02,180,6563,251356,1504,0.71,-0.2,-0.8,2.22,-3.95,4.25,-11.41,-39.11,0.81,-55.19,9.28,0.33,-54.55,Forward Fall while Sitting
42:10.5,166,475,712.5,984,342,1.99,502.2,1.67,20723.95,341,169,167.31,167,27990,0,0,0.73,-0.21,-0.8,-0.3,-3.5,-0.78,-11.63,-39.88,0.84,-55.73,9.28,0.34,-55.1,Forward Fall while Sitting
42:10.6,67,461,691.5,984,341,2,500,1.67,20723.95,341,171,167.31,167,27990,29241,171,0.7,-0.21,-0.82,-1.48,2.01,-4.27,-11.35,-37.92,0.75,-55.73,8.93,0.26,-55.02,Forward Fall while Sitting
42:10.7,83,449,673.5,984,341,2,500,1.67,20723.95,341,171,167.31,167,27990,58482,342,0.68,-0.19,-0.8,-2.21,-4.63,-3.31,-10.86,-37.81,0.58,-56.39,8.68,0.13,-55.65,Forward Fall while Sitting
42:10.8,124,439,658.5,984,342,1.99,502.2,1.67,20723.95,341,169,167.31,167,27990,87043,511,0.68,-0.21,-0.79,0.58,-1.22,-2.7,-11.65,-38.3,0.7,-56.71,8.49,0.2,-55.98,Forward Fall while Sitting
42:10.9,138,429,643.5,984,341,2,500,1.67,20723.95,341,171,167.31,167,27990,116284,682,0.69,-0.2,-0.79,-1.85,-5.5,-4.8,-11.27,-38.42,0.57,-57.47,8.08,0.09,-56.71,Forward Fall while Sitting
42:11.0,203,423,634.5,984,342,1.99,502.2,1.67,20723.95,341,172,167.31,167,27990,145868,854,0.68,-0.19,-0.82,-1.69,-1.67,-4.23,-10.52,-37.05,0.46,-57.84,7.74,0.02,-57.01,Forward Fall while Sitting
42:11.1,338,420,630,984,341,2,500,1.67,20723.95,341,172,167.31,167,27990,175452,1026,0.66,-0.19,-0.82,-3.21,-1.36,-2.02,-10.67,-36.34,0.19,-58.18,7.61,-0.25,-57.3,Forward Fall while Sitting
42:11.2,497,422,633,984,341,2,500,1.67,20723.95,341,170,167.31,167,27990,204352,1196,0.66,-0.18,-0.81,-2.16,-2.81,2.6,-10.5,-36.87,0.03,-58.66,7.96,-0.4,-57.79,Forward Fall while Sitting
42:11.3,655,429,643.5,984,341,2,500,1.67,20723.95,341,170,167.31,167,27990,233252,1366,0.67,-0.2,-0.81,-0.23,-0.98,2.08,-11.55,-37.2,0.06,-58.96,8.24,-0.41,-58.09,Forward Fall while Sitting
42:11.4,782,438,657,984,341,2,500,1.67,20723.95,341,169,167.31,167,27990,261813,1535,0.68,-0.2,-0.85,2.69,4.44,-2.39,-11.01,-36.27,0.39,-58.71,8.08,-0.07,-57.82,Forward Fall while Sitting
42:11.5,902,450,675,984,341,2,500,1.67,20723.95,341,172,170.7,170,29138,0,0,0.67,-0.21,-0.88,-3,8.88,-3.95,-11.24,-34.87,0.15,-58.03,7.77,-0.31,-57.11,Forward Fall while Sitting
42:11.6,883,461,691.5,984,341,2,500,1.67,20723.95,341,169,170.7,170,29138,28561,169,0.68,-0.2,-0.79,-1.4,16,-1.78,-11.23,-38.38,0.06,-56.63,7.67,-0.39,-55.9,Forward Fall while Sitting
42:11.7,980,473,709.5,984,341,2,500,1.67,20723.95,341,171,170.7,170,29138,57802,340,0.7,-0.2,-0.79,1.57,11.49,-1.11,-11.36,-38.99,0.28,-55.68,7.64,-0.19,-55.01,Forward Fall while Sitting
42:11.8,994,486,729,994,341,2,500,1.67,20723.95,341,169,170.7,170,29138,86363,509,0.73,-0.21,-0.81,1.15,16.73,-2.72,-11.62,-39.6,0.45,-54.2,7.44,-0.04,-53.62,Forward Fall while Sitting
42:11.9,1000,498,747,1000,340,2.01,497.8,1.66,20723.95,341,170,170.7,170,29138,115263,679,0.75,-0.2,-0.76,-1.55,17.24,-5.18,-11.25,-41.87,0.35,-52.66,7,-0.12,-52.23,Forward Fall while Sitting
42:12.0,999,509,763.5,1000,341,2,500,1.67,20723.95,341,172,170.7,170,29138,144847,851,0.78,-0.21,-0.74,0.79,29.08,-3.54,-11.59,-43.75,0.48,-49.93,6.72,0,-49.68,Forward Fall while Sitting
42:12.1,787,515,772.5,1000,341,2,500,1.67,20723.95,341,170,170.7,170,29138,173747,1021,0.8,-0.21,-0.72,1.42,47.79,-2.81,-11.5,-45.42,0.68,-45.3,6.52,0.2,-45.31,Forward Fall while Sitting
42:12.2,599,517,775.5,1000,340,2.01,497.8,1.66,20723.95,341,168,170.7,170,29138,201971,1189,0.86,-0.21,-0.66,0.34,50.03,-2.38,-11.56,-49.75,0.77,-40.5,6.36,0.28,-40.87,Forward Fall while Sitting
42:12.3,558,518,777,1000,340,2.01,497.8,1.66,20723.95,341,167,170.7,170,29138,229860,1356,0.9,-0.2,-0.52,1.16,50.26,-6.56,-11.71,-56.52,0.95,-35.63,5.78,0.44,-36.46,Forward Fall while Sitting
42:12.4,1001,528,792,1001,339,2.02,495.61,1.66,20723.95,341,167,170.7,170,29138,257749,1523,0.95,-0.2,-0.47,-0.8,55.22,-5.82,-11.14,-60.17,0.92,-30.25,5.27,0.44,-31.45,Forward Fall while Sitting
42:12.5,737,532,798,1001,338,2.03,493.43,1.65,20723.93,340,166,168.91,168,28529,0,0,0.94,-0.2,-0.38,-3.34,54.65,-5.4,-11.85,-63.67,0.65,-25.04,4.81,0.15,-26.58,Forward Fall while Sitting
42:12.6,1001,542,813,1001,339,2.02,495.61,1.66,20723.93,340,167,168.91,168,28529,27889,167,0.96,-0.18,-0.26,-8.37,47.09,-4.56,-11.15,-70.18,-0.14,-20.48,4.43,-0.58,-22.47,Forward Fall while Sitting
42:12.7,1001,551,826.5,1001,338,2.03,493.43,1.65,20723.93,340,165,168.91,168,28529,55114,332,1.01,-0.09,-0.28,-12.04,28.79,0.78,-5.4,-72.19,-1.3,-17.78,4.59,-1.46,-19.96,Forward Fall while Sitting
42:12.8,1001,559,838.5,1001,338,2.03,493.43,1.65,20723.93,340,164,168.91,168,28529,82010,496,1.03,-0.17,-0.1,2.45,8.63,11.76,-9.9,-77.66,-1,-17.12,5.84,-1.35,-19.54,Forward Fall while Sitting
42:12.9,1000,568,852,1001,338,2.03,493.43,1.65,20723.93,340,162,168.91,168,28529,108254,658,1.02,-0.2,-0.15,12.68,65.31,-10.34,-11.29,-74.98,0.34,-10.72,4.88,-0.13,-13.29,Forward Fall while Sitting
42:13.0,853,573,859.5,1001,338,2.03,493.43,1.65,20723.93,340,161,168.91,168,28529,134175,819,1,-0.18,-0.1,-1.3,51.12,-1.33,-10.95,-76.72,0.26,-5.76,4.83,-0.18,-8.6,Forward Fall while Sitting
42:13.1,720,575,862.5,1001,339,2.02,495.61,1.66,20723.93,340,162,168.91,168,28529,160419,981,1.03,-0.16,0.04,4.44,56.92,-14.27,-9.21,-79.57,0.77,-0.21,3.46,0.37,-3.39,Forward Fall while Sitting
42:13.2,653,577,865.5,1001,340,2.01,497.8,1.66,20723.93,340,163,168.91,168,28529,186988,1144,0.98,-0.15,0.1,-8.02,38.88,-17.21,-9.07,-78.17,0.02,3.47,1.82,-0.34,0.21,Forward Fall while Sitting
42:13.3,623,578,867,1001,339,2.02,495.61,1.66,20723.93,340,162,168.91,168,28529,213232,1306,1,-0.14,0.2,-18.66,10.13,-16.6,-8.29,-74.5,-1.79,4.29,0.24,-2.05,1.14,Forward Fall while Sitting
42:13.4,731,580,870,1001,342,1.99,502.2,1.67,20723.93,340,176,168.91,168,28529,244208,1482,0.98,-0.1,0.25,-12.01,-10.4,-8.91,-6.08,-73.26,-2.94,3.04,-0.58,-3.07,-0.02,Forward Fall while Sitting
42:13.5,497,579,868.5,1001,343,1.98,504.41,1.68,20723.92,339,182,145.53,166,21178,0,0,1,-0.09,0.19,-8.53,-9.89,-4.93,-5.36,-76.61,-3.73,1.86,-0.99,-3.8,-1.28,Forward Fall while Sitting
42:13.6,546,578,867,1001,344,1.97,506.63,1.68,20723.92,339,186,145.53,166,21178,4294936356,186,0.98,-0.08,0.16,-2.58,-25.21,-7.33,-5.33,-78.21,-3.93,-0.86,-1.64,-3.99,-3.96,Forward Fall while Sitting
42:13.7,649,579,868.5,1001,344,1.97,506.63,1.68,20723.92,339,193,145.53,166,21178,4294908069,379,0.97,-0.09,0.13,3.84,-11.06,-2.17,-6.01,-79.05,-3.49,-2.2,-1.78,-3.59,-5.27,Forward Fall while Sitting
42:13.8,753,582,873,1001,343,1.98,504.41,1.68,20723.92,339,185,145.53,166,21178,4294876758,564,0.99,-0.11,0.08,4.17,-16.49,2.37,-7.14,-80.53,-3.01,-4.06,-1.46,-3.17,-7.12,Forward Fall while Sitting
42:13.9,0,573,859.5,1001,342,1.99,502.2,1.67,20723.92,339,185,145.53,166,21178,4294845447,749,1.01,-0.09,0.03,3.02,-6.11,-2.15,-5.83,-82.91,-2.65,-4.87,-1.6,-2.78,-8,Forward Fall while Sitting
42:14.0,0,564,846,1001,342,1.99,502.2,1.67,20723.92,339,186,145.53,166,21178,4294814507,935,1.04,-0.08,0.02,-2.02,1.52,-4.39,-5.2,-83.62,-2.8,-4.92,-1.97,-2.89,-8.07,Forward Fall while Sitting
42:14.1,0,555,832.5,1001,342,1.99,502.2,1.67,20723.92,339,187,145.53,166,21178,4294783940,1122,1,-0.08,0.04,-2.08,3.33,-6.4,-4.97,-83.57,-2.95,-4.79,-2.53,-3.03,-7.94,Forward Fall while Sitting
42:14.2,276,551,826.5,1001,342,1.99,502.2,1.67,20723.92,339,192,145.53,166,21178,4294755268,1314,0.98,-0.08,0.05,1.11,3.27,-0.27,-5.34,-82.8,-2.78,-4.66,-2.48,-2.89,-7.79,Forward Fall while Sitting
42:14.3,409,549,823.5,1001,342,1.99,502.2,1.67,20723.92,339,186,145.53,166,21178,4294724328,1500,1,-0.08,0.08,3.79,4.14,1.79,-5.25,-82.01,-2.34,-4.45,-2.22,-2.46,-7.55,Forward Fall while Sitting
42:14.4,475,548,822,1001,343,1.98,504.41,1.68,20723.92,339,186,145.53,166,21178,4294693388,1686,1.03,-0.09,0.06,-2.07,-5.94,1.65,-5.74,-82.21,-2.5,-5.25,-1.97,-2.63,-8.33,Forward Fall while Sitting
42:22.9,1000,1000,1500,1000,345,1.97,508.85,1.69,0,0,231,0,0,0,4294929986,432,0.96,-0.01,-0.01,14.52,-8.41,-2.54,-1.4,-87.39,2.88,-2.2,-1.14,2.71,-5.61,Walking
42:23.0,1001,1000,1500,1001,344,1.97,506.63,1.68,0,0,200,0,0,0,4294904450,632,1,0.02,-0.14,2.94,-4.91,5.99,0.7,-80.34,3.22,-2.88,-0.47,3.12,-5.98,Walking
42:23.1,1001,1000,1500,1001,344,1.97,506.63,1.68,0,0,211,0,0,0,4294883435,843,1.05,0,-0.03,-10.44,-0.74,1.29,-0.5,-86.79,2.26,-3.15,-0.27,2.15,-6.5,Walking
42:23.2,1001,1000,1500,1001,343,1.98,504.41,1.68,0,0,205,0,0,0,4294859924,1048,1.04,0,-0.03,-15.27,-4.73,-7.69,-0.63,-86.75,0.79,-3.82,-0.95,0.73,-7.14,Walking
42:23.3,1002,1001,1501.5,1002,344,1.97,506.63,1.68,0,0,201,0,0,0,4294834789,1249,0.98,0.02,-0.07,-16.94,3.29,-5.66,0.82,-83.99,-0.84,-3.7,-1.44,-0.77,-6.91,Walking
42:23.4,1001,1001,1501.5,1002,341,2,500,1.67,0,0,203,0,0,0,4294810462,1452,0.97,0.01,0.04,-29.85,5.27,2.26,0.19,-86.02,-3.74,-3.37,-1.14,-3.58,-6.68,Walking
42:23.5,1002,1001,1501.5,1002,342,1.99,502.2,1.67,0,0,216,0,0,0,4294791582,1668,1.03,0.01,0.12,-14.29,9.68,5.14,0.18,-81.54,-5.1,-2.61,-0.55,-4.88,-5.77,Walking
42:23.6,1001,1001,1501.5,1002,340,2.01,497.8,1.66,0,0,208,0,0,0,4294769310,1876,1.06,0.01,0.05,-6.12,5.67,-1.22,0.17,-85.84,-5.65,-2.25,-0.59,-5.41,-5.59,Walking
42:23.7,840,983,1474.5,1002,339,2.02,495.61,1.66,20723.98,342,207,20723.77,208,429474656,0,0,1.03,-0.01,0.07,-12.69,-7.37,-7.2,-1.14,-84.56,-6.85,-3.18,-1.23,-6.62,-6.43,Walking
42:23.8,645,949,1423.5,1002,339,2.02,495.61,1.66,20723.98,342,204,20723.77,208,429474656,4294943376,204,1.01,0.02,0.13,-10.02,1.25,-7.82,0.68,-80.98,-7.83,-3.25,-1.96,-7.49,-6.36,Walking
42:23.9,554,913,1369.5,1002,339,2.02,495.61,1.66,20723.98,342,209,20723.77,208,429474656,4294921521,413,0.99,0.04,0.12,9.58,0.7,1.69,1.48,-81.09,-6.81,-3.39,-1.71,-6.47,-6.49,Walking
42:24.0,565,884,1326,1002,340,2.01,497.8,1.66,20723.98,342,209,20723.77,208,429474656,4294899666,622,0.99,0.01,0.11,18.98,-1.6,6.7,0.14,-81.86,-4.83,-3.75,-0.95,-4.63,-6.87,Walking
42:24.1,849,881,1321.5,1002,340,2.01,497.8,1.66,20723.98,342,209,20723.77,208,429474656,4294877811,831,1.03,-0.01,0.07,33.85,0.92,5.94,-0.89,-84.27,-1.29,-3.86,-0.26,-1.27,-7.08,Walking
42:24.2,435,849,1273.5,1002,339,2.02,495.61,1.66,20723.98,342,208,20723.77,208,429474656,4294855539,1039,1.06,-0.01,-0.02,37.89,3.72,4.15,-1.15,-87.4,2.63,-3.69,0.25,2.48,-7.03,Walking
42:24.3,213,807,1210.5,1002,340,2.01,497.8,1.66,20723.98,342,205,20723.77,208,429474656,4294832028,1244,1.02,-0.01,-0.06,21.01,-3.76,5.83,-1.17,-85.13,4.83,-4.27,0.92,4.59,-7.51,Walking
42:24.4,96,762,1143,1002,340,2.01,497.8,1.66,20723.98,342,206,20723.77,208,429474656,4294808928,1450,1.02,-0.01,-0.05,13.63,-8.89,4.19,-0.92,-85.55,6.27,-5.37,1.42,5.98,-8.58,Walking
42:24.5,166,727,1090.5,1002,341,2,500,1.67,20723.98,342,207,20723.77,208,429474656,4294786241,1657,1.04,-0.04,-0.12,6.33,-6.28,-1.82,-2.8,-81.51,6.97,-6.22,1.32,6.58,-9.23,Walking
42:24.6,676,724,1086,1002,341,2,500,1.67,20723.98,342,206,20723.77,208,429474656,4294763141,1863,1.01,-0.03,-0.09,-3.79,-4.67,-2.9,-2.26,-83.07,6.64,-6.91,1.1,6.28,-9.95,Walking
42:24.8,309,703,1054.5,1002,341,2,500,1.67,20723.93,340,206,20723.75,206,429474016,0,0,1.03,-0.01,-0.07,-7.21,-1.26,-0.44,-1.38,-84.4,5.98,-7.23,1.14,5.69,-10.32,Walking
