Datetime, ECGRaw , AvgECG , ampECG , MAX , GSRRaw , Resistance , GSR(kohm) , SCL , GSRRMS , GSRMAV , EMGRaw , EMGRMS , EMGMAV , EMGVAR , EMGSSI , IEMG , AccX , AccY, AccZ , GyroX , GyroY , GyroZ , Aroll , Apitch , Groll , Gpitch, Gyaw , Combroll , Combpitch,Features
15:57.9,449,449,673.5,449,178,4.75,210.65,0.87,0,0,262,0,0,0,6741,525,0.95,-0.07,0.24,-1.86,-0.61,1.21,-4.43,-73.95,-0.11,-0.45,0.27,-0.28,-3.39,Standing
15:58.1,154,301,451.5,449,183,4.59,217.86,0.89,0,0,263,0,0,0,10374,788,0.98,-0.08,0.26,-0.91,1.36,-1.15,-5.37,-72.98,-0.15,-0.53,0.22,-0.36,-3.42,Standing
15:58.2,54,219,328.5,449,189,4.41,226.62,0.92,0,0,264,0,0,0,14534,1052,0.97,-0.07,0.26,-1.11,0.74,-1.76,-4.44,-73.13,-0.22,-0.68,0.11,-0.38,-3.58,Standing
15:58.3,0,164,246,449,193,4.3,232.53,0.94,0,0,266,0,0,0,19754,1318,0.97,-0.03,0.23,-1.51,0.89,-1.17,-2.55,-74.94,-0.33,-0.82,0.06,-0.42,-3.78,Standing
15:58.4,278,187,280.5,449,190,4.38,228.09,0.93,0,0,267,0,0,0,25507,1585,0.95,-0.08,0.27,-1.37,1.55,-1.11,-4.92,-72.21,-0.43,-0.87,0.02,-0.61,-3.73,Standing
15:58.6,587,253,379.5,587,185,4.53,220.76,0.9,0,0,269,0,0,0,32332,1854,0.96,-0.05,0.26,-0.64,1.07,-1.56,-3.56,-72.91,-0.44,-0.98,-0.07,-0.57,-3.86,Standing
15:58.7,992,359,538.5,992,181,4.65,214.96,0.88,0,0,265,0,0,0,37021,2119,0.95,-0.05,0.26,-1.24,0.09,-0.2,-3.49,-72.75,-0.53,-1.22,0,-0.64,-4.08,Standing
15:58.8,995,438,657,995,176,4.81,207.79,0.86,0,0,264,0,0,0,41181,2383,0.96,-0.05,0.27,0.06,2.35,-0.31,-3.44,-72.31,-0.45,-1.18,0.06,-0.57,-4.02,Standing
15:58.9,765,474,711,995,176,4.81,207.79,0.86,27.46,183,261,66.15,264,4375,0,0,0.98,-0.05,0.25,-0.8,-0.75,1.12,-3.31,-73.84,-0.48,-1.51,0.29,-0.59,-4.41,Standing
15:59.0,209,448,672,995,182,4.62,216.41,0.89,27.46,183,262,66.15,264,4375,3108,262,0.96,-0.07,0.26,0.24,1.11,-3.03,-4.4,-72.77,-0.38,-1.62,0.02,-0.54,-4.47,Standing
15:59.2,51,412,618,995,190,4.38,228.09,0.93,27.46,183,263,66.15,264,4375,6741,525,0.95,-0.04,0.25,-0.73,-0.5,0.02,-2.8,-73.33,-0.4,-1.93,0.12,-0.5,-4.79,Standing
15:59.3,242,398,597,995,190,4.38,228.09,0.93,27.46,183,264,66.15,264,4375,10901,789,0.97,-0.05,0.27,-0.83,1.27,-0.28,-3.43,-72.86,-0.43,-2.02,0.18,-0.55,-4.86,Standing
15:59.4,945,440,660,995,183,4.59,217.86,0.89,27.46,183,264,66.15,264,4375,15061,1053,0.97,-0.05,0.25,-1.4,-0.07,-0.44,-3.5,-73.64,-0.54,-2.28,0.22,-0.66,-5.13,Standing
15:59.5,995,479,718.5,995,175,4.85,206.37,0.86,27.46,183,259,66.15,264,4375,16606,1312,0.97,-0.05,0.26,-1.12,0.91,-0.24,-3.35,-73.33,-0.61,-2.42,0.29,-0.72,-5.25,Standing
15:59.7,374,472,708,995,177,4.78,209.22,0.87,27.46,183,258,66.15,264,4375,17634,1570,0.98,-0.06,0.27,-1.63,0.36,-0.94,-3.82,-72.59,-0.74,-2.62,0.27,-0.86,-5.42,Standing
15:59.8,42,445,667.5,995,187,4.47,223.68,0.91,27.46,183,260,66.15,264,4375,19698,1830,0.96,-0.04,0.28,-0.87,0.17,-1.82,-3.16,-72.06,-0.78,-2.84,0.14,-0.87,-5.61,Standing
15:59.9,231,433,649.5,995,189,4.41,226.62,0.92,27.46,183,264,66.15,264,4375,23858,2094,0.96,-0.05,0.27,-1.76,0.19,-0.18,-3.19,-72.42,-0.93,-3.07,0.22,-1.02,-5.84,Standing
16:00.0,0,409,613.5,995,181,4.65,214.96,0.88,27.46,183,263,66.15,264,4375,27491,2357,0.95,-0.04,0.26,-0.28,0.87,-2.08,-3.17,-72.89,-0.89,-3.21,0.06,-0.99,-6,Standing
16:00.2,995,439,658.5,995,175,4.85,206.37,0.86,20724.16,182,258,53.39,261,2850,0,0,0.96,-0.03,0.27,-1.14,1.24,-0.32,-2.54,-72.36,-0.97,-3.3,0.12,-1.03,-6.06,Standing
16:00.3,583,447,670.5,995,175,4.85,206.37,0.86,20724.16,182,257,53.39,261,2850,513,257,0.97,-0.04,0.25,-1.36,-0.21,0.56,-2.78,-73.88,-1.07,-3.58,0.29,-1.13,-6.39,Standing
16:00.4,90,430,645,995,184,4.56,219.31,0.9,20724.16,182,258,53.39,261,2850,1541,515,0.97,-0.06,0.27,-0.74,1.57,-2,-3.87,-72.58,-1.09,-3.63,0.14,-1.2,-6.39,Standing
16:00.5,144,417,625.5,995,191,4.36,229.57,0.93,20724.16,182,266,53.39,261,2850,6761,781,0.94,-0.02,0.26,-0.29,0.92,-1.12,-2.01,-72.77,-1.05,-3.76,0.09,-1.09,-6.52,Standing
16:00.7,998,442,663,998,183,4.59,217.86,0.89,20724.16,182,265,53.39,261,2850,11450,1046,0.97,-0.05,0.28,-0.4,0.27,-0.18,-3.28,-72.38,-1.03,-3.98,0.17,-1.12,-6.71,Standing
16:00.8,995,465,697.5,998,175,4.85,206.37,0.86,20724.16,182,259,53.39,261,2850,12995,1305,0.96,-0.04,0.26,-0.85,0.82,-0.49,-2.8,-73.15,-1.07,-4.12,0.21,-1.14,-6.89,Standing
16:00.9,378,461,691.5,998,176,4.81,207.79,0.86,20724.16,182,258,53.39,261,2850,14023,1563,0.96,-0.04,0.27,-1.21,0.62,-0.92,-2.71,-72.7,-1.15,-4.3,0.19,-1.21,-7.03,Standing
16:01.0,46,445,667.5,998,187,4.47,223.68,0.91,20724.16,182,258,53.39,261,2850,15051,1821,0.96,-0.04,0.27,-1.32,-0.26,-0.62,-2.7,-72.3,-1.25,-4.58,0.21,-1.3,-7.29,Standing
16:01.2,316,441,661.5,998,186,4.5,222.22,0.91,20724.16,182,263,53.39,261,2850,18684,2084,0.96,-0.03,0.26,-1.24,0.54,-0.18,-2.29,-73.33,-1.33,-4.76,0.29,-1.37,-7.5,Standing
16:01.3,997,460,690,998,178,4.75,210.65,0.87,20724.16,182,258,53.39,261,2850,19712,2342,0.97,-0.04,0.27,-1.24,-0.02,0.05,-2.89,-72.64,-1.42,-5.01,0.4,-1.47,-7.72,Standing
16:01.4,869,474,711,998,173,4.91,203.53,0.85,20724.3,180,256,44.4,259,1970,0,0,0.97,-0.05,0.25,-1.51,-0.05,-1,-3.48,-73.44,-1.53,-5.26,0.37,-1.61,-7.99,Standing
16:01.5,170,464,696,998,180,4.68,213.52,0.88,20724.3,180,256,44.4,259,1970,0,256,0.96,-0.03,0.25,-1.41,0.65,-0.47,-2.6,-73.5,-1.64,-5.43,0.41,-1.68,-8.15,Standing
16:01.6,52,451,676.5,998,189,4.41,226.62,0.92,20724.3,180,259,44.4,259,1970,1545,515,0.97,-0.05,0.26,-0.89,0.52,-0.63,-3.16,-73.13,-1.68,-5.61,0.43,-1.74,-8.32,Standing
16:01.8,357,448,672,998,187,4.47,223.68,0.91,20724.3,180,268,44.4,259,1970,7833,783,0.96,-0.03,0.26,-1.21,0.55,-1.18,-2.57,-73.13,-1.76,-5.8,0.38,-1.79,-8.49,Standing
16:01.9,989,464,696,998,180,4.68,213.52,0.88,20724.3,180,262,44.4,259,1970,10941,1045,0.96,-0.04,0.27,-0.17,1.13,-0.64,-2.62,-72.34,-1.71,-5.9,0.4,-1.75,-8.56,Standing
16:02.0,899,477,715.5,998,174,4.88,204.95,0.85,20724.3,180,260,44.4,259,1970,13005,1305,0.96,-0.03,0.27,-0.11,-0.02,0.21,-2.51,-72.79,-1.66,-6.16,0.52,-1.69,-8.82,Standing
16:02.1,108,467,700.5,998,183,4.59,217.86,0.89,20724.3,180,263,44.4,259,1970,16638,1568,0.97,-0.04,0.25,-1.34,0,-0.29,-3.1,-74.05,-1.75,-6.41,0.59,-1.81,-9.11,Standing
16:02.3,157,458,687,998,193,4.3,232.53,0.94,20724.3,180,269,44.4,259,1970,23463,1837,0.96,-0.04,0.25,-1.27,1.51,-1.11,-2.74,-73.4,-1.84,-6.47,0.55,-1.88,-9.14,Standing
16:02.4,656,463,694.5,998,185,4.53,220.76,0.9,20724.3,180,269,44.4,259,1970,30288,2106,0.96,-0.03,0.28,-1.56,0.2,-0.78,-2.39,-72.24,-1.97,-6.69,0.55,-1.98,-9.31,Standing
16:02.5,995,477,715.5,998,177,4.78,209.22,0.87,20724.3,180,266,44.4,259,1970,35508,2372,0.97,-0.04,0.28,-1.47,0.51,-0.73,-2.9,-72.09,-2.08,-6.88,0.56,-2.11,-9.49,Standing
16:02.6,331,474,711,998,181,4.65,214.96,0.88,26.7,182,267,64.23,263,4125,0,0,0.96,-0.04,0.28,-0.97,-0.58,0.12,-2.8,-72.23,-2.13,-7.19,0.67,-2.16,-9.8,Standing
16:02.8,68,463,694.5,998,188,4.44,225.15,0.92,26.7,182,269,64.23,263,4125,6825,269,0.97,-0.04,0.25,-0.78,0.21,-1.05,-3.12,-73.74,-2.16,-7.42,0.64,-2.2,-10.07,Standing
16:02.9,156,456,684,998,195,4.25,235.51,0.95,26.7,182,273,64.23,263,4125,15818,542,0.96,-0.04,0.26,-1.1,0.75,-1.23,-2.88,-73.04,-2.22,-7.57,0.58,-2.25,-10.19,Standing
16:03.0,0,445,667.5,998,188,4.44,225.15,0.92,26.7,182,273,64.23,263,4125,24811,815,0.96,-0.04,0.27,-0.69,0.7,-0.32,-2.79,-72.62,-2.24,-7.73,0.64,-2.26,-10.33,Standing
16:03.1,995,458,687,998,181,4.65,214.96,0.88,26.7,182,284,64.23,263,4125,39931,1099,0.97,-0.04,0.28,-1.02,1.21,-0.36,-3.11,-72.18,-2.3,-7.83,0.69,-2.33,-10.4,Standing
16:03.3,642,462,693,998,182,4.62,216.41,0.89,26.7,182,277,64.23,263,4125,51124,1376,0.97,-0.05,0.27,-0.89,0.82,-0.68,-3.2,-72.73,-2.34,-7.98,0.71,-2.37,-10.57,Standing
16:03.4,104,454,681,998,192,4.33,231.05,0.94,26.7,182,279,64.23,263,4125,63429,1655,0.94,-0.02,0.26,-0.42,0.46,-2.04,-1.95,-72.85,-2.32,-8.17,0.55,-2.31,-10.76,Standing
16:03.5,137,447,670.5,998,196,4.22,237,0.96,26.7,182,270,64.23,263,4125,70793,1925,0.96,-0.04,0.27,-2.99,-0.31,1.43,-2.9,-72.74,-2.62,-8.45,0.83,-2.63,-11.03,Standing
16:03.6,998,459,688.5,998,187,4.47,223.68,0.91,26.7,182,269,64.23,263,4125,77618,2194,0.98,-0.04,0.26,-2.4,-0.22,-0.64,-3.12,-73.13,-2.85,-8.73,0.84,-2.86,-11.31,Standing
16:03.8,995,470,705,998,177,4.78,209.22,0.87,26.7,182,264,64.23,263,4125,81778,2458,0.97,-0.05,0.29,-1.35,0.03,-1.67,-3.41,-71.69,-2.95,-8.98,0.73,-2.97,-11.48,Standing
16:03.9,461,470,705,998,178,4.75,210.65,0.87,20724.04,186,262,92.13,272,8487,0,0,0.96,-0.04,0.24,-1.45,-2.38,0.6,-2.92,-74.27,-3.06,-9.52,0.91,-3.05,-12.11,Standing
16:04.0,65,462,693,998,186,4.5,222.22,0.91,20724.04,186,262,92.13,272,8487,3108,262,0.95,-0.02,0.25,0.5,3.56,-2.19,-2.02,-73.4,-2.93,-9.33,0.73,-2.89,-11.89,Standing
16:04.1,169,456,684,998,192,4.33,231.05,0.94,20724.04,186,266,92.13,272,8487,8328,528,0.97,-0.04,0.28,1.51,-0.79,2.38,-2.79,-72.27,-2.67,-9.67,1.13,-2.68,-12.18,Standing
16:04.3,634,459,688.5,998,186,4.5,222.22,0.91,20724.04,186,270,92.13,272,8487,15692,798,0.97,-0.04,0.23,-0.24,-2.24,-1.08,-2.79,-75.17,-2.63,-10.2,1.09,-2.64,-12.8,Standing
16:04.4,995,469,703.5,998,177,4.78,209.22,0.87,20724.04,186,266,92.13,272,8487,20912,1064,0.97,-0.08,0.24,-1.67,-1.13,0.73,-5,-73.92,-2.77,-10.59,1.28,-2.86,-13.13,Standing
16:04.5,244,465,697.5,998,182,4.62,216.41,0.89,20724.04,186,267,92.13,272,8487,26665,1331,0.95,-0.04,0.27,-0.01,5.58,-4.37,-2.67,-72.6,-2.7,-10.15,0.83,-2.7,-12.64,Standing
16:04.6,97,459,688.5,998,194,4.27,234.02,0.95,20724.04,186,271,92.13,272,8487,34570,1602,0.96,-0.02,0.28,-2,-2.51,1.4,-1.78,-71.89,-2.88,-10.71,1.11,-2.84,-13.16,Standing
16:04.8,500,459,688.5,998,189,4.41,226.62,0.92,20724.04,186,273,92.13,272,8487,43563,1875,0.97,-0.06,0.26,-0.05,0.1,0.45,-3.77,-73.02,-2.82,-10.95,1.26,-2.86,-13.43,Standing
16:04.9,995,469,703.5,998,180,4.68,213.52,0.88,20724.04,186,269,92.13,272,8487,50388,2144,0.97,-0.04,0.25,0.39,1.51,-1.1,-2.95,-73.82,-2.7,-11.01,1.22,-2.71,-13.52,Standing
16:05.0,429,468,702,998,180,4.68,213.52,0.88,20724.04,186,268,92.13,272,8487,56676,2412,0.97,-0.04,0.23,-0.69,0.51,-0.92,-2.83,-75.13,-2.72,-11.19,1.21,-2.72,-13.75,Standing
16:05.1,58,461,691.5,998,192,4.33,231.05,0.94,20724.03,185,270,80.02,268,6403,0,0,0.95,-0.04,0.25,-1.16,3.42,0.27,-3.12,-73.67,-2.79,-11.02,1.34,-2.8,-13.53,Standing
16:05.3,239,457,685.5,998,194,4.27,234.02,0.95,20724.03,185,274,80.02,268,6403,9540,274,0.97,-0.04,0.27,-0.45,1.59,0.79,-2.94,-72.55,-2.78,-11.07,1.54,-2.78,-13.53,Standing
16:05.4,0,450,675,998,186,4.5,222.22,0.91,20724.03,185,273,80.02,268,6403,18533,547,0.98,-0.04,0.29,0.73,2.76,-1.44,-2.85,-71.82,-2.62,-10.98,1.46,-2.63,-13.41,Standing
16:05.5,994,459,688.5,998,178,4.75,210.65,0.87,20724.03,185,270,80.02,268,6403,25897,817,0.95,-0.03,0.26,-0.34,0.48,-0.7,-2.21,-72.78,-2.59,-11.16,1.47,-2.57,-13.63,Standing
16:05.6,226,455,682.5,998,184,4.56,219.31,0.9,20724.03,185,269,80.02,268,6403,32722,1086,0.95,-0.04,0.23,-0.23,0.61,-0.04,-2.86,-74.59,-2.55,-11.34,1.56,-2.56,-13.87,Standing
16:05.8,89,449,673.5,998,194,4.27,234.02,0.95,20724.03,185,268,80.02,268,6403,39010,1354,0.93,-0.04,0.27,-0.5,0.79,-0.18,-2.84,-71.83,-2.54,-11.49,1.64,-2.55,-13.9,Standing
16:05.9,524,450,675,998,187,4.47,223.68,0.91,20724.03,185,269,80.02,268,6403,45835,1623,0.97,-0.04,0.27,-1.76,1.35,1.57,-2.88,-72.52,-2.69,-11.57,1.93,-2.7,-14.01,Standing
16:06.0,593,452,678,998,177,4.78,209.22,0.87,20724.03,185,264,80.02,268,6403,49995,1887,0.99,-0.03,0.29,-0.92,2.98,-1.69,-2.44,-71.98,-2.73,-11.45,1.82,-2.72,-13.87,Standing
16:06.1,377,451,676.5,998,178,4.75,210.65,0.87,20724.03,185,261,80.02,268,6403,52580,2148,0.96,-0.05,0.29,-2.06,-0.83,-1.37,-3.51,-71.46,-2.92,-11.8,1.75,-2.95,-14.19,Standing
16:06.3,64,446,669,998,190,4.38,228.09,0.93,20724.03,185,264,80.02,268,6403,56740,2412,0.94,-0.03,0.29,-0.66,2.44,-2.02,-2.11,-71.24,-2.93,-11.75,1.59,-2.9,-14.13,Standing
16:06.4,405,445,667.5,998,187,4.47,223.68,0.91,20724.03,185,269,79.72,268,6355,0,0,0.95,-0.04,0.31,-1.18,0.85,-1.47,-2.75,-70.27,-3.01,-11.89,1.51,-3,-14.22,Standing
16:06.5,988,453,679.5,998,180,4.68,213.52,0.88,20724.03,185,265,79.72,268,6355,4689,265,0.94,-0.02,0.3,-1.29,0.05,-0.57,-1.64,-70.7,-3.1,-12.13,1.54,-3.04,-14.48,Standing
16:06.6,925,459,688.5,998,174,4.88,204.95,0.85,20724.03,185,260,79.72,268,6355,6753,525,0.96,-0.04,0.3,-1.91,-0.96,-0.14,-2.99,-70.77,-3.27,-12.5,1.62,-3.26,-14.83,Standing
16:06.8,96,454,681,998,183,4.59,217.86,0.89,20724.03,185,261,79.72,268,6355,9338,786,0.95,-0.04,0.28,-1.42,-0.01,-0.73,-2.75,-71.84,-3.38,-12.75,1.63,-3.35,-15.11,Standing
16:06.9,168,450,675,998,191,4.36,229.57,0.93,20724.03,185,265,79.72,268,6355,14027,1051,0.97,-0.03,0.28,-0.83,0.36,-0.26,-2.07,-72.46,-3.41,-12.96,1.69,-3.36,-15.34,Standing
16:07.0,758,455,682.5,998,182,4.62,216.41,0.89,20724.03,185,265,79.72,268,6355,18716,1316,0.96,-0.05,0.28,-2.4,0.85,-0.89,-3.17,-72.14,-3.64,-13.1,1.68,-3.62,-15.46,Standing
16:07.1,993,462,693,998,174,4.88,204.95,0.85,20724.03,185,259,79.72,268,6355,20261,1575,0.95,-0.03,0.29,-1.34,0.05,-1.79,-2.12,-71.63,-3.74,-13.34,1.56,-3.67,-15.67,Standing
16:07.2,996,469,703.5,998,182,4.62,216.41,0.89,20724.03,185,261,79.72,268,6355,22846,1836,0.95,-0.03,0.29,-1.02,0.85,-0.39,-2.33,-71.49,-3.8,-13.48,1.61,-3.74,-15.81,Standing
16:07.4,125,464,696,998,191,4.36,229.57,0.93,20724.03,185,265,79.72,268,6355,27535,2101,0.96,-0.05,0.28,-1.1,-0.39,0.35,-3.26,-72,-3.86,-13.78,1.75,-3.84,-16.11,Standing
16:07.5,642,467,700.5,998,184,4.56,219.31,0.9,20724.03,185,266,79.72,268,6355,32755,2367,0.96,-0.03,0.29,-0.4,2.16,-2.4,-2.1,-71.82,-3.84,-13.76,1.55,-3.77,-16.09,Standing
16:07.6,995,473,709.5,998,175,4.85,206.37,0.86,20724.15,181,260,59,262,3480,0,0,0.95,-0.02,0.26,-1.97,-1.42,0.92,-1.92,-72.86,-4.02,-14.19,1.76,-3.93,-16.53,Standing
16:07.8,406,472,708,998,177,4.78,209.22,0.87,20724.15,181,260,59,262,3480,2064,260,0.96,-0.04,0.29,-1.4,2.23,-2.22,-2.93,-71.69,-4.12,-14.16,1.58,-4.08,-16.46,Standing
16:07.9,224,469,703.5,998,188,4.44,225.15,0.92,20724.15,181,262,59,262,3480,5172,522,0.94,-0.01,0.28,-1.21,0.92,-0.79,-1.36,-71.65,-4.21,-14.29,1.58,-4.09,-16.59,Standing
16:08.0,303,467,700.5,998,189,4.41,226.62,0.92,20724.15,181,271,59,262,3480,13077,793,0.96,-0.03,0.29,-1.73,-0.2,0.62,-2.26,-71.79,-4.35,-14.57,1.75,-4.27,-16.86,Standing
16:08.1,990,474,711,998,181,4.65,214.96,0.88,20724.15,181,264,59,262,3480,17237,1057,0.96,-0.04,0.3,-0.45,0.21,-0.89,-2.97,-71.13,-4.34,-14.79,1.74,-4.28,-17.04,Standing
16:08.2,826,478,717,998,175,4.85,206.37,0.86,20724.15,181,260,59,262,3480,19301,1317,0.95,-0.02,0.27,-0.99,0.17,-0.23,-1.95,-72.52,-4.39,-15.02,1.81,-4.29,-17.32,Standing
16:08.4,0,472,708,998,185,4.53,220.76,0.9,20724.15,181,262,59,262,3480,22409,1579,0.96,-0.04,0.29,-0.66,0.71,-0.6,-3.01,-71.51,-4.4,-15.18,1.83,-4.35,-17.43,Standing
16:08.5,204,469,703.5,998,192,4.33,231.05,0.94,20724.15,181,267,59,262,3480,28162,1846,0.96,-0.03,0.3,-1.13,0.21,-1.15,-2.01,-71.11,-4.47,-15.4,1.79,-4.38,-17.63,Standing
16:08.6,863,474,711,998,182,4.62,216.41,0.89,20724.15,181,265,59,262,3480,32851,2111,0.95,-0.02,0.29,-0.93,1.18,-0.16,-1.97,-71.47,-4.52,-15.51,1.87,-4.42,-17.75,Standing
16:08.7,974,479,718.5,998,175,4.85,206.37,0.86,20724.15,181,269,59,262,3480,39676,2380,0.96,-0.03,0.29,-0.46,0.84,-0.57,-2.05,-71.66,-4.51,-15.65,1.9,-4.41,-17.89,Standing
16:08.9,120,475,712.5,998,182,4.62,216.41,0.89,20724.16,182,210,42.71,259,1823,0,0,0.96,-0.02,0.29,0.17,0.21,-1.17,-1.78,-71.73,-4.42,-15.87,1.85,-4.31,-18.11,Standing
16:09.0,338,474,711,998,181,4.65,214.96,0.88,20724.16,182,278,42.71,259,1823,11748,278,0.97,-0.03,0.28,-0.2,-0.83,-0.22,-2.56,-72.26,-4.37,-16.23,1.92,-4.3,-18.47,Standing
16:09.1,478,474,711,998,173,4.91,203.53,0.85,20724.16,182,277,42.71,259,1823,22941,555,0.96,-0.03,0.28,-0.8,0.73,-1.85,-2.23,-72.33,-4.4,-16.39,1.79,-4.32,-18.62,Standing
16:09.2,995,479,718.5,998,164,5.24,190.92,0.8,20724.16,182,206,42.71,259,1823,4294967137,761,0.95,-0.02,0.28,-1.25,0.36,-1.26,-1.61,-72,-4.49,-16.59,1.73,-4.37,-18.81,Standing
16:09.4,357,478,717,998,165,5.2,192.31,0.81,20724.16,182,248,42.71,259,1823,4294963105,1009,0.96,0,0.27,-0.87,0.41,-0.44,-0.3,-72.98,-4.53,-16.79,1.77,-4.36,-19.04,Standing
16:09.5,37,473,709.5,998,176,4.81,207.79,0.86,20724.16,182,273,42.71,259,1823,4802,1282,0.96,-0.03,0.28,-1.36,-0.82,-1.92,-2.2,-72.37,-4.63,-17.14,1.63,-4.53,-19.35,Standing
16:09.6,998,479,718.5,998,170,5.02,199.3,0.83,20724.16,182,276,42.71,259,1823,15442,1558,0.93,-0.01,0.28,-0.31,1.98,-1.08,-0.98,-71.42,-4.6,-17.15,1.6,-4.45,-19.32,Standing
16:09.7,995,484,726,998,160,5.39,185.4,0.78,20724.16,182,199,42.71,259,1823,4294956803,1757,0.96,-0.02,0.28,-1.47,-2.17,0.05,-1.88,-71.85,-4.71,-17.67,1.7,-4.6,-19.84,Standing
16:09.9,187,481,721.5,998,171,4.98,200.7,0.84,20724.16,182,290,42.71,259,1823,8071,2047,0.95,-0.01,0.28,-2.69,-2.81,-2.09,-1.17,-72.01,-4.98,-18.27,1.54,-4.83,-20.42,Standing
16:10.0,108,477,715.5,998,186,4.5,222.22,0.91,20724.16,182,291,42.71,259,1823,27216,2338,0.96,0,0.26,-1.39,-7.02,-3.04,-0.8,-73.24,-5.08,-19.4,1.26,-4.91,-21.55,Standing
16:10.1,632,479,718.5,998,179,4.72,212.09,0.87,152.52,172,292,68.51,263,4693,0,0,0.98,-0.02,0.16,-4.83,-11.41,0.11,-1.72,-79.09,-5.61,-21.06,1.37,-5.46,-23.39,Standing
16:10.2,998,484,726,998,173,4.91,203.53,0.85,152.52,172,183,68.51,263,4693,4294935249,183,1.02,-0.01,0.17,-0.68,2.61,-7.25,-1.35,-78.92,-5.63,-20.99,0.56,-5.46,-23.3,Standing
16:10.4,491,485,727.5,998,164,5.24,190.92,0.8,152.52,172,273,68.51,263,4693,4294944242,456,0.97,0.03,0.21,-3.02,-3.57,-4.6,1.39,-76.29,-5.94,-21.69,0.08,-5.64,-23.87,Standing
16:10.5,65,484,726,998,182,4.62,216.41,0.89,152.52,172,294,68.51,263,4693,4294965142,750,0.98,0.05,0.19,0.97,3.03,-1.61,2.16,-77.21,-5.75,-21.56,-0.02,-5.43,-23.79,Standing
16:10.6,392,487,730.5,998,183,4.59,217.86,0.89,152.52,172,292,68.51,263,4693,17574,1042,0.98,0.06,0.14,0.74,2.57,0.11,3.12,-79.67,-5.59,-21.49,0.09,-5.24,-23.82,Standing
16:10.7,992,497,745.5,992,177,4.78,209.22,0.87,152.52,172,286,68.51,263,4693,33834,1328,1,0.03,0.15,-4.95,-2.53,1.9,0.96,-79.73,-6.13,-22.05,0.42,-5.85,-24.36,Standing
16:10.9,898,503,754.5,992,172,4.95,202.12,0.84,152.52,172,285,68.51,263,4693,49523,1613,1.02,0.02,0.19,0,7.34,-4,0.49,-77.82,-6.06,-21.38,0.02,-5.8,-23.64,Standing
16:11.0,172,499,748.5,992,180,4.68,213.52,0.88,152.52,172,265,68.51,263,4693,54212,1878,0.98,0.06,0.21,3.56,6.53,-4.69,2.9,-75.73,-5.55,-20.82,-0.46,-5.21,-23.02,Standing
16:11.1,96,490,735,992,189,4.41,226.62,0.92,152.52,172,284,68.51,263,4693,69332,2162,0.96,0.06,0.21,2.23,2.21,-1.05,3.1,-75.6,-5.2,-20.8,-0.49,-4.87,-22.99,Standing
16:11.2,421,484,726,992,184,4.56,219.31,0.9,152.52,172,285,68.51,263,4693,85021,2447,0.97,0.05,0.21,-0.6,1.05,-0.33,2.54,-75.99,-5.21,-20.92,-0.44,-4.9,-23.12,Standing
16:11.4,995,487,730.5,995,176,4.81,207.79,0.86,74.27,178,280,98.93,272,9787,0,0,0.94,0.07,0.24,-3.7,-0.24,1.28,3.59,-73.45,-5.6,-21.19,-0.18,-5.23,-23.28,Standing
16:11.5,984,494,741,995,172,4.95,202.12,0.84,74.27,178,276,98.93,272,9787,10640,276,0.99,0.06,0.26,-1.33,2.21,0.04,3.02,-73.22,-5.69,-21.17,-0.08,-5.35,-23.25,Standing
16:11.6,223,496,744,995,179,4.72,212.09,0.87,74.27,178,275,98.93,272,9787,20729,551,0.95,0.06,0.25,-0.41,1.83,-1.43,2.96,-73.09,-5.68,-21.19,-0.16,-5.33,-23.26,Standing
16:11.7,55,494,741,995,189,4.41,226.62,0.92,74.27,178,278,98.93,272,9787,32477,829,0.96,0.07,0.25,-0.44,2.5,-1.36,3.21,-73.55,-5.66,-21.13,-0.23,-5.31,-23.22,Standing
16:11.9,312,488,732,995,186,4.5,222.22,0.91,74.27,178,280,98.93,272,9787,45341,1109,0.96,0.06,0.25,2.29,1.63,-0.5,3.14,-73.44,-5.31,-21.17,-0.19,-4.97,-23.26,Standing
16:12.0,903,487,730.5,903,179,4.72,212.09,0.87,74.27,178,276,98.93,272,9787,55981,1385,0.95,0.06,0.24,1.4,1.81,-0.6,3.16,-73.86,-5.06,-21.2,-0.17,-4.74,-23.3,Standing
16:12.1,992,493,739.5,992,173,4.91,203.53,0.85,74.27,178,272,98.93,272,9787,64429,1657,0.96,0.08,0.25,-1.89,0.6,0.04,4.1,-73.19,-5.23,-21.37,-0.06,-4.86,-23.44,Standing
16:12.2,237,495,742.5,992,179,4.72,212.09,0.87,74.27,178,275,98.93,272,9787,74518,1932,0.96,0.07,0.27,-3.81,0.44,1.06,3.15,-72.2,-5.63,-21.56,0.17,-5.28,-23.59,Standing
16:12.4,999,503,754.5,999,189,4.41,226.62,0.92,74.27,178,278,98.93,272,9787,86266,2210,0.94,0.05,0.28,-2.95,-0.21,1.79,2.47,-71.64,-5.93,-21.84,0.49,-5.59,-23.83,Standing
16:12.5,999,513,769.5,999,189,4.41,226.62,0.92,74.27,178,280,98.93,272,9787,99130,2490,0.98,0.05,0.28,-0.34,1.32,0.17,2.24,-72.06,-5.9,-21.92,0.6,-5.58,-23.93,Standing
16:12.6,999,513,769.5,999,184,4.56,219.31,0.9,18.89,181,288,107.95,277,11652,0,0,0.91,0.05,0.28,4.8,6.37,-2.34,2.18,-71.29,-5.24,-21.38,0.41,-4.94,-23.38,Standing
16:12.7,0,507,760.5,999,171,4.98,200.7,0.84,18.89,181,279,107.95,277,11652,12305,279,0.98,0.05,0.26,-2.64,0.24,-0.23,2.07,-73.41,-5.49,-21.6,0.48,-5.19,-23.67,Standing
16:12.9,0,506,759,999,168,5.09,196.49,0.82,18.89,181,275,107.95,277,11652,22394,554,0.98,0.07,0.27,-2.07,-0.14,-1.37,3.25,-72.51,-5.68,-21.86,0.41,-5.32,-23.89,Standing
16:13.0,0,505,757.5,999,177,4.78,209.22,0.87,18.89,181,275,107.95,277,11652,32483,829,0.94,0.05,0.28,-1.37,0.27,-1.91,2.31,-71.43,-5.78,-22.08,0.27,-5.46,-24.05,Standing
16:13.1,0,495,742.5,999,181,4.65,214.96,0.88,18.89,181,277,107.95,277,11652,43676,1106,0.98,0.06,0.27,-2.47,-0.98,0.84,2.84,-72.47,-6.02,-22.45,0.47,-5.67,-24.45,Standing
16:13.2,0,485,727.5,999,173,4.91,203.53,0.85,18.89,181,276,107.95,277,11652,54316,1382,0.88,0.07,0.37,4.21,7.62,-1.24,3.39,-65.17,-5.43,-21.76,0.42,-5.08,-23.49,Standing
16:13.4,0,481,721.5,999,166,5.16,193.7,0.81,18.89,181,273,107.95,277,11652,63309,1655,0.93,0.07,0.23,1.5,-1.5,-1.39,3.88,-74,-5.18,-22.19,0.34,-4.82,-24.26,Standing
16:13.5,0,480,720,999,165,5.2,192.31,0.81,18.89,181,268,107.95,277,11652,69597,1923,0.95,0.07,0.31,-2.25,-1.27,0.14,3.56,-69.8,-5.39,-22.6,0.46,-5.03,-24.49,Standing
16:13.6,996,487,730.5,996,183,4.59,217.86,0.89,18.89,181,274,107.95,277,11652,79137,2197,0.89,0.04,0.29,1.41,-0.07,-0.38,1.98,-70.03,-5.14,-22.86,0.51,-4.86,-24.74,Standing
16:13.7,996,487,730.5,996,192,4.33,231.05,0.94,18.89,181,279,107.95,277,11652,91442,2476,1.11,0.05,0.11,-0.72,-4.35,-1.41,1.9,-82.08,-5.16,-23.65,0.43,-4.88,-25.99,Standing
16:13.8,996,488,732,996,184,4.56,219.31,0.9,106.71,176,279,101.85,275,10373,0,0,0.94,0.09,0.26,-0.86,2.37,-1.79,4.51,-72.44,-5.2,-23.6,0.31,-4.81,-25.56,Standing
16:14.0,998,497,745.5,998,178,4.75,210.65,0.87,106.71,176,275,101.85,275,10373,10089,275,0.95,0.06,0.28,-0.47,0.49,-0.38,3.18,-71.6,-5.19,-23.79,0.36,-4.86,-25.71,Standing
16:14.1,999,506,759,999,180,4.68,213.52,0.88,106.71,176,273,101.85,275,10373,19082,548,0.94,0.07,0.29,-0.16,0.06,0.79,3.27,-71.16,-5.14,-24.03,0.55,-4.8,-25.92,Standing
16:14.2,1000,513,769.5,1000,191,4.36,229.57,0.93,106.71,176,276,101.85,275,10373,29722,824,0.96,0.07,0.25,1.24,1.48,-1.16,3.18,-73.53,-4.92,-24.1,0.51,-4.59,-26.08,Standing
16:14.3,1000,513,769.5,1000,192,4.33,231.05,0.94,106.71,176,279,101.85,275,10373,42027,1103,0.96,0.07,0.28,-0.44,0.54,0.25,3.45,-71.83,-4.9,-24.28,0.64,-4.57,-26.18,Standing
16:14.5,1000,514,771,1000,183,4.59,217.86,0.89,106.71,176,274,101.85,275,10373,51567,1377,0.96,0.08,0.31,4.02,4.15,-0.92,4.24,-70.08,-4.33,-24.01,0.62,-3.99,-25.86,Standing
16:14.6,999,523,784.5,1000,177,4.78,209.22,0.87,106.71,176,270,101.85,275,10373,58931,1647,0.93,0.07,0.23,-3.51,-0.19,1.26,3.3,-73.84,-4.7,-24.29,0.88,-4.38,-26.27,Standing
16:14.7,999,531,796.5,1000,186,4.5,222.22,0.91,106.71,176,269,101.85,275,10373,65756,1916,1.03,0.05,0.3,-7.55,-7.44,2.95,1.99,-72.13,-5.56,-25.46,1.34,-5.26,-27.32,Standing
16:14.8,998,535,802.5,1000,193,4.3,232.53,0.94,106.71,176,273,101.85,275,10373,74749,2189,0.94,0.04,0.24,-1.11,0.05,-7.17,1.89,-73.66,-5.63,-25.7,0.55,-5.33,-27.62,Standing
16:15.0,983,534,801,1000,183,4.59,217.86,0.89,106.71,176,273,101.85,275,10373,83742,2462,0.93,0.1,0.27,-1.82,-1.83,-0.39,5.16,-71.23,-5.79,-26.18,0.6,-5.35,-27.98,Standing
16:15.1,986,541,811.5,1000,175,4.85,206.37,0.86,20724.17,183,269,95.16,273,9055,0,0,0.95,0.08,0.27,2.37,0.73,-2.2,4.05,-72,-5.43,-26.34,0.43,-5.05,-28.16,Standing
16:15.2,987,550,825,1000,179,4.72,212.09,0.87,20724.17,183,268,95.16,273,9055,6288,268,0.95,0.09,0.19,-2.28,1.21,-1.9,4.68,-75.77,-5.64,-26.44,0.29,-5.23,-28.41,Standing
16:15.3,988,558,837,1000,190,4.38,228.09,0.93,20724.17,183,270,95.16,273,9055,13652,538,0.96,0.08,0.26,-4.5,0.05,1.28,3.84,-72.53,-6.13,-26.68,0.55,-5.73,-28.51,Standing
16:15.5,0,558,837,1000,182,4.62,216.41,0.89,20724.17,183,272,95.16,273,9055,22100,810,0.96,0.07,0.25,-2.03,-2.36,0.76,3.71,-73.31,-6.32,-27.22,0.74,-5.92,-29.06,Standing
16:15.6,0,549,823.5,1000,171,4.98,200.7,0.84,20724.17,183,268,95.16,273,9055,28388,1078,0.98,0.06,0.25,-0.71,0.94,-0.75,2.68,-73.72,-6.33,-27.35,0.74,-5.97,-29.21,Standing
16:15.7,0,542,813,1000,163,5.28,189.53,0.8,20724.17,183,261,95.16,273,9055,30973,1339,0.96,0.07,0.23,-4.24,-0.65,0.48,3.69,-74.58,-6.79,-27.68,0.9,-6.38,-29.56,Standing
16:15.8,0,541,811.5,1000,169,5.05,197.89,0.83,20724.17,183,261,95.16,273,9055,33558,1600,0.91,0.05,0.35,0.85,3.08,-1.98,2.61,-67.42,-6.62,-27.55,0.75,-6.25,-29.15,Standing
16:16.0,0,540,810,1000,178,4.75,210.65,0.87,20724.17,183,264,95.16,273,9055,37718,1864,0.96,0.08,0.24,-1.16,-0.93,0.39,3.85,-73.4,-6.69,-27.92,0.9,-6.27,-29.74,Standing
16:16.1,0,530,795,1000,172,4.95,202.12,0.84,20724.17,183,266,95.16,273,9055,42938,2130,0.99,0.08,0.25,0.31,-1.6,-1.83,3.7,-73.62,-6.59,-28.36,0.77,-6.17,-30.17,Standing
16:16.2,0,520,780,1000,164,5.24,190.92,0.8,20724.17,183,262,95.16,273,9055,46046,2392,0.93,0.08,0.24,-0.61,-0.7,-0.68,4.23,-73.49,-6.59,-28.7,0.79,-6.16,-30.49,Standing
16:16.3,0,515,772.5,1000,162,5.31,188.15,0.79,129.99,173,260,69.36,265,4810,0,0,0.95,0.07,0.22,-1.33,0.74,-0.08,3.56,-75.01,-6.69,-28.85,0.87,-6.28,-30.7,Standing
16:16.5,0,515,772.5,1000,169,5.05,197.89,0.83,129.99,173,260,69.36,265,4810,2064,260,0.98,0.08,0.23,0.06,0.51,-0.91,3.92,-74.42,-6.61,-29.04,0.86,-6.19,-30.85,Standing
16:16.6,0,513,769.5,1000,177,4.78,209.22,0.87,129.99,173,263,69.36,265,4810,5697,523,0.98,0.08,0.23,-0.09,1.17,-1.27,4.2,-74.61,-6.55,-29.14,0.8,-6.12,-30.96,Standing
16:16.7,0,506,759,1000,174,4.88,204.95,0.85,129.99,173,266,69.36,265,4810,10917,789,0.97,0.1,0.22,3.18,2.53,-2.96,4.95,-74.6,-6.09,-29.08,0.53,-5.65,-30.9,Standing
16:16.8,0,497,745.5,1000,167,5.13,195.09,0.82,129.99,173,264,69.36,265,4810,15077,1053,0.93,0.1,0.2,-1.18,4.1,-1.51,5.66,-74.65,-6.16,-28.82,0.44,-5.69,-30.65,Standing
16:17.0,0,494,741,1000,160,5.39,185.4,0.78,129.99,173,257,69.36,265,4810,15590,1310,0.99,0.1,0.27,-2.18,-1.24,-0.54,5.21,-72.39,-6.36,-29.22,0.47,-5.9,-30.94,Standing
16:17.1,0,493,739.5,1000,165,5.2,192.31,0.81,129.99,173,258,69.36,265,4810,16618,1568,0.98,0.11,0.24,0.38,1.08,1.11,5.65,-73.24,-6.25,-29.33,0.71,-5.77,-31.09,Standing
16:17.2,0,488,732,1000,175,4.85,206.37,0.86,129.99,173,262,69.36,265,4810,19726,1830,0.97,0.13,0.3,-6.32,-3.31,2.47,6.49,-70,-6.96,-29.99,1.11,-6.42,-31.59,Standing
16:17.3,992,488,732,992,181,4.65,214.96,0.88,129.99,173,268,69.36,265,4810,26014,2098,0.97,0.1,0.29,-1.24,0.53,0.23,4.9,-71.16,-7.05,-30.17,1.24,-6.57,-31.81,Standing
16:17.5,993,494,741,993,179,4.72,212.09,0.87,129.99,173,268,69.36,265,4810,32302,2366,0.95,0.09,0.25,-0.57,0.12,-0.14,4.71,-72.84,-7.05,-30.4,1.32,-6.58,-32.1,Standing
16:17.6,993,503,754.5,993,174,4.88,204.95,0.85,172.21,172,267,61.68,263,3804,0,0,0.96,0.09,0.27,-0.77,-0.63,-0.12,4.28,-72.02,-7.08,-30.73,1.4,-6.62,-32.38,Standing
16:17.7,993,511,766.5,993,179,4.72,212.09,0.87,172.21,172,268,61.68,263,3804,6288,268,0.97,0.07,0.24,-0.25,-0.2,-1.31,3.42,-73.79,-7.04,-31,1.34,-6.62,-32.71,Standing
16:17.8,992,521,781.5,993,190,4.38,228.09,0.93,172.21,172,272,61.68,263,3804,14736,540,0.97,0.07,0.28,-2.88,0.66,-1.34,3.5,-71.75,-7.33,-31.17,1.27,-6.89,-32.79,Standing
16:18.0,993,521,781.5,993,192,4.33,231.05,0.94,172.21,172,275,61.68,263,3804,24825,815,0.93,0.09,0.26,0.94,3.82,-0.75,4.72,-71.72,-7.14,-30.94,1.27,-6.67,-32.57,Standing
16:18.1,987,528,792,993,184,4.56,219.31,0.9,172.21,172,274,61.68,263,3804,34365,1089,0.97,0.08,0.26,0.34,0.24,-1.48,4.03,-72.7,-7.03,-31.16,1.19,-6.59,-32.82,Standing
16:18.2,993,537,805.5,993,177,4.78,209.22,0.87,172.21,172,269,61.68,263,3804,41190,1358,0.96,0.1,0.26,-0.38,1.83,-1.03,5.45,-71.86,-7.01,-31.18,1.16,-6.51,-32.81,Standing
16:18.3,993,542,813,993,180,4.68,213.52,0.88,172.21,172,271,61.68,263,3804,49095,1629,0.93,0.11,0.25,-1.18,1.58,-1.06,5.66,-72.1,-7.08,-31.23,1.12,-6.57,-32.87,Standing
16:18.4,990,546,819,993,191,4.36,229.57,0.93,172.21,172,274,61.68,263,3804,58635,1903,0.96,0.1,0.3,-1.77,0.61,-0.75,5.14,-70.36,-7.23,-31.41,1.13,-6.74,-32.96,Standing
16:18.6,980,552,828,993,192,4.33,231.05,0.94,172.21,172,278,61.68,263,3804,70383,2181,0.96,0.11,0.27,-1.91,0.89,-0.81,5.45,-71.63,-7.4,-31.54,1.13,-6.89,-33.15,Standing
16:18.7,989,561,841.5,993,184,4.56,219.31,0.9,172.21,172,276,61.68,263,3804,81023,2457,0.94,0.1,0.29,-0.79,1.11,-1.14,5.35,-70.61,-7.43,-31.65,1.08,-6.92,-33.21,Standing
16:18.8,989,567,850.5,993,177,4.78,209.22,0.87,20724.18,184,269,93.72,272,8783,0,0,0.95,0.11,0.28,-1.5,0.99,-0.34,5.47,-70.72,-7.55,-31.78,1.14,-7.02,-33.34,Standing
16:18.9,990,567,850.5,993,182,4.62,216.41,0.89,20724.18,184,270,93.72,272,8783,7364,270,0.95,0.1,0.27,-1.74,0.06,-1.27,5.42,-71.72,-7.69,-32.02,1.08,-7.17,-33.61,Standing
16:19.1,990,568,852,993,192,4.33,231.05,0.94,20724.18,184,273,93.72,272,8783,16357,543,0.96,0.1,0.27,-1.25,0.37,-1.63,5.14,-71.91,-7.78,-32.22,0.97,-7.26,-33.81,Standing
16:19.2,990,577,865.5,993,192,4.33,231.05,0.94,20724.18,184,276,93.72,272,8783,26997,819,0.96,0.12,0.25,-1.69,-0.45,-0.51,6.28,-72.15,-7.92,-32.53,1.01,-7.35,-34.11,Standing
16:19.3,990,585,877.5,993,183,4.59,217.86,0.89,20724.18,184,274,93.72,272,8783,36537,1093,0.95,0.1,0.28,-2.48,-0.66,-0.98,5.4,-71.09,-8.16,-32.86,0.98,-7.62,-34.39,Standing
16:19.4,990,587,880.5,993,178,4.75,210.65,0.87,20724.18,184,269,93.72,272,8783,43362,1362,0.95,0.1,0.29,-1.26,0.07,-1.36,5.24,-70.67,-8.25,-33.1,0.91,-7.71,-34.6,Standing
16:19.6,990,587,880.5,993,187,4.47,223.68,0.91,20724.18,184,271,93.72,272,8783,51267,1633,0.94,0.1,0.27,-1,-0.05,-0.41,5.04,-71.39,-8.3,-33.36,0.96,-7.77,-34.88,Standing
16:19.7,990,587,880.5,993,195,4.25,235.51,0.95,20724.18,184,275,93.72,272,8783,61356,1908,0.96,0.1,0.27,-0.37,0.69,-0.68,4.88,-71.74,-8.28,-33.52,0.97,-7.75,-35.05,Standing
16:19.8,990,596,894,993,185,4.53,220.76,0.9,20724.18,184,274,93.72,272,8783,70896,2182,0.95,0.1,0.26,-0.53,0.31,-0.86,5.4,-71.94,-8.28,-33.73,0.96,-7.73,-35.26,Standing
16:19.9,990,599,898.5,993,178,4.75,210.65,0.87,20724.18,184,269,93.72,272,8783,77721,2451,0.95,0.11,0.27,-1.6,0.71,-0.56,5.63,-71.43,-8.41,-33.89,0.99,-7.85,-35.39,Standing
16:20.1,990,599,898.5,993,183,4.59,217.86,0.89,20723.87,185,268,91.65,271,8399,0,0,0.95,0.12,0.28,-0.76,0.67,-0.74,6.06,-70.53,-8.43,-34.06,1,-7.85,-35.51,Standing
16:20.2,991,605,907.5,993,191,4.36,229.57,0.93,20723.87,185,273,91.65,271,8399,8993,273,0.96,0.11,0.27,-0.99,0.18,-0.62,5.7,-71.52,-8.48,-34.28,1.02,-7.92,-35.77,Standing
16:20.3,991,613,919.5,993,192,4.33,231.05,0.94,20723.87,185,275,91.65,271,8399,19082,548,0.94,0.11,0.27,0.98,0.21,0.59,5.7,-71.22,-8.3,-34.5,1.19,-7.74,-35.97,Standing
16:20.4,990,619,928.5,993,184,4.56,219.31,0.9,20723.87,185,273,91.65,271,8399,28075,821,0.96,0.09,0.24,-0.52,-1.37,1.18,4.7,-73.43,-8.29,-34.92,1.44,-7.77,-36.46,Standing
16:20.6,990,619,928.5,993,177,4.78,209.22,0.87,20723.87,185,267,91.65,271,8399,33828,1088,0.98,0.09,0.28,0.4,1.14,-1.85,4.39,-71.62,-8.17,-35.03,1.3,-7.67,-36.49,Standing
16:20.7,990,621,931.5,993,184,4.56,219.31,0.9,20723.87,185,271,91.65,271,8399,41733,1359,0.95,0.15,0.25,0.79,1.76,-3.18,8,-71.25,-8,-35.06,1,-7.36,-36.51,Standing
16:20.8,981,631,946.5,993,195,4.25,235.51,0.95,20723.87,185,274,91.65,271,8399,51273,1633,0.91,0.1,0.25,-1.98,-0.05,-0.7,5.32,-71.78,-8.18,-35.31,1.01,-7.64,-36.77,Standing
16:20.9,984,639,958.5,993,190,4.38,228.09,0.93,20723.87,185,276,91.65,271,8399,61913,1909,0.94,0.14,0.25,-0.71,0.4,0.85,7.64,-71.69,-8.2,-35.51,1.22,-7.56,-36.96,Standing
16:21.1,984,640,960,993,181,4.65,214.96,0.88,20723.87,185,270,91.65,271,8399,69277,2179,0.92,0.11,0.33,1.7,4.27,-0.63,5.7,-67.64,-7.91,-35.23,1.24,-7.37,-36.53,Standing
16:21.2,0,630,945,993,169,5.05,197.89,0.83,20723.87,185,265,91.65,271,8399,73966,2444,0.94,0.14,0.23,-2.44,-0.61,-1.08,7.53,-72.44,-8.15,-35.55,1.2,-7.52,-37.03,Standing
16:21.3,0,629,943.5,993,176,4.81,207.79,0.86,20724.17,183,264,88.39,270,7811,0,0,0.97,0.14,0.26,-17.82,-6.92,-0.6,7.27,-71.54,-10.27,-36.65,1.23,-9.57,-38.05,Standing
16:21.4,0,626,939,993,180,4.68,213.52,0.88,20724.17,183,266,88.39,270,7811,5220,266,0.83,0.1,0.34,-12.95,-12.06,0.88,6.04,-65.04,-11.82,-38.41,1.44,-11.1,-39.47,Standing
16:21.6,0,621,931.5,993,172,4.95,202.12,0.84,20724.17,183,266,88.39,270,7811,10440,532,0.93,0.09,0.24,-1.82,3.56,3.37,5.01,-72.85,-11.98,-38.21,1.96,-11.3,-39.6,Standing
16:21.7,0,611,916.5,993,164,5.24,190.92,0.8,20724.17,183,260,88.39,270,7811,12504,792,0.96,0,0.27,-7.48,5.69,2.58,-0.31,-72.99,-12.83,-37.76,2.37,-12.33,-39.16,Standing
16:21.8,0,607,910.5,993,164,5.24,190.92,0.8,20724.17,183,256,88.39,270,7811,12504,1048,1.01,-0.01,0.27,-0.05,5.14,2.24,-1.32,-73.22,-12.77,-37.37,2.75,-12.31,-38.8,Standing
16:21.9,0,607,910.5,993,176,4.81,207.79,0.86,20724.17,183,258,88.39,270,7811,13532,1306,0.94,0.04,0.24,-4.83,-1.1,-0.23,1.75,-74.05,-13.3,-37.75,2.82,-12.7,-39.21,Standing
16:22.1,0,597,895.5,993,174,4.88,204.95,0.85,20724.17,183,261,88.39,270,7811,16117,1567,0.96,0.03,0.26,-1.69,1.79,2.18,1.28,-73.21,-13.45,-37.78,3.19,-12.86,-39.2,Standing
16:22.2,0,587,880.5,993,165,5.2,192.31,0.81,20724.17,183,261,88.39,270,7811,18702,1828,0.98,0,0.29,-1.05,2.2,-2.11,-0.66,-71.87,-13.51,-37.76,3.03,-12.99,-39.12,Standing
16:22.3,0,585,877.5,993,161,5.35,186.77,0.79,20724.17,183,258,88.39,270,7811,19730,2086,0.96,0.01,0.3,0.04,1.62,-0.63,0.27,-70.94,-13.43,-37.8,3.05,-12.88,-39.13,Standing
16:22.4,0,584,876,993,171,4.98,200.7,0.84,20724.17,183,261,88.39,270,7811,22315,2347,0.96,0,0.3,-2.72,-2.6,1.47,-0.83,-71.24,-13.7,-38.38,3.33,-13.19,-39.69,Standing
16:22.6,0,578,867,993,177,4.78,209.22,0.87,170.51,170,267,52.97,261,2805,0,0,0.95,0.04,0.26,0.39,3.37,-0.02,1.61,-72.69,-13.59,-38.21,3.43,-12.98,-39.59,Standing
16:22.7,0,568,852,993,172,4.95,202.12,0.84,170.51,170,268,52.97,261,2805,6288,268,0.97,0,0.27,-1.88,-0.48,1,-0.47,-72.66,-13.75,-38.52,3.65,-13.22,-39.88,Standing
16:22.8,0,563,844.5,993,165,5.2,192.31,0.81,170.51,170,262,52.97,261,2805,9396,530,0.95,0.02,0.28,-1.2,2,-0.26,0.43,-71.9,-13.83,-38.52,3.71,-13.26,-39.85,Standing
16:22.9,0,562,843,993,162,5.31,188.15,0.79,170.51,170,260,52.97,261,2805,11460,790,0.97,-0.02,0.29,-0.98,-1.37,0.5,-1.6,-71.99,-13.88,-38.94,3.87,-13.39,-40.26,Standing
16:23.1,0,558,837,993,171,4.98,200.7,0.84,170.51,170,262,52.97,261,2805,14568,1052,0.96,-0.02,0.27,-0.56,1.3,-0.46,-1.56,-72.7,-13.88,-39.02,3.92,-13.39,-40.37,Standing
16:23.2,0,548,822,993,178,4.75,210.65,0.87,170.51,170,268,52.97,261,2805,20856,1320,0.97,0.01,0.29,-1.53,1.55,-2.27,-0.28,-71.95,-14,-39.08,3.73,-13.45,-40.39,Standing
16:23.3,0,539,808.5,993,170,5.02,199.3,0.83,170.51,170,268,52.97,261,2805,27144,1588,0.95,0,0.28,-2.08,-0.96,0.99,-0.57,-71.78,-14.19,-39.45,3.95,-13.65,-40.74,Standing
16:23.4,0,538,807,993,162,5.31,188.15,0.79,170.51,170,262,52.97,261,2805,30252,1850,0.96,-0.01,0.29,-0.26,0.67,-1.02,-1.43,-71.84,-14.15,-39.61,3.92,-13.64,-40.9,Standing
16:23.6,0,537,805.5,993,165,5.2,192.31,0.81,170.51,170,261,52.97,261,2805,32837,2111,0.96,0,0.26,-1.44,-0.08,0.8,-0.3,-73.03,-14.26,-39.87,4.12,-13.7,-41.2,Standing
16:23.7,0,533,799.5,993,177,4.78,209.22,0.87,170.51,170,264,52.97,261,2805,36997,2375,0.98,-0.02,0.27,-1.44,0.72,-0.53,-1.72,-73.2,-14.37,-40.03,4.16,-13.87,-41.36,Standing
16:23.8,0,523,784.5,993,174,4.88,204.95,0.85,169.69,169,273,67.82,264,4598,0,0,0.97,-0.02,0.28,-1.14,0.76,-2.63,-1.52,-72.11,-14.44,-40.18,3.93,-13.93,-41.46,Standing
16:23.9,0,513,769.5,993,170,5.02,199.3,0.83,169.69,169,271,67.82,264,4598,7905,271,0.94,0.02,0.27,-1.78,1.15,-2.26,0.66,-72.29,-14.6,-40.29,3.75,-13.99,-41.57,Standing
16:24.0,0,510,765,993,163,5.28,189.53,0.8,169.69,169,268,67.82,264,4598,14193,539,0.94,0,0.29,-1.74,-0.68,0.65,-0.65,-71.36,-14.74,-40.62,3.92,-14.18,-41.85,Standing
16:24.2,0,510,765,993,169,5.05,197.89,0.83,169.69,169,265,67.82,264,4598,18882,804,0.97,-0.01,0.29,-0.93,0.95,-0.55,-1.29,-71.84,-14.79,-40.75,3.95,-14.25,-42,Standing
16:24.3,0,507,760.5,993,179,4.72,212.09,0.87,169.69,169,268,67.82,264,4598,25170,1072,0.96,0,0.29,-1.31,-0.41,-0.38,-0.84,-71.65,-14.88,-41.06,4,-14.32,-42.28,Standing
16:24.4,0,498,747,993,174,4.88,204.95,0.85,169.69,169,273,67.82,264,4598,34163,1345,0.96,-0.01,0.29,-0.16,0.63,-1.73,-1.04,-71.72,-14.83,-41.23,3.89,-14.28,-42.45,Standing
16:24.5,0,488,732,993,166,5.16,193.7,0.81,169.69,169,270,67.82,264,4598,41527,1615,0.95,0,0.28,-0.08,0.6,-0.53,-0.86,-71.89,-14.77,-41.4,3.92,-14.22,-42.62,Standing
16:24.7,0,486,729,993,165,5.2,192.31,0.81,169.69,169,264,67.82,264,4598,45687,1879,0.96,0,0.28,1.35,-0.44,0.19,-0.66,-72.34,-14.54,-41.71,4.04,-13.98,-42.93,Standing
16:24.8,0,476,714,993,175,4.85,206.37,0.86,169.69,169,265,67.82,264,4598,50376,2144,0.96,0.01,0.27,1.31,-0.08,-0.45,-0.03,-72.73,-14.31,-41.96,4.08,-13.73,-43.19,Standing
16:43.6,500,500,750,500,178,4.75,210.65,0.87,0,0,270,0,0,0,13117,537,0.96,-0.01,0.25,0.01,-1.47,0.23,-0.99,-73.87,-0.01,-0.92,0.16,-0.05,-3.84,Left Fall while Standing
16:43.7,508,504,756,508,173,4.91,203.53,0.85,0,0,270,0,0,0,20481,807,0.97,-0.01,0.25,0.4,-0.69,-0.26,-1.22,-74.07,0.11,-1.25,0.23,0.06,-4.16,Left Fall while Standing
16:43.8,527,511,766.5,527,169,5.05,197.89,0.83,0,0,269,0,0,0,27306,1076,0.98,0.01,0.23,3.01,4.21,-3.08,0.17,-75.27,0.55,-0.98,-0.05,0.53,-3.95,Left Fall while Standing
16:43.9,542,519,778.5,542,165,5.2,192.31,0.81,0,0,268,0,0,0,33594,1344,0.98,0.02,0.26,-0.79,0.05,-0.66,0.75,-73.67,0.52,-1.22,-0.04,0.53,-4.12,Left Fall while Standing
16:44.1,555,526,789,555,162,5.31,188.15,0.79,0,0,266,0,0,0,38814,1610,1,0,0.27,4.2,0.79,-1.5,-0.61,-73.5,1.1,-1.36,-0.13,1.03,-4.25,Left Fall while Standing
16:44.2,552,530,795,555,159,5.43,184.03,0.78,0,0,262,0,0,0,41922,1872,1.03,0.01,0.24,5.18,0.53,-6.9,0.07,-75.58,1.8,-1.54,-0.87,1.73,-4.5,Left Fall while Standing
16:44.3,552,533,799.5,555,160,5.39,185.4,0.78,0,0,262,0,0,0,45030,2134,0.97,0.08,0.19,1.06,0.03,-4.05,4.05,-76.33,1.99,-1.78,-1.26,2.08,-4.76,Left Fall while Standing
16:44.4,542,534,801,555,162,5.31,188.15,0.79,0,0,262,0,0,0,48138,2396,0.96,0.06,0.24,0.5,2.75,-3.52,3.16,-73.9,2.12,-1.69,-1.6,2.17,-4.58,Left Fall while Standing
16:44.5,524,533,799.5,555,167,5.13,195.09,0.82,166.4,166,264,72.31,266,5228,0,0,0.95,0.08,0.27,2.42,6.22,-5.43,4,-72.04,2.49,-1.17,-2.17,2.55,-4.01,Left Fall while Standing
16:44.7,508,531,796.5,555,173,4.91,203.53,0.85,166.4,166,266,72.31,266,5228,5220,266,0.93,0.12,0.27,-2.53,0.44,-3.43,6.55,-70.82,2.25,-1.36,-2.49,2.42,-4.14,Left Fall while Standing
16:44.8,500,528,792,555,174,4.88,204.95,0.85,166.4,166,271,72.31,266,5228,13125,537,0.94,0.14,0.29,-1.05,0.16,-2.88,7.48,-69.7,2.19,-1.59,-2.75,2.4,-4.32,Left Fall while Standing
16:44.9,528,528,792,555,168,5.09,196.49,0.82,166.4,166,270,72.31,266,5228,20489,807,0.95,0.13,0.27,-1.31,-0.4,-2.37,7.21,-70.63,2.1,-1.89,-2.94,2.3,-4.64,Left Fall while Standing
16:45.0,556,530,795,556,162,5.31,188.15,0.79,166.4,166,265,72.31,266,5228,25178,1072,0.93,0.12,0.31,-0.22,3.31,-2.99,6.62,-68.79,2.14,-1.73,-3.22,2.32,-4.41,Left Fall while Standing
16:45.2,548,531,796.5,556,159,5.43,184.03,0.78,166.4,166,261,72.31,266,5228,27763,1333,0.98,0.14,0.33,7.98,5.72,-6.91,7.12,-68.18,3.19,-1.27,-3.97,3.35,-3.94,Left Fall while Standing
16:45.3,524,531,796.5,556,168,5.09,196.49,0.82,166.4,166,263,72.31,266,5228,31396,1596,0.91,0.18,0.27,6.35,2.37,-11.16,10,-68.75,4.04,-1.22,-5.25,4.28,-3.92,Left Fall while Standing
16:45.4,496,528,792,556,190,4.38,228.09,0.93,166.4,166,267,72.31,266,5228,37149,1863,0.91,0.23,0.33,5.83,-3.34,-10.82,12.87,-64.51,4.83,-1.88,-6.49,5.15,-4.39,Left Fall while Standing
16:45.5,509,527,790.5,556,175,4.85,206.37,0.86,166.4,166,269,72.31,266,5228,43974,2132,0.9,0.29,0.25,9.07,5.63,-13.22,16.92,-65.07,6.03,-1.43,-8.03,6.46,-3.98,Left Fall while Standing
16:45.7,543,528,792,556,165,5.2,192.31,0.81,166.4,166,265,72.31,266,5228,48663,2397,0.83,0.41,0.24,6.88,6.82,-12.29,24.73,-58.55,6.95,-0.84,-9.46,7.66,-3.14,Left Fall while Standing
16:45.8,552,529,793.5,556,158,5.47,182.66,0.77,148.85,169,263,72.31,266,5228,0,0,0.81,0.41,0.29,4.92,-1.06,-7.95,24.54,-56.88,7.62,-1.21,-10.34,8.3,-3.44,Left Fall while Standing
16:45.9,538,530,795,556,162,5.31,188.15,0.79,148.85,169,260,72.31,266,5228,2064,260,0.85,0.45,0.29,6.6,3.92,-8.9,25.97,-56.45,8.51,-0.97,-11.34,9.21,-3.19,Left Fall while Standing
16:46.0,508,529,793.5,556,170,5.02,199.3,0.83,148.85,169,262,72.31,266,5228,5172,522,0.79,0.5,0.26,1.59,3.91,-8.92,30.23,-52.98,8.78,-0.74,-12.35,9.63,-2.83,Left Fall while Standing
16:46.1,497,527,790.5,556,177,4.78,209.22,0.87,148.85,169,266,72.31,266,5228,10392,788,0.79,0.5,0.26,1.24,2.76,-5.44,30.68,-52.79,9,-0.64,-12.93,9.87,-2.73,Left Fall while Standing
16:46.3,518,527,790.5,556,171,4.98,200.7,0.84,148.85,169,266,72.31,266,5228,15612,1054,0.77,0.53,0.31,1.36,4.56,-5.33,31.89,-49.92,9.24,-0.33,-13.49,10.14,-2.31,Left Fall while Standing
16:46.4,551,528,792,556,165,5.2,192.31,0.81,148.85,169,261,72.31,266,5228,18197,1315,0.75,0.54,0.31,3.93,2.14,-4.27,33.17,-48.79,9.8,-0.31,-13.92,10.73,-2.25,Left Fall while Standing
16:46.5,549,529,793.5,556,163,5.28,189.53,0.8,148.85,169,259,72.31,266,5228,19742,1574,0.77,0.57,0.27,2.76,1.29,-5.68,34.05,-49.32,10.2,-0.4,-14.52,11.16,-2.35,Left Fall while Standing
16:46.6,511,528,792,556,173,4.91,203.53,0.85,148.85,169,263,72.31,266,5228,23375,1837,0.73,0.6,0.26,5.18,2.3,-5.08,37.14,-46.52,10.92,-0.36,-15.06,11.96,-2.21,Left Fall while Standing
16:46.8,494,527,790.5,556,179,4.72,212.09,0.87,148.85,169,265,72.31,266,5228,28064,2102,0.72,0.6,0.24,3.49,-2.07,-3.04,37.75,-46.38,11.42,-0.87,-15.34,12.47,-2.69,Left Fall while Standing
16:46.9,525,527,790.5,556,172,4.95,202.12,0.84,148.85,169,266,72.31,266,5228,33284,2368,0.75,0.62,0.22,1.58,3.5,-5.09,37.46,-47.46,11.69,-0.68,-15.87,12.72,-2.55,Left Fall while Standing
16:47.0,553,527,790.5,556,164,5.24,190.92,0.8,169.69,169,261,59.88,262,3585,0,0,0.74,0.64,0.22,2.47,2.92,-6.5,38.88,-46.08,12.06,-0.57,-16.58,13.14,-2.39,Left Fall while Standing
16:47.1,546,528,792,556,162,5.31,188.15,0.79,169.69,169,259,59.88,262,3585,1545,259,0.7,0.68,0.23,1.75,-1.2,-6.24,42.21,-42.58,12.35,-0.96,-17.25,13.54,-2.63,Left Fall while Standing
16:47.3,516,528,792,556,172,4.95,202.12,0.84,169.69,169,261,59.88,262,3585,4130,520,0.65,0.7,0.23,0.76,0.63,-6.29,44.66,-40.01,12.51,-1.13,-17.94,13.8,-2.69,Left Fall while Standing
16:47.4,492,527,790.5,556,179,4.72,212.09,0.87,169.69,169,266,59.88,262,3585,9350,786,0.62,0.7,0.24,2.08,0.09,-3.81,45.9,-38.42,12.84,-1.37,-18.31,14.16,-2.85,Left Fall while Standing
16:47.5,510,526,789,556,175,4.85,206.37,0.86,169.69,169,269,59.88,262,3585,16175,1055,0.64,0.71,0.22,2.72,-2.02,-2.29,45.44,-39.53,13.25,-1.87,-18.5,14.53,-3.37,Left Fall while Standing
16:47.6,549,527,790.5,556,167,5.13,195.09,0.82,169.69,169,265,59.88,262,3585,20864,1320,0.62,0.71,0.18,1.78,-2.79,-3.6,47.25,-38.59,13.54,-2.47,-18.85,14.89,-3.91,Left Fall while Standing
16:47.8,544,527,790.5,556,164,5.24,190.92,0.8,169.69,169,260,59.88,262,3585,22928,1580,0.63,0.74,0.15,0.44,-2.06,-2.85,48.11,-38.39,13.66,-2.97,-19.1,15.04,-4.39,Left Fall while Standing
16:47.9,510,527,790.5,556,173,4.91,203.53,0.85,169.69,169,262,59.88,262,3585,26036,1842,0.63,0.74,0.16,0.53,-2.26,-1.89,48.19,-38.14,13.8,-3.5,-19.24,15.17,-4.88,Left Fall while Standing
16:48.0,489,526,789,556,179,4.72,212.09,0.87,169.69,169,266,59.88,262,3585,31256,2108,0.62,0.75,0.12,0.87,-2.93,-1.72,48.98,-37.91,13.97,-4.11,-19.36,15.37,-5.46,Left Fall while Standing
16:48.1,527,526,789,556,171,4.98,200.7,0.84,169.69,169,265,59.88,262,3585,35945,2373,0.63,0.75,0.12,0.37,-1.71,-2.89,48.78,-38.15,14.09,-4.57,-19.62,15.48,-5.92,Left Fall while Standing
16:48.3,554,526,789,556,163,5.28,189.53,0.8,170.6,170,259,61.23,263,3748,0,0,0.61,0.76,0.14,1.28,-0.63,-4.12,50.21,-36.43,14.32,-4.9,-20.03,15.75,-6.16,Left Fall while Standing
16:48.4,539,527,790.5,556,162,5.31,188.15,0.79,170.6,170,258,61.23,263,3748,1028,258,0.6,0.77,0.12,2.72,-2.19,-1.39,50.87,-36.09,14.72,-5.42,-20.1,16.17,-6.64,Left Fall while Standing
16:48.5,507,526,789,556,172,4.95,202.12,0.84,170.6,170,260,61.23,263,3748,3092,518,0.57,0.78,0.02,3.76,0.51,-2.82,53.02,-34.8,15.26,-5.6,-20.36,16.77,-6.77,Left Fall while Standing
16:48.6,488,525,787.5,556,179,4.72,212.09,0.87,170.6,170,263,61.23,263,3748,6725,781,0.57,0.77,0.11,-5.33,2.8,1.15,52.44,-34.59,14.67,-5.5,-20.12,16.18,-6.67,Left Fall while Standing
16:48.8,516,525,787.5,556,172,4.95,202.12,0.84,170.6,170,264,61.23,263,3748,10885,1045,0.64,0.76,0.14,-0.35,0.96,3.1,48.78,-37.92,14.7,-5.63,-19.63,16.06,-6.92,Left Fall while Standing
16:48.9,551,526,789,556,165,5.2,192.31,0.81,170.6,170,260,61.23,263,3748,12949,1305,0.66,0.75,0.14,-0.51,-4.75,4.16,47.19,-39.55,14.7,-6.47,-19.02,16,-7.79,Left Fall while Standing
16:49.0,539,526,789,556,163,5.28,189.53,0.8,170.6,170,258,61.23,263,3748,13977,1563,0.66,0.75,0.1,-0.75,-0.66,-1.17,47.86,-39.44,14.68,-6.8,-19.07,16.01,-8.11,Left Fall while Standing
16:49.1,499,525,787.5,556,174,4.88,204.95,0.85,170.6,170,261,61.23,263,3748,16562,1824,0.61,0.74,0.06,-2.68,-3.21,2.56,49.74,-37.85,14.42,-7.45,-18.65,15.83,-8.67,Left Fall while Standing
16:49.2,489,525,787.5,556,178,4.75,210.65,0.87,170.6,170,265,61.23,263,3748,21251,2089,0.62,0.73,0.07,-3.4,-3.31,5.78,49.03,-38.48,14.07,-8.11,-17.84,15.47,-9.32,Left Fall while Standing
16:49.4,533,525,787.5,556,170,5.02,199.3,0.83,170.6,170,264,61.23,263,3748,25411,2353,0.66,0.71,0.1,-2.85,0.91,8.31,46.06,-41.23,13.78,-8.24,-16.7,15.07,-9.56,Left Fall while Standing
16:49.5,553,525,787.5,556,163,5.28,189.53,0.8,169.9,169,260,52.41,261,2746,0,0,0.72,0.67,0.12,-4.65,2.55,5.98,41.75,-45.2,13.28,-8.18,-15.87,14.42,-9.66,Left Fall while Standing
16:49.6,538,525,787.5,556,164,5.24,190.92,0.8,169.9,169,261,52.41,261,2746,2585,261,0.74,0.65,0.14,-2.08,3.18,2.55,40.06,-46.63,13.09,-8.03,-15.45,14.17,-9.57,Left Fall while Standing
16:49.7,503,525,787.5,556,174,4.88,204.95,0.85,169.9,169,263,52.41,261,2746,6218,524,0.75,0.65,0.13,-2.3,1.61,0.56,40.1,-46.83,12.87,-8.08,-15.29,13.96,-9.63,Left Fall while Standing
16:49.9,486,524,786,556,180,4.68,213.52,0.88,169.9,169,266,52.41,261,2746,11438,790,0.75,0.64,0.15,-6.31,-1.92,3.7,39.26,-47.19,12.16,-8.56,-14.73,13.24,-10.11,Left Fall while Standing
16:50.0,523,524,786,556,173,4.91,203.53,0.85,169.9,169,266,52.41,261,2746,16658,1056,0.73,0.62,0.16,-7,-2.5,5.66,39.08,-47.29,11.36,-9.13,-13.92,12.46,-10.65,Left Fall while Standing
16:50.1,553,525,787.5,556,165,5.2,192.31,0.81,169.9,169,261,52.41,261,2746,19243,1317,0.75,0.6,0.17,-3.02,2.02,4.25,37.21,-48.81,11.05,-9.12,-13.29,12.1,-10.71,Left Fall while Standing
16:50.2,529,525,787.5,556,166,5.16,193.7,0.81,169.9,169,260,52.41,261,2746,21307,1577,0.77,0.57,0.16,-2.08,4.78,4.54,35.68,-50.61,10.86,-8.78,-12.63,11.85,-10.45,Left Fall while Standing
16:50.4,490,524,786,556,178,4.75,210.65,0.87,169.9,169,264,52.41,261,2746,25467,1841,0.8,0.55,0.18,-5.81,2.84,8.51,33.19,-52.53,10.2,-8.67,-11.47,11.12,-10.43,Left Fall while Standing
16:50.5,491,524,786,556,178,4.75,210.65,0.87,169.9,169,268,52.41,261,2746,31755,2109,0.82,0.52,0.17,-6.75,0.37,9.26,31.13,-54.92,9.44,-8.88,-10.22,10.3,-10.72,Left Fall while Standing
16:50.6,538,524,786,556,171,4.98,200.7,0.84,169.9,169,269,52.41,261,2746,38580,2378,0.82,0.45,0.21,-14.61,0.26,13.4,27.39,-57.35,7.71,-9.09,-8.48,8.5,-11.02,Left Fall while Standing
16:50.7,553,524,786,556,165,5.2,192.31,0.81,171.5,171,264,65.38,264,4273,0,0,0.85,0.39,0.28,-10.23,1.27,10.5,22.75,-59.22,6.51,-9.18,-7.08,7.16,-11.18,Left Fall while Standing
16:50.9,533,524,786,556,167,5.13,195.09,0.82,171.5,171,267,65.38,264,4273,5753,267,0.87,0.34,0.27,-11.36,0.92,11.5,20.22,-61.54,5.17,-9.32,-5.55,5.77,-11.4,Left Fall while Standing
16:51.0,494,524,786,556,177,4.78,209.22,0.87,171.5,171,266,65.38,264,4273,10973,533,0.91,0.26,0.31,-12.31,-7.15,15.16,14.83,-64.27,3.71,-10.45,-3.58,4.16,-12.6,Left Fall while Standing
16:51.1,487,523,784.5,556,180,4.68,213.52,0.88,171.5,171,271,65.38,264,4273,18878,804,0.95,0.21,0.27,-5.14,-3.21,8.63,11.55,-68.55,3.15,-11.1,-2.41,3.48,-13.39,Left Fall while Standing
16:51.2,531,523,784.5,556,173,4.91,203.53,0.85,171.5,171,271,65.38,264,4273,26783,1075,0.93,0.14,0.21,-13.08,-7.93,14.93,7.82,-73.07,1.58,-12.34,-0.44,1.83,-14.77,Left Fall while Standing
16:51.4,554,524,786,556,165,5.2,192.31,0.81,171.5,171,266,65.38,264,4273,32003,1341,0.98,0.08,0.22,-11.79,-5.42,13.96,3.78,-74.95,0.19,-13.26,1.39,0.33,-15.73,Left Fall while Standing
16:51.5,524,524,786,556,169,5.05,197.89,0.83,171.5,171,265,65.38,264,4273,36692,1606,0.9,0.01,0.3,-7.65,0.23,10.85,-0.11,-70.3,-0.7,-13.48,2.84,-0.67,-15.75,Left Fall while Standing
16:51.6,481,523,784.5,556,180,4.68,213.52,0.88,171.5,171,269,65.38,264,4273,43517,1875,1.01,-0.07,0.18,-8.64,-3.85,9.45,-4.51,-77.43,-1.7,-14.2,4.11,-1.81,-16.73,Left Fall while Standing
16:51.7,498,523,784.5,556,178,4.75,210.65,0.87,171.5,171,273,65.38,264,4273,52510,2148,0.98,-0.1,0.22,-2.32,0.61,3.63,-6.12,-74.72,-1.92,-14.38,4.67,-2.09,-16.79,Left Fall while Standing
16:51.9,550,523,784.5,556,171,4.98,200.7,0.84,171.5,171,269,65.38,264,4273,59335,2417,1.08,-0.12,0.16,-0.65,-3.6,3.14,-6.72,-78.07,-1.93,-15.08,5.16,-2.12,-17.6,Left Fall while Standing
16:52.0,546,524,786,556,165,5.2,192.31,0.81,172.59,172,264,79.68,268,6348,0,0,1.01,-0.11,0.19,6.8,0.37,-2.03,-6.7,-76.31,-1.03,-15.28,5,-1.26,-17.72,Left Fall while Standing
16:52.1,514,523,784.5,556,171,4.98,200.7,0.84,172.59,172,266,79.68,268,6348,5220,266,0.95,-0.08,0.15,-1.05,-1.45,-0.6,-5.6,-78.08,-1.09,-15.71,5.03,-1.27,-18.2,Left Fall while Standing
16:52.2,474,523,784.5,556,182,4.62,216.41,0.89,172.59,172,269,79.68,268,6348,12045,535,1,-0.1,0.15,-0.81,-0.44,-0.57,-6.13,-78.31,-1.12,-16.01,5.06,-1.32,-18.5,Left Fall while Standing
16:52.4,507,523,784.5,556,177,4.78,209.22,0.87,172.59,172,273,79.68,268,6348,21038,808,1,-0.09,0.13,-0.78,-3.08,-0.98,-5.44,-79.35,-1.15,-16.65,5.03,-1.32,-19.15,Left Fall while Standing
16:52.5,559,523,784.5,559,169,5.05,197.89,0.83,172.59,172,270,79.68,268,6348,28402,1078,1.01,-0.08,0.13,-0.34,0.51,-1.53,-4.99,-79.62,-1.12,-16.83,4.94,-1.28,-19.34,Left Fall while Standing
16:52.6,539,523,784.5,559,167,5.13,195.09,0.82,172.59,172,267,79.68,268,6348,34155,1345,0.99,-0.08,0.14,-0.44,-0.4,-0.89,-5.21,-78.96,-1.11,-17.13,4.93,-1.27,-19.6,Left Fall while Standing
16:52.7,484,523,784.5,559,178,4.75,210.65,0.87,172.59,172,270,79.68,268,6348,41519,1615,0.99,-0.08,0.14,0.54,0.91,-0.97,-5.19,-79.38,-0.97,-17.27,4.9,-1.14,-19.75,Left Fall while Standing
16:52.9,478,522,783,559,182,4.62,216.41,0.89,172.59,172,274,79.68,268,6348,51059,1889,1,-0.07,0.11,-0.76,0.9,-0.83,-4.61,-81.11,-1,-17.4,4.9,-1.14,-19.95,Left Fall while Standing
16:53.0,546,522,783,559,173,4.91,203.53,0.85,172.59,172,272,79.68,268,6348,59507,2161,1.01,-0.07,0.12,-0.61,1.76,0.17,-4.53,-80.34,-1,-17.43,5.02,-1.14,-19.95,Left Fall while Standing
16:56.2,1002,1002,1503,1002,178,4.75,210.65,0.87,0,0,269,0,0,0,13650,538,0.98,-0.2,0.23,-4.94,0.26,5.27,-11.86,-71,-0.71,-0.3,1.67,-1.16,-3.13,Right Fall while Standing
16:56.3,1002,1002,1503,1002,185,4.53,220.76,0.9,0,0,270,0,0,0,21014,808,0.97,-0.2,0.25,-2.4,0.35,0.85,-11.76,-70.18,-0.94,-0.51,1.87,-1.37,-3.29,Right Fall while Standing
16:56.4,1002,1002,1503,1002,193,4.3,232.53,0.94,0,0,273,0,0,0,30007,1081,1.05,-0.2,0.15,-3.45,-0.6,3.34,-11.1,-75.07,-1.3,-0.83,2.38,-1.69,-3.8,Right Fall while Standing
16:56.6,1002,1002,1503,1002,194,4.27,234.02,0.95,0,0,278,0,0,0,41755,1359,0.95,-0.23,0.21,-4.6,-2.12,5.28,-14,-70.08,-1.79,-1.34,3.13,-2.28,-4.09,Right Fall while Standing
16:56.7,1002,1002,1503,1002,187,4.47,223.68,0.91,0,0,278,0,0,0,53503,1637,0.93,-0.25,0.22,-0.8,1.64,1.02,-15.27,-68.53,-1.82,-1.38,3.35,-2.36,-4.07,Right Fall while Standing
16:56.8,1002,1002,1503,1002,182,4.62,216.41,0.89,0,0,275,0,0,0,63592,1912,0.93,-0.26,0.22,1.23,3.79,6.17,-15.75,-68.42,-1.6,-1.16,4.21,-2.17,-3.85,Right Fall while Standing
16:56.9,1002,1002,1503,1002,179,4.72,212.09,0.87,0,0,272,0,0,0,72040,2184,0.93,-0.31,0.2,-5.37,-1.5,4.98,-18.79,-66.67,-2.19,-1.59,4.91,-2.85,-4.19,Right Fall while Standing
16:57.1,1002,1002,1503,1002,184,4.56,219.31,0.9,0,0,271,0,0,0,79945,2455,0.94,-0.31,0.25,-3.47,0.47,3.19,-18.23,-65.33,-2.55,-1.78,5.41,-3.18,-4.32,Right Fall while Standing
16:57.2,1002,1002,1503,1002,192,4.33,231.05,0.94,20724.03,185,274,94.59,272,8947,0,0,0.94,-0.31,0.19,-0.15,0.29,3.77,-18.65,-67.07,-2.5,-1.99,5.97,-3.15,-4.59,Right Fall while Standing
16:57.3,1002,1002,1503,1002,195,4.25,235.51,0.95,20724.03,185,278,94.59,272,8947,11748,278,0.93,-0.35,0.18,-2.26,-1.14,3.67,-20.82,-65.62,-2.71,-2.38,6.53,-3.44,-4.91,Right Fall while Standing
16:57.4,1002,1002,1503,1002,185,4.53,220.76,0.9,20724.03,185,274,94.59,272,8947,21288,552,0.92,-0.38,0.2,-4.21,-0.44,4.5,-22.3,-63.5,-3.17,-2.69,7.2,-3.94,-5.12,Right Fall while Standing
16:57.6,1002,1002,1503,1002,179,4.72,212.09,0.87,20724.03,185,269,94.59,272,8947,28113,821,0.85,-0.39,0.22,-1.35,-2.68,6.79,-24.37,-60.76,-3.27,-3.28,8.15,-4.11,-5.58,Right Fall while Standing
16:57.7,1001,1001,1501.5,1002,190,4.38,228.09,0.93,20724.03,185,273,94.59,272,8947,37106,1094,0.9,-0.42,0.18,-2.52,-2.01,6.34,-25.08,-61.7,-3.52,-3.78,9.04,-4.38,-6.1,Right Fall while Standing
16:57.8,1002,1001,1501.5,1002,193,4.3,232.53,0.94,20724.03,185,276,94.59,272,8947,47746,1370,0.89,-0.46,0.17,-2.53,-1.81,5.52,-27.22,-59.73,-3.76,-4.26,9.83,-4.7,-6.48,Right Fall while Standing
16:57.9,1002,1001,1501.5,1002,183,4.59,217.86,0.89,20724.03,185,272,94.59,272,8947,56194,1642,0.89,-0.48,0.15,-4.82,-3.47,5.59,-28.38,-59.2,-4.3,-4.95,10.64,-5.27,-7.12,Right Fall while Standing
16:58.1,1002,1001,1501.5,1002,181,4.65,214.96,0.88,20724.03,185,268,94.59,272,8947,62482,1910,0.81,-0.51,0.17,-4.5,-4.56,5.31,-32.1,-54.94,-4.79,-5.77,11.4,-5.89,-7.73,Right Fall while Standing
16:58.2,1002,1001,1501.5,1002,194,4.27,234.02,0.95,20724.03,185,272,94.59,272,8947,70930,2182,0.9,-0.54,0.07,-5.33,-2.37,5.9,-31.36,-57.32,-5.4,-6.32,12.24,-6.43,-8.36,Right Fall while Standing
16:58.3,1002,1001,1501.5,1002,190,4.38,228.09,0.93,20724.03,185,273,94.59,272,8947,79923,2455,0.85,-0.56,0.1,-2.15,-1.93,5.5,-33.5,-54.91,-5.6,-6.81,13.03,-6.71,-8.74,Right Fall while Standing
16:58.4,1002,1001,1501.5,1002,179,4.72,212.09,0.87,20724.04,186,267,92.56,272,8566,0,0,0.84,-0.58,0.06,-4.36,-2.46,5.34,-35.2,-53.61,-6.07,-7.37,13.79,-7.23,-9.21,Right Fall while Standing
16:58.6,1002,1001,1501.5,1002,182,4.62,216.41,0.89,20724.04,186,267,92.56,272,8566,5753,267,0.83,-0.61,0.06,-4.92,-1.05,2.97,-36.84,-51.94,-6.62,-7.75,14.27,-7.83,-9.52,Right Fall while Standing
16:58.7,1002,1001,1501.5,1002,194,4.27,234.02,0.95,20724.04,186,272,92.56,272,8566,14201,539,0.8,-0.62,0.06,-2.67,-0.32,3.87,-38.41,-50.4,-6.88,-8.04,14.85,-8.14,-9.73,Right Fall while Standing
16:58.8,1001,1001,1501.5,1002,189,4.41,226.62,0.92,20724.04,186,273,92.56,272,8566,23194,812,0.82,-0.63,0.05,-1.89,-0.94,1.01,-38.18,-50.66,-7.05,-8.41,15.07,-8.29,-10.1,Right Fall while Standing
16:58.9,1002,1001,1501.5,1002,179,4.72,212.09,0.87,20724.04,186,266,92.56,272,8566,28414,1078,0.79,-0.63,0.03,-2.2,0.31,1.77,-38.95,-50,-7.25,-8.62,15.4,-8.52,-10.27,Right Fall while Standing
16:59.1,1001,1001,1501.5,1002,186,4.5,222.22,0.91,20724.04,186,269,92.56,272,8566,35239,1347,0.81,-0.63,0.03,-2.01,-0.9,2.5,-38.48,-50.47,-7.43,-8.98,15.81,-8.68,-10.64,Right Fall while Standing
16:59.2,1002,1001,1501.5,1002,196,4.22,237,0.96,20724.04,186,274,92.56,272,8566,44779,1621,0.8,-0.65,0.01,-1.36,-2.05,3.88,-39.66,-49.34,-7.53,-9.49,16.4,-8.82,-11.09,Right Fall while Standing
16:59.3,1002,1001,1501.5,1002,185,4.53,220.76,0.9,20724.04,186,271,92.56,272,8566,52684,1892,0.79,-0.67,0.01,-1.66,-0.8,3.04,-40.7,-48.3,-7.67,-9.85,16.88,-8.99,-11.38,Right Fall while Standing
16:59.4,1002,1001,1501.5,1002,179,4.72,212.09,0.87,20724.04,186,271,92.56,272,8566,60589,2163,0.78,-0.67,0,-0.43,-0.16,1.92,-41.22,-47.78,-7.66,-10.12,17.22,-9,-11.62,Right Fall while Standing
16:59.6,1002,1001,1501.5,1002,193,4.3,232.53,0.94,20724.04,186,270,92.56,272,8566,67953,2433,0.77,-0.68,0,0.3,-0.62,1.22,-41.87,-47.13,-7.55,-10.45,17.47,-8.92,-11.92,Right Fall while Standing
16:59.7,1002,1001,1501.5,1002,190,4.38,228.09,0.93,20723.89,187,273,87.72,270,7693,0,0,0.75,-0.69,0.01,-1.01,-0.69,1.7,-43.19,-45.81,-7.6,-10.79,17.78,-9.03,-12.19,Right Fall while Standing
16:59.8,1001,1001,1501.5,1002,181,4.65,214.96,0.88,20723.89,187,268,87.72,270,7693,6288,268,0.76,-0.69,0,-0.91,-0.25,1.98,-43.06,-45.94,-7.65,-11.07,18.13,-9.06,-12.46,Right Fall while Standing
16:59.9,1002,1001,1501.5,1002,182,4.62,216.41,0.89,20723.89,187,265,87.72,270,7693,10977,533,0.76,-0.71,-0.01,-0.76,0.11,1.4,-43.66,-45.34,-7.67,-11.31,18.41,-9.11,-12.67,Right Fall while Standing
17:00.1,1002,1001,1501.5,1002,195,4.25,235.51,0.95,20723.89,187,271,87.72,270,7693,18882,804,0.75,-0.71,-0.01,-1.22,-0.88,1.92,-44,-44.99,-7.76,-11.67,18.75,-9.21,-13,Right Fall while Standing
17:00.2,1002,1001,1501.5,1002,187,4.47,223.68,0.91,20723.89,187,271,87.72,270,7693,26787,1075,0.72,-0.72,0,-0.83,-0.79,2.02,-45.45,-43.55,-7.79,-12.02,19.1,-9.3,-13.28,Right Fall while Standing
17:00.3,1002,1001,1501.5,1002,178,4.75,210.65,0.87,20723.89,187,268,87.72,270,7693,33075,1343,0.72,-0.72,-0.01,-0.75,-1.25,3.26,-45.61,-43.39,-7.81,-12.43,19.61,-9.33,-13.67,Right Fall while Standing
17:00.4,1002,1001,1501.5,1002,191,4.36,229.57,0.93,20723.89,187,268,87.72,270,7693,39363,1611,0.72,-0.75,-0.01,-0.48,-1.05,2.47,-46.6,-42.39,-7.8,-12.82,20.03,-9.36,-14,Right Fall while Standing
17:00.6,1002,1001,1501.5,1002,191,4.36,229.57,0.93,20723.89,187,272,87.72,270,7693,47811,1883,0.7,-0.75,-0.02,-0.26,0.66,2.05,-47.4,-41.58,-7.77,-12.98,20.39,-9.35,-14.13,Right Fall while Standing
17:00.7,1002,1001,1501.5,1002,180,4.68,213.52,0.88,20723.89,187,265,87.72,270,7693,52500,2148,0.7,-0.76,-0.02,-0.51,-0.81,1.65,-47.89,-41.09,-7.76,-13.34,20.69,-9.37,-14.45,Right Fall while Standing
17:00.8,1001,1001,1501.5,1002,185,4.53,220.76,0.9,20723.89,187,266,87.72,270,7693,57720,2414,0.69,-0.76,-0.02,-0.61,-0.34,1.5,-48.41,-40.56,-7.77,-13.63,20.98,-9.39,-14.71,Right Fall while Standing
17:00.9,1002,1001,1501.5,1002,196,4.22,237,0.96,20724.04,186,272,81.34,268,6615,0,0,0.68,-0.77,-0.03,-0.67,-0.17,1.99,-49.06,-39.88,-7.78,-13.9,21.33,-9.43,-14.94,Right Fall while Standing
17:01.1,1002,1001,1501.5,1002,186,4.5,222.22,0.91,20724.04,186,269,81.34,268,6615,6825,269,0.68,-0.78,-0.04,-0.53,-0.8,2.72,-49.5,-39.43,-7.78,-14.26,21.77,-9.45,-15.26,Right Fall while Standing
17:01.2,1002,1001,1501.5,1002,178,4.75,210.65,0.87,20724.04,186,264,81.34,268,6615,10985,533,0.68,-0.79,-0.04,-0.14,-0.5,2.66,-49.93,-39,-7.72,-14.57,22.21,-9.41,-15.55,Right Fall while Standing
17:01.3,1002,1001,1501.5,1002,190,4.38,228.09,0.93,20724.04,186,270,81.34,268,6615,18349,803,0.66,-0.8,-0.03,-0.03,-0.88,2.77,-50.95,-37.99,-7.66,-14.93,22.65,-9.39,-15.86,Right Fall while Standing
17:01.4,1002,1001,1501.5,1002,193,4.3,232.53,0.94,20724.04,186,275,81.34,268,6615,28438,1078,0.64,-0.81,-0.04,-0.24,-0.46,1.98,-52.2,-36.71,-7.62,-15.24,23,-9.4,-16.1,Right Fall while Standing
17:01.6,1002,1001,1501.5,1002,183,4.59,217.86,0.89,20724.04,186,271,81.34,268,6615,36343,1349,0.63,-0.81,-0.02,-0.46,0.25,1.85,-52.64,-36.34,-7.6,-15.46,23.33,-9.41,-16.3,Right Fall while Standing
17:01.7,1002,1001,1501.5,1002,187,4.47,223.68,0.91,20724.04,186,270,81.34,268,6615,43707,1619,0.63,-0.83,-0.02,-0.56,0.58,0.41,-53.26,-35.71,-7.6,-15.64,23.49,-9.43,-16.44,Right Fall while Standing
17:01.8,1002,1001,1501.5,1002,198,4.17,240,0.97,20724.04,186,278,81.34,268,6615,55455,1897,0.62,-0.82,-0.05,-2.45,0.21,-0.66,-53.39,-35.49,-7.84,-15.87,23.5,-9.66,-16.65,Right Fall while Standing
17:02.0,1002,1001,1501.5,1002,187,4.47,223.68,0.91,20724.04,186,272,81.34,268,6615,63903,2169,0.62,-0.82,-0.03,-1.33,0.45,-0.29,-53.45,-35.51,-7.94,-16.06,23.56,-9.76,-16.84,Right Fall while Standing
17:02.1,1002,1001,1501.5,1002,181,4.65,214.96,0.88,20724.04,186,269,81.34,268,6615,70728,2438,0.64,-0.82,-0.03,-1.44,0.9,-1.05,-52.91,-36.03,-8.05,-16.2,23.53,-9.84,-17,Right Fall while Standing
17:02.2,1002,1001,1501.5,1002,195,4.25,235.51,0.95,20723.89,187,272,88.98,271,7916,0,0,0.69,-0.84,-0.05,-1.32,1.57,-5.53,-51.15,-37.71,-8.14,-16.26,22.94,-9.87,-17.11,Right Fall while Standing
17:02.3,1002,1001,1501.5,1002,192,4.33,231.05,0.94,20723.89,187,274,88.98,271,7916,9540,274,0.69,-0.8,-0.03,-1.24,3.43,-16.67,-50.01,-38.95,-8.23,-16.08,20.94,-9.9,-16.99,Right Fall while Standing
17:02.5,1002,1001,1501.5,1002,181,4.65,214.96,0.88,20723.89,187,268,88.98,271,7916,15828,542,0.69,-0.72,-0.01,-2.04,4.34,-16.91,-46.76,-42.23,-8.42,-15.78,18.91,-9.95,-16.84,Right Fall while Standing
17:02.6,1002,1001,1501.5,1002,186,4.5,222.22,0.91,20723.89,187,269,88.98,271,7916,22653,811,0.76,-0.68,-0.03,-0.05,3.56,-13.25,-42.35,-46.61,-8.35,-15.59,17.34,-9.71,-16.83,Right Fall while Standing
17:02.7,1002,1001,1501.5,1002,197,4.19,238.5,0.96,20723.89,187,274,88.98,271,7916,32193,1085,0.78,-0.66,0.01,-0.86,4.21,-11.44,-40.72,-48.28,-8.39,-15.31,15.99,-9.68,-16.63,Right Fall while Standing
17:02.8,1002,1001,1501.5,1002,184,4.56,219.31,0.9,20723.89,187,270,88.98,271,7916,39557,1355,0.85,-0.62,0.04,1.96,7.55,-15.89,-36.42,-52.51,-8.07,-14.6,14.08,-9.2,-16.12,Right Fall while Standing
17:03.0,1002,1001,1501.5,1002,180,4.68,213.52,0.88,20723.89,187,268,88.98,271,7916,45845,1623,0.85,-0.54,0.05,7.27,8.66,-15.88,-33.2,-55.64,-7.08,-13.76,12.18,-8.13,-15.44,Right Fall while Standing
17:03.1,1002,1001,1501.5,1002,194,4.27,234.02,0.95,20723.89,187,272,88.98,271,7916,54293,1895,0.85,-0.49,0.08,3.83,6.5,-8.07,-30.2,-58.39,-6.53,-13.2,11.26,-7.48,-15,Right Fall while Standing
17:03.2,1002,1001,1501.5,1002,190,4.38,228.09,0.93,20723.89,187,277,88.98,271,7916,65486,2172,0.88,-0.46,0.13,-2.11,2.57,-3.83,-27.91,-59.88,-6.72,-13.12,10.88,-7.57,-14.99,Right Fall while Standing
17:03.3,1002,1001,1501.5,1002,179,4.72,212.09,0.87,20723.89,187,268,88.98,271,7916,71774,2440,0.92,-0.45,0.17,2.12,2.69,-5.35,-26.36,-60.71,-6.39,-13.04,10.3,-7.19,-14.94,Right Fall while Standing
17:03.5,1001,1001,1501.5,1002,187,4.47,223.68,0.91,20724.04,187,269,88.65,270,7858,0,0,0.93,-0.43,0.18,7.74,5.05,-7.95,-24.89,-61.88,-5.35,-12.66,9.41,-6.13,-14.62,Right Fall while Standing
17:03.6,1002,1001,1501.5,1002,196,4.22,237,0.96,20724.04,187,272,88.65,270,7858,8448,272,0.9,-0.37,0.19,6.66,3.61,-10.79,-22.54,-63.51,-4.44,-12.45,8.15,-5.16,-14.49,Right Fall while Standing
17:03.7,1002,1001,1501.5,1002,187,4.47,223.68,0.91,20724.04,187,272,88.65,270,7858,16896,544,0.92,-0.32,0.2,4.62,2.85,-11.09,-19.5,-65.98,-3.8,-12.35,6.87,-4.43,-14.49,Right Fall while Standing
17:03.8,1001,1001,1501.5,1002,178,4.75,210.65,0.87,20724.04,187,267,88.65,270,7858,22649,811,0.92,-0.27,0.23,3.93,4.63,-11.22,-16.65,-67.32,-3.23,-12.01,5.56,-3.77,-14.23,Right Fall while Standing
17:04.0,1002,1001,1501.5,1002,188,4.44,225.15,0.92,20724.04,187,269,88.65,270,7858,29474,1080,0.95,-0.24,0.24,2.69,0.82,-11.5,-14.53,-68.53,-2.82,-12.16,4.21,-3.29,-14.42,Right Fall while Standing
17:04.1,1002,1001,1501.5,1002,194,4.27,234.02,0.95,20724.04,187,272,88.65,270,7858,37922,1352,0.98,-0.18,0.21,2.46,-1.06,-10.73,-10.98,-72.38,-2.44,-12.55,2.95,-2.78,-14.94,Right Fall while Standing
17:04.2,1002,1001,1501.5,1002,182,4.62,216.41,0.89,20724.04,187,269,88.65,270,7858,44747,1621,0.95,-0.12,0.25,-0.71,-4.85,-10.99,-7.54,-72.02,-2.46,-13.41,1.67,-2.66,-15.76,Right Fall while Standing
17:04.3,1002,1001,1501.5,1002,181,4.65,214.96,0.88,20724.04,187,267,88.65,270,7858,50500,1888,0.98,-0.08,0.23,-1.37,-4.56,-12.7,-5.35,-74.31,-2.56,-14.24,0.17,-2.67,-16.64,Right Fall while Standing
17:04.5,1002,1001,1501.5,1002,195,4.25,235.51,0.95,20724.04,187,272,88.65,270,7858,58948,2160,0.96,-0.03,0.22,-2.57,0.31,-13.81,-2.28,-75.61,-2.81,-14.45,-1.47,-2.79,-16.9,Right Fall while Standing
17:04.6,1002,1001,1501.5,1002,188,4.44,225.15,0.92,20724.04,187,272,88.65,270,7858,67396,2432,0.96,0.04,0.16,0.15,12.5,-14.64,2,-78.54,-2.73,-13.13,-3.22,-2.54,-15.75,Right Fall while Standing
17:04.7,1002,1001,1501.5,1002,178,4.75,210.65,0.87,20724.04,186,264,84.59,269,7154,0,0,0.98,0.06,0.28,-11.74,-10.57,-4.96,2.8,-71.9,-4.11,-14.69,-3.74,-3.84,-16.98,Right Fall while Standing
17:04.8,1002,1001,1501.5,1002,185,4.53,220.76,0.9,20724.04,186,269,84.59,269,7154,6825,269,1.01,0.06,0.19,-6.27,-8.05,-8.82,2.78,-77.2,-4.83,-15.95,-4.75,-4.53,-18.4,Right Fall while Standing
17:05.0,1002,1001,1501.5,1002,196,4.22,237,0.96,20724.04,186,272,84.59,269,7154,15273,541,0.92,0.07,0.19,-0.98,-0.59,-10.24,3.71,-76.23,-4.88,-16.28,-5.94,-4.54,-18.68,Right Fall while Standing
17:05.1,1002,1001,1501.5,1002,187,4.47,223.68,0.91,20724.04,186,270,84.59,269,7154,22637,811,0.96,0.13,0.19,-0.09,7.38,-8.57,7.1,-74.87,-4.83,-15.61,-6.91,-4.35,-17.98,Right Fall while Standing
17:05.2,1002,1001,1501.5,1002,179,4.72,212.09,0.87,20724.04,186,264,84.59,269,7154,26797,1075,0.91,0.18,0.22,-2.55,2.59,-3.21,10.17,-71.37,-5.08,-15.53,-7.22,-4.47,-17.77,Right Fall while Standing
17:05.3,1002,1001,1501.5,1002,188,4.44,225.15,0.92,20724.04,186,266,84.59,269,7154,32017,1341,0.96,0.17,0.23,-5.08,-0.02,0.31,9.19,-72,-5.64,-15.79,-7.08,-5.05,-18.03,Right Fall while Standing
17:05.5,1002,1001,1501.5,1002,195,4.25,235.51,0.95,20724.04,186,272,84.59,269,7154,40465,1613,0.96,0.15,0.23,-3.76,-1.74,-1.76,8.05,-72.65,-6.04,-16.26,-7.2,-5.48,-18.51,Right Fall while Standing
17:05.6,1002,1001,1501.5,1002,184,4.56,219.31,0.9,20724.04,186,270,84.59,269,7154,47829,1883,0.97,0.14,0.21,-3.15,-3.24,0.36,7.33,-73.89,-6.37,-16.92,-7.06,-5.82,-19.2,Right Fall while Standing
17:05.7,1002,1001,1501.5,1002,180,4.68,213.52,0.88,20724.04,186,280,84.59,269,7154,60693,2163,0.98,0.17,0.22,-0.12,3.02,-1.35,8.83,-72.67,-6.32,-16.79,-7.13,-5.71,-19.03,Right Fall while Standing
17:05.9,1002,1001,1501.5,1002,194,4.27,234.02,0.95,20724.04,186,274,84.59,269,7154,70233,2437,0.96,0.14,0.2,-0.7,-1.69,-0.7,7.81,-74.18,-6.33,-17.26,-7.12,-5.77,-19.53,Right Fall while Standing
17:06.0,1002,1001,1501.5,1002,194,4.27,234.02,0.95,20723.89,188,277,90.23,271,8141,0,0,0.98,0.15,0.21,-1.95,-1.63,-1.09,7.73,-73.8,-6.51,-17.7,-7.15,-5.94,-19.95,Right Fall while Standing
17:06.1,1002,1001,1501.5,1002,184,4.56,219.31,0.9,20723.89,188,269,90.23,271,8141,6825,269,0.99,0.18,0.16,1.15,1.42,-3.27,9.9,-74.33,-6.29,-17.78,-7.47,-5.64,-20.04,Right Fall while Standing
17:06.2,1002,1001,1501.5,1002,180,4.68,213.52,0.88,20723.89,188,269,90.23,271,8141,13650,538,0.97,0.17,0.19,-1.59,-1.72,-1.01,9.31,-73.39,-6.42,-18.24,-7.49,-5.79,-20.45,Right Fall while Standing
17:06.4,1002,1001,1501.5,1002,191,4.36,229.57,0.93,20723.89,188,265,90.23,271,8141,18339,803,0.96,0.16,0.19,-1.5,-3.05,-1.08,8.96,-73.79,-6.54,-18.87,-7.53,-5.92,-21.07,Right Fall while Standing
17:06.5,1002,1001,1501.5,1002,192,4.33,231.05,0.94,20723.89,188,274,90.23,271,8141,27879,1077,0.94,0.18,0.18,0.91,3.53,-0.32,10.17,-73.27,-6.35,-18.68,-7.47,-5.69,-20.86,Right Fall while Standing
17:06.6,1002,1001,1501.5,1002,182,4.62,216.41,0.89,20723.89,188,270,90.23,271,8141,35243,1347,0.95,0.19,0.17,-0.68,0.85,0.63,10.34,-73.51,-6.37,-18.82,-7.29,-5.7,-21.01,Right Fall while Standing
17:06.7,1002,1001,1501.5,1002,181,4.65,214.96,0.88,20723.89,188,270,90.23,271,8141,42607,1617,0.95,0.16,0.18,-0.58,-1.27,2.91,9.02,-73.84,-6.37,-19.23,-6.83,-5.75,-21.42,Right Fall while Standing
17:09.5,1002,1002,1503,1002,183,4.59,217.86,0.89,0,0,268,0,0,0,14193,539,1.08,-0.02,0,-9.41,-30.61,-2.24,-1.41,-87.56,-1.38,-6.46,0,-1.38,-9.71,Forward Fall while Standing
17:09.7,1002,1002,1503,1002,179,4.72,212.09,0.87,0,0,257,0,0,0,14706,796,0.95,-0.01,0.01,1.53,-32.31,-1.08,-1.15,-87.43,-1.12,-10.68,-0.04,-1.12,-13.75,Forward Fall while Standing
17:09.8,1002,1002,1503,1002,182,4.62,216.41,0.89,0,0,263,0,0,0,18339,1059,1.04,0.02,-0.27,-2.6,-24.06,-5,0.71,-73.53,-1.38,-13.91,-0.56,-1.29,-16.3,Forward Fall while Standing
17:09.9,1002,1002,1503,1002,191,4.36,229.57,0.93,0,0,264,0,0,0,22499,1323,0.96,0.04,-0.36,-2.21,-22.75,-4.02,1.77,-67.98,-1.58,-16.98,-0.96,-1.45,-19.02,Forward Fall while Standing
17:10.0,1002,1002,1503,1002,193,4.3,232.53,0.94,0,0,269,0,0,0,29324,1592,0.94,0.03,-0.42,-2.7,-13.87,-2.19,1.26,-64.03,-1.85,-18.95,-1.13,-1.72,-20.75,Forward Fall while Standing
17:10.2,1002,1002,1503,1002,186,4.5,222.22,0.91,0,0,269,0,0,0,36149,1861,0.92,0.05,-0.47,-5.17,-15.5,-0.35,2.11,-61.19,-2.42,-21.12,-1.08,-2.24,-22.72,Forward Fall while Standing
17:10.3,1002,1002,1503,1002,179,4.72,212.09,0.87,0,0,265,0,0,0,40838,2126,0.9,0.04,-0.54,-0.77,-16.29,2.15,1.59,-57.63,-2.44,-23.39,-0.71,-2.28,-24.76,Forward Fall while Standing
17:10.4,1002,1002,1503,1002,179,4.72,212.09,0.87,0,0,263,0,0,0,44471,2389,0.9,0.06,-0.6,0.21,-11.84,-1.37,2.85,-54.5,-2.35,-25.09,-0.79,-2.14,-26.27,Forward Fall while Standing
17:10.5,1002,1002,1503,1002,187,4.47,223.68,0.91,20724.03,185,265,70.11,265,4915,0,0,0.82,0.03,-0.68,1.09,-15,0.56,0.85,-48.69,-2.14,-27.21,-0.62,-2.02,-28.07,Forward Fall while Standing
17:10.7,1002,1002,1503,1002,193,4.3,232.53,0.94,20724.03,185,274,70.11,265,4915,9540,274,0.79,0.03,-0.71,2.26,-9.05,2.79,1.31,-46.53,-1.79,-28.6,-0.17,-1.67,-29.31,Forward Fall while Standing
17:10.8,1001,1001,1501.5,1002,186,4.5,222.22,0.91,20724.03,185,274,70.11,265,4915,19080,548,0.77,0.02,-0.76,1.35,-11.12,3.36,0.23,-43.7,-1.55,-30.25,0.35,-1.48,-30.79,Forward Fall while Standing
17:10.9,1002,1001,1501.5,1002,177,4.78,209.22,0.87,20724.03,185,269,70.11,265,4915,25905,817,0.73,-0.01,-0.79,-0.5,-12,3.42,-1.17,-41.05,-1.54,-32,0.88,-1.53,-32.36,Forward Fall while Standing
17:11.0,1002,1001,1501.5,1002,185,4.53,220.76,0.9,20724.03,185,266,70.11,265,4915,31125,1083,0.72,-0.01,-0.82,-0.15,-9.7,2.53,-0.95,-39.6,-1.49,-33.47,1.3,-1.47,-33.72,Forward Fall while Standing
17:11.2,1002,1001,1501.5,1002,192,4.33,231.05,0.94,20724.03,185,270,70.11,265,4915,38489,1353,0.68,-0.03,-0.85,-4.82,-11.06,1.17,-2.12,-37.01,-2.03,-35.12,1.55,-2.03,-35.2,Forward Fall while Standing
17:11.3,1002,1001,1501.5,1002,178,4.75,210.65,0.87,20724.03,185,214,70.11,265,4915,18749,1567,0.64,-0.03,-0.84,0.07,-8.57,-0.47,-2.25,-35.49,-1.95,-36.45,1.59,-1.96,-36.41,Forward Fall while Standing
17:11.4,1002,1001,1501.5,1002,173,4.91,203.53,0.85,20724.03,185,264,70.11,265,4915,22909,1831,0.59,-0.04,-0.91,2.76,-9.1,-0.41,-2.49,-31.39,-1.53,-37.85,1.63,-1.57,-37.59,Forward Fall while Standing
17:11.5,1002,1001,1501.5,1002,186,4.5,222.22,0.91,20724.03,185,286,70.11,265,4915,39169,2117,0.57,-0.04,-0.95,-1.41,-7.71,0,-2.39,-29.35,-1.64,-39.07,1.73,-1.67,-38.68,Forward Fall while Standing
17:11.7,1002,1001,1501.5,1002,187,4.47,223.68,0.91,20724.03,185,282,70.11,265,4915,53157,2399,0.52,-0.03,-0.94,-0.52,-6.57,-0.15,-2.09,-27.28,-1.63,-40.15,1.81,-1.65,-39.64,Forward Fall while Standing
17:11.8,1002,1001,1501.5,1002,176,4.81,207.79,0.86,20724.17,183,275,79.52,267,6323,0,0,0.51,-0.03,-0.95,-0.6,-7.21,1.27,-2.22,-26.8,-1.64,-41.3,2.07,-1.66,-40.72,Forward Fall while Standing
17:11.9,1002,1001,1501.5,1002,181,4.65,214.96,0.88,20724.17,183,274,79.52,267,6323,9540,274,0.5,-0.06,-0.98,-1.47,-6.78,0.69,-3.52,-25.15,-1.75,-42.4,2.26,-1.82,-41.71,Forward Fall while Standing
17:12.0,1002,1001,1501.5,1002,192,4.33,231.05,0.94,20724.17,183,280,79.52,267,6323,22404,554,0.45,-0.05,-0.96,-2.23,-7.2,-0.09,-3.07,-23.26,-1.96,-43.56,2.34,-2,-42.75,Forward Fall while Standing
17:12.2,1002,1001,1501.5,1002,182,4.62,216.41,0.89,20724.17,183,181,79.52,267,6323,55165,735,0.42,-0.06,-1.02,-0.23,-5.7,0.11,-3.87,-20.89,-1.92,-44.52,2.46,-2,-43.58,Forward Fall while Standing
17:12.3,1002,1001,1501.5,1002,154,5.64,177.22,0.75,20724.17,183,123,79.52,267,6323,70294,858,0.37,-0.05,-0.98,-2.19,-5.42,1.03,-3.44,-19.13,-2.12,-45.46,2.69,-2.18,-44.41,Forward Fall while Standing
17:12.4,1001,1001,1501.5,1002,150,5.82,171.82,0.73,20724.17,183,163,79.52,267,6323,96863,1021,0.51,-0.04,-1.08,3.92,8.41,-3.19,-2.69,-23.56,-1.56,-44.65,2.38,-1.6,-43.81,Forward Fall while Standing
17:12.5,1002,1001,1501.5,1002,151,5.77,173.17,0.74,20724.17,183,160,79.52,267,6323,122463,1181,0.53,-0.08,-1.03,2.27,37.07,-9.28,-4.56,-25.54,-1.2,-40.23,1.31,-1.34,-39.64,Forward Fall while Standing
17:12.7,1002,1001,1501.5,1002,157,5.52,181.29,0.77,20724.17,183,202,79.52,267,6323,97731,1383,0.61,-0.08,-0.9,0.9,36.87,-8.25,-4.64,-32.34,-1.02,-35.87,0.38,-1.17,-35.73,Forward Fall while Standing
17:12.8,1002,1001,1501.5,1002,165,5.2,192.31,0.81,20724.17,183,290,79.52,267,6323,116295,1673,0.7,-0.03,-0.82,-3.72,20.76,-6.02,-2.27,-39.18,-1.42,-33.51,-0.28,-1.45,-33.74,Forward Fall while Standing
17:12.9,1002,1001,1501.5,1002,187,4.47,223.68,0.91,20724.17,183,290,79.52,267,6323,134859,1963,0.74,-0.02,-0.72,-1.79,13.21,-2.18,-1.85,-44.18,-1.57,-32.1,-0.45,-1.59,-32.58,Forward Fall while Standing
17:13.1,1002,1001,1501.5,1002,184,4.56,219.31,0.9,55.06,170,292,124.33,225,15457,0,0,0.8,-0.01,-0.68,0.5,13.73,-0.6,-1.33,-48.14,-1.44,-30.63,-0.43,-1.44,-31.33,Forward Fall while Standing
17:13.2,1002,1001,1501.5,1002,177,4.78,209.22,0.87,55.06,170,282,124.33,225,15457,13988,282,0.84,-0.02,-0.64,1.09,14.17,-0.48,-1.89,-51.25,-1.23,-29.1,-0.39,-1.26,-29.98,Forward Fall while Standing
17:13.3,1002,1001,1501.5,1002,182,4.62,216.41,0.89,55.06,170,278,124.33,225,15457,25736,560,0.88,-0.03,-0.58,0.94,14.85,-0.88,-2.14,-55.07,-1.05,-27.49,-0.4,-1.09,-28.59,Forward Fall while Standing
17:13.4,1002,1001,1501.5,1002,193,4.3,232.53,0.94,55.06,170,282,124.33,225,15457,39724,842,0.92,-0.03,-0.53,2.73,17.4,-1.08,-2.11,-58.37,-0.63,-25.55,-0.44,-0.69,-26.86,Forward Fall while Standing
17:13.6,1001,1001,1501.5,1002,184,4.56,219.31,0.9,55.06,170,282,124.33,225,15457,53712,1124,0.96,-0.03,-0.46,3.16,25.76,-2.24,-2.47,-62.89,-0.16,-22.56,-0.62,-0.26,-24.17,Forward Fall while Standing
17:13.7,1002,1001,1501.5,1002,174,4.88,204.95,0.85,55.06,170,268,124.33,225,15457,60000,1392,0.98,-0.03,-0.31,4.63,41.89,-3.63,-2.03,-71.04,0.49,-17.53,-0.98,0.39,-19.67,Forward Fall while Standing
17:13.8,1002,1001,1501.5,1002,182,4.62,216.41,0.89,55.06,170,268,124.33,225,15457,66288,1660,0.99,-0.04,-0.18,7.03,36.37,-1.92,-2.61,-78.1,1.44,-13.24,-1.12,1.28,-15.83,Forward Fall while Standing
17:13.9,1002,1001,1501.5,1002,187,4.47,223.68,0.91,55.06,170,266,124.33,225,15457,71508,1926,1.06,-0.02,-0.03,-6,31.76,-1.92,-1.74,-86.35,0.75,-9.49,-1.26,0.65,-12.56,Forward Fall while Standing
17:14.1,1002,1001,1501.5,1002,177,4.78,209.22,0.87,55.06,170,268,124.33,225,15457,77796,2194,1.05,-0.03,0.18,-5.67,31.35,-8.02,-2.2,-78.48,0.12,-5.82,-2.17,0.02,-8.72,Forward Fall while Standing
17:14.2,1002,1001,1501.5,1002,173,4.91,203.53,0.85,55.06,170,266,124.33,225,15457,83016,2460,0.88,0.08,0.09,-7.32,21.05,-13.18,4.52,-80.46,-0.74,-3.42,-3.73,-0.53,-6.5,Forward Fall while Standing
17:14.3,1002,1001,1501.5,1002,186,4.5,222.22,0.91,20724.15,181,277,97.06,273,9419,0,0,0.92,0.02,0.35,-13.77,-6.6,1.21,0.63,-67.72,-2.37,-4.48,-3.48,-2.25,-7.01,Forward Fall while Standing
17:14.4,1002,1001,1501.5,1002,194,4.27,234.02,0.95,20724.15,181,281,97.06,273,9419,13425,281,0.91,0.04,0.41,3.36,-1.73,3.02,1.46,-63.92,-1.88,-4.95,-3,-1.75,-7.31,Forward Fall while Standing
17:14.6,1002,1001,1501.5,1002,185,4.53,220.76,0.9,20724.15,181,281,97.06,273,9419,26850,562,0.91,0.02,0.24,1.81,-7.7,7.71,0.57,-73.49,-1.59,-6.16,-1.94,-1.5,-8.85,Forward Fall while Standing
17:14.7,1002,1001,1501.5,1002,179,4.72,212.09,0.87,20724.15,181,281,97.06,273,9419,40275,843,0.97,-0.02,0.25,-1.67,-4.59,7.9,-2.01,-74.09,-1.73,-6.98,-0.86,-1.74,-9.66,Forward Fall while Standing
17:14.8,1002,1001,1501.5,1002,186,4.5,222.22,0.91,20724.15,181,278,97.06,273,9419,52023,1121,0.99,-0.08,0.19,-4.2,-1.43,1.72,-4.95,-76.8,-2.18,-7.41,-0.55,-2.29,-10.18,Forward Fall while Standing
17:14.9,1002,1001,1501.5,1002,196,4.22,237,0.96,20724.15,181,282,97.06,273,9419,66011,1403,1.02,-0.08,0.23,-2.31,2.63,-0.88,-5.07,-74.95,-2.4,-7.33,-0.56,-2.51,-10.03,Forward Fall while Standing
17:15.1,1002,1001,1501.5,1002,186,4.5,222.22,0.91,20724.15,181,283,97.06,273,9419,80564,1686,0.99,-0.07,0.24,-0.02,8.49,-7.15,-4.49,-73.96,-2.33,-6.51,-1.36,-2.42,-9.21,Forward Fall while Standing
17:15.2,1002,1001,1501.5,1002,178,4.75,210.65,0.87,20724.15,181,277,97.06,273,9419,91757,1963,0.95,-0.07,0.29,-4.93,1.39,-4.89,-4.39,-71.26,-2.88,-6.59,-1.88,-2.94,-9.17,Forward Fall while Standing
17:15.3,1002,1001,1501.5,1002,190,4.38,228.09,0.93,20724.15,181,279,97.06,273,9419,104062,2242,0.97,-0.01,0.32,-2.09,0.53,-4.36,-0.9,-70.06,-3.07,-6.77,-2.33,-2.99,-9.3,Forward Fall while Standing
17:15.4,1002,1001,1501.5,1002,195,4.25,235.51,0.95,20724.15,181,283,97.06,273,9419,118615,2525,0.94,0,0.28,-1.4,-2.24,-2.23,-0.42,-71.75,-3.18,-7.31,-2.51,-3.07,-9.88,Forward Fall while Standing
17:15.6,1002,1001,1501.5,1002,184,4.56,219.31,0.9,20723.89,187,276,113.69,280,12924,0,0,0.94,0,0.26,-0.47,-4.23,1.56,-0.34,-72.71,-3.17,-8.08,-2.21,-3.06,-10.66,Forward Fall while Standing
17:15.7,1002,1001,1501.5,1002,179,4.72,212.09,0.87,20723.89,187,272,113.69,280,12924,8448,272,0.96,-0.02,0.23,0.57,-2.52,3.06,-1.83,-74.62,-3.03,-8.65,-1.73,-2.98,-11.29,Forward Fall while Standing
17:15.8,1002,1001,1501.5,1002,190,4.38,228.09,0.93,20723.89,187,273,113.69,280,12924,17441,545,0.99,-0.06,0.23,-1.85,-3,3.05,-3.68,-75.2,-3.19,-9.28,-1.24,-3.21,-11.91,Forward Fall while Standing
17:20.8,1001,1001,1501.5,1001,174,4.88,204.95,0.85,0,0,260,0,0,0,4128,520,0.97,-0.02,0.18,-1.4,-15.22,9.02,-1.47,-78.04,-0.14,-3.55,1.46,-0.19,-6.53,Sitting
17:20.9,1001,1001,1501.5,1001,179,4.72,212.09,0.87,0,0,262,0,0,0,7236,782,0.95,-0.04,0.22,5.35,-4.76,7.4,-2.82,-75.02,0.59,-4.38,2.47,0.45,-7.21,Sitting
17:21.0,1002,1001,1501.5,1002,186,4.5,222.22,0.91,0,0,265,0,0,0,11925,1047,1.03,-0.08,0.25,-0.93,4.56,-5.3,-5.03,-74.14,0.54,-4.07,1.91,0.32,-6.87,Sitting
17:21.1,1002,1001,1501.5,1002,191,4.36,229.57,0.93,0,0,267,0,0,0,17678,1314,1.04,0.05,0.23,5.5,12.51,-12.85,1.89,-75.86,1.29,-2.77,0.43,1.31,-5.7,Sitting
17:21.2,1002,1001,1501.5,1002,189,4.41,226.62,0.92,0,0,270,0,0,0,25042,1584,0.93,0.01,0.28,4.36,2.83,-5.94,0.13,-71.43,1.89,-2.67,-0.21,1.82,-5.42,Sitting
17:21.4,1002,1001,1501.5,1002,184,4.56,219.31,0.9,0,0,270,0,0,0,32406,1854,0.96,0.06,0.22,1.84,0.44,-3.05,2.93,-74.84,2.19,-2.86,-0.48,2.22,-5.74,Sitting
17:21.5,1002,1001,1501.5,1002,180,4.68,213.52,0.88,0,0,268,0,0,0,38694,2122,0.96,0.07,0.23,-0.47,1.13,-0.06,3.76,-73.98,2.2,-2.97,-0.4,2.26,-5.81,Sitting
17:21.6,1002,1001,1501.5,1002,175,4.85,206.37,0.86,0,0,263,0,0,0,42327,2385,0.95,0.07,0.28,1.15,-0.49,0.36,3.68,-71.58,2.41,-3.28,-0.26,2.46,-6.01,Sitting
17:21.7,1002,1001,1501.5,1002,173,4.91,203.53,0.85,80.91,180,261,67.01,264,4490,0,0,0.95,0.07,0.29,-0.18,-3.5,1.15,3.44,-70.79,2.46,-3.95,-0.02,2.5,-6.63,Sitting
17:21.9,1002,1001,1501.5,1002,177,4.78,209.22,0.87,80.91,180,260,67.01,264,4490,2064,260,0.97,0.07,0.22,0.98,-1.77,0.73,3.38,-75.3,2.65,-4.42,0.17,2.68,-7.26,Sitting
17:22.0,0,910,1365,1002,176,4.81,207.79,0.86,80.91,180,259,67.01,264,4490,3609,519,1,0.06,0.19,-0.98,3.89,-0.16,2.55,-77.13,2.6,-4.19,0.25,2.59,-7.11,Sitting
17:22.1,0,834,1251,1002,176,4.81,207.79,0.86,80.91,180,254,67.01,264,4490,2589,773,0.92,0.08,0.22,-1.86,4.8,-1.78,4.38,-74.24,2.44,-3.84,0.13,2.51,-6.66,Sitting
17:22.2,0,770,1155,1002,170,5.02,199.3,0.83,80.91,180,258,67.01,264,4490,3617,1031,0.96,0.1,0.32,-2.44,-4.54,-2.71,5.25,-69.35,2.2,-4.65,-0.11,2.33,-7.24,Sitting
17:22.4,0,715,1072.5,1002,163,5.28,189.53,0.8,80.91,180,256,67.01,264,4490,3617,1287,0.98,0.05,0.23,-0.96,-1.01,-1.57,2.3,-75.1,2.15,-5.03,-0.21,2.16,-7.83,Sitting
17:22.5,0,667,1000.5,1002,158,5.47,182.66,0.77,80.91,180,252,67.01,264,4490,1585,1539,0.98,0.08,0.23,-1.4,-5.8,-2.19,3.96,-74.62,2.05,-5.99,-0.38,2.13,-8.73,Sitting
17:22.6,0,626,939,1002,160,5.39,185.4,0.78,80.91,180,253,67.01,264,4490,58,1792,1.02,0.08,0.17,1.44,-1.27,-1.25,4.14,-77.98,2.29,-6.39,-0.44,2.37,-9.25,Sitting
17:22.7,0,589,883.5,1002,167,5.13,195.09,0.82,80.91,180,252,67.01,264,4490,4294965322,2044,0.97,0.09,0.2,0.95,-2.14,0.56,4.36,-76,2.48,-6.9,-0.27,2.56,-9.67,Sitting
17:22.9,1002,612,918,1002,184,4.56,219.31,0.9,80.91,180,259,67.01,264,4490,4294966867,2303,0.96,0.07,0.23,0.69,-0.82,0.19,3.42,-74.29,2.64,-7.26,-0.15,2.67,-9.94,Sitting
17:23.0,1002,632,948,1002,181,4.65,214.96,0.88,151.09,171,260,12.77,256,162,0,0,1.02,0.07,0.16,-0.9,0.03,0.01,3.39,-78.87,2.6,-7.5,-0.05,2.63,-10.35,Sitting
17:23.1,1002,651,976.5,1002,177,4.78,209.22,0.87,151.09,171,259,12.77,256,162,1545,259,1,0.08,0.19,-2.23,-1.34,0.82,3.88,-76.54,2.39,-7.91,0.15,2.45,-10.66,Sitting
17:23.2,1002,667,1000.5,1002,173,4.91,203.53,0.85,151.09,171,256,12.77,256,162,1545,515,0.98,0.06,0.17,-2.57,-3.43,0.24,2.81,-77.9,2.14,-8.58,0.28,2.17,-11.36,Sitting
17:23.3,1002,683,1024.5,1002,177,4.78,209.22,0.87,151.09,171,255,12.77,256,162,1034,770,0.98,0.07,0.16,-4.11,-8.5,1.88,3.47,-78.58,1.7,-9.89,0.61,1.77,-12.63,Sitting
17:23.5,1002,696,1044,1002,185,4.53,220.76,0.9,151.09,171,255,12.77,256,162,523,1025,0.98,0.04,0.12,0.85,1.45,4.04,1.9,-80.94,1.88,-9.95,1.21,1.88,-12.79,Sitting
17:23.6,1002,709,1063.5,1002,190,4.38,228.09,0.93,151.09,171,258,12.77,256,162,1551,1283,1,0,0.16,-1.72,1.89,3.24,-0.68,-79.43,1.74,-9.97,1.7,1.64,-12.75,Sitting
17:23.7,1002,721,1081.5,1002,183,4.59,217.86,0.89,151.09,171,260,12.77,256,162,3615,1543,1.02,0,0.14,0.01,2.72,-0.95,-0.76,-80.85,1.81,-9.88,1.68,1.7,-12.72,Sitting
17:23.8,1002,732,1098,1002,176,4.81,207.79,0.86,151.09,171,255,12.77,256,162,3104,1798,0.99,0.03,0.13,-4.5,1.56,-2.21,1.2,-80.79,1.32,-9.93,1.51,1.31,-12.77,Sitting
17:24.0,1002,742,1113,1002,173,4.91,203.53,0.85,151.09,171,252,12.77,256,162,1072,2050,0.98,0,0.2,-4.73,2.97,2.45,-0.58,-76.69,0.8,-9.81,1.91,0.74,-12.49,Sitting
17:24.1,1002,751,1126.5,1002,181,4.65,214.96,0.88,151.09,171,253,12.77,256,162,4294966841,2303,1.01,-0.02,0.19,-1.34,2.27,-1.69,-1.75,-77.57,0.7,-9.78,1.8,0.6,-12.49,Sitting
17:24.2,1002,760,1140,1002,189,4.41,226.62,0.92,79.77,180,275,31.03,257,962,0,0,0.99,0.01,0.18,-2.1,0.47,-2.8,-0.11,-77.94,0.51,-9.97,1.55,0.49,-12.68,Sitting
17:24.3,1002,768,1152,1002,184,4.56,219.31,0.9,79.77,180,278,31.03,257,962,11748,278,0.95,0.03,0.21,-2.4,-3.24,1.33,1.12,-75.89,0.28,-10.61,1.81,0.32,-13.23,Sitting
17:24.5,1002,775,1162.5,1002,177,4.78,209.22,0.87,79.77,180,262,31.03,257,962,14856,540,1,-0.02,0.12,-2.8,-0.55,4.72,-1.58,-81.39,0.01,-10.93,2.5,-0.06,-13.75,Sitting
17:24.6,1002,782,1173,1002,165,5.2,192.31,0.81,79.77,180,209,31.03,257,962,4294960297,749,1.02,-0.05,0.14,-3.33,2.84,-1.24,-3.41,-80.05,-0.34,-10.83,2.44,-0.46,-13.6,Sitting
17:24.7,1002,789,1183.5,1002,176,4.81,207.79,0.86,79.77,180,283,31.03,257,962,7554,1032,1,-0.02,0.19,-4,4.33,-6.47,-1.86,-77.69,-0.77,-10.53,1.73,-0.81,-13.22,Sitting
17:24.8,1002,795,1192.5,1002,183,4.59,217.86,0.89,79.77,180,291,31.03,257,962,26699,1323,0.96,0.02,0.19,-5.3,-0.05,-4.29,0.76,-77.38,-1.36,-10.79,1.29,-1.28,-13.46,Sitting
17:25.0,1002,801,1201.5,1002,176,4.81,207.79,0.86,79.77,180,289,31.03,257,962,44684,1612,0.98,0.03,0.19,-5.64,-3.31,3.52,1.15,-77.46,-2,-11.45,1.83,-1.87,-14.09,Sitting
17:25.1,1002,807,1210.5,1002,169,5.05,197.89,0.83,79.77,180,264,31.03,257,962,48844,1876,1.02,-0.04,0.19,-1.44,2.39,2.06,-2.54,-77.85,-2.1,-11.41,2.18,-2.12,-14.06,Sitting
17:25.2,1002,812,1218,1002,174,4.88,204.95,0.85,79.77,180,282,31.03,257,962,62832,2158,1.01,-0.04,0.17,-2.24,4.66,-4.73,-2.84,-78.8,-2.31,-11.08,1.7,-2.33,-13.78,Sitting
17:25.3,1002,817,1225.5,1002,189,4.41,226.62,0.92,79.77,180,288,31.03,257,962,80240,2446,0.98,0.01,0.2,2.74,6.6,-8.64,-0.01,-77.02,-1.9,-10.5,0.71,-1.83,-13.16,Sitting
17:25.5,1002,822,1233,1002,188,4.44,225.15,0.92,74.57,178,291,99.69,273,9937,0,0,0.97,0.05,0.22,-5.02,1.44,-4.06,2.02,-75.39,-2.45,-10.57,0.31,-2.27,-13.16,Sitting
17:25.6,1002,826,1239,1002,183,4.59,217.86,0.89,74.57,178,288,99.69,273,9937,17408,288,0.96,0.03,0.23,-6.63,-0.83,-0.58,1.27,-74.63,-3.21,-10.92,0.34,-3.03,-13.47,Sitting
17:25.7,1002,830,1245,1002,176,4.81,207.79,0.86,74.57,178,281,99.69,273,9937,30833,569,1,0.03,0.24,-2.67,-1.57,-1.36,0.88,-74.96,-3.47,-11.37,0.27,-3.3,-13.91,Sitting
17:25.8,1002,834,1251,1002,182,4.62,216.41,0.89,74.57,178,277,99.69,273,9937,42026,846,0.97,0.04,0.21,-0.18,-0.45,-3,1.8,-76.09,-3.42,-11.67,-0.01,-3.21,-14.25,Sitting
17:26.0,1002,838,1257,1002,193,4.3,232.53,0.94,74.57,178,285,99.69,273,9937,57715,1131,0.96,0.06,0.19,0.05,2.26,1.65,3.01,-76.84,-3.35,-11.64,0.3,-3.09,-14.25,Sitting
17:26.1,1002,842,1263,1002,189,4.41,226.62,0.92,74.57,178,283,99.69,273,9937,72268,1414,0.96,0.04,0.2,-1.8,0.54,4.86,1.61,-76.26,-3.5,-11.82,1,-3.3,-14.4,Sitting
17:26.2,1002,846,1269,1002,181,4.65,214.96,0.88,74.57,178,280,99.69,273,9937,85132,1694,0.94,0,0.22,-1.53,2.73,7.6,-0.48,-75.32,-3.62,-11.73,2.04,-3.5,-14.28,Sitting
17:26.3,1002,849,1273.5,1002,178,4.75,210.65,0.87,74.57,178,275,99.69,273,9937,95221,1969,0.99,-0.04,0.22,-5.56,-2.09,11.33,-2.99,-75.77,-4.25,-12.24,3.56,-4.2,-14.79,Sitting
17:26.5,1002,852,1278,1002,188,4.44,225.15,0.92,74.57,178,279,99.69,273,9937,107526,2248,1.01,-0.12,0.22,-2.72,-8.75,10.31,-7.26,-74.48,-4.52,-13.59,4.94,-4.63,-16.02,Sitting
17:26.6,1002,855,1282.5,1002,193,4.3,232.53,0.94,74.57,178,283,99.69,273,9937,122079,2531,1.03,-0.18,0.17,2.18,-3.34,1.74,-10.13,-75.01,-4.17,-14.25,5.26,-4.41,-16.68,Sitting
17:26.7,1002,858,1287,1002,182,4.62,216.41,0.89,20724.02,184,276,115.2,280,13270,0,0,1.04,-0.15,0.15,4.45,3.53,-7.8,-8.97,-76.74,-3.55,-14.06,4.38,-3.76,-16.57,Sitting
17:26.8,1002,861,1291.5,1002,176,4.81,207.79,0.86,20724.02,184,272,115.2,280,13270,8448,272,0.98,-0.09,0.15,0.77,6.95,-12.63,-5.97,-78.33,-3.38,-13.44,2.9,-3.48,-16.04,Sitting
17:27.0,1002,864,1296,1002,187,4.47,223.68,0.91,20724.02,184,273,115.2,280,13270,17441,545,0.94,-0.03,0.23,-0.87,8.76,-9.09,-2.12,-74.61,-3.42,-12.6,1.87,-3.37,-15.08,Sitting
17:27.1,1002,867,1300.5,1002,193,4.3,232.53,0.94,20724.02,184,280,115.2,280,13270,30305,825,0.94,0,0.23,-3.47,7.56,-5.79,-0.52,-74.75,-3.79,-11.9,1.24,-3.66,-14.41,Sitting
17:27.2,1002,869,1303.5,1002,183,4.59,217.86,0.89,20724.02,184,277,115.2,280,13270,41498,1102,0.96,0.02,0.26,-8.64,-3.21,-0.73,0.49,-73.13,-4.81,-12.56,1.24,-4.59,-14.98,Sitting
17:27.3,1002,872,1308,1002,178,4.75,210.65,0.87,20724.02,184,269,115.2,280,13270,48323,1371,0.95,0.01,0.26,-0.67,0.01,0.63,-0.23,-72.98,-4.82,-12.8,1.42,-4.64,-15.21,Sitting
17:27.5,1002,874,1311,1002,190,4.38,228.09,0.93,20724.02,184,274,115.2,280,13270,57863,1645,0.98,-0.01,0.25,-1.34,-1.24,3.26,-1.19,-73.91,-4.92,-13.21,1.93,-4.77,-15.64,Sitting
17:27.6,1002,876,1314,1002,190,4.38,228.09,0.93,20724.02,184,276,115.2,280,13270,68503,1921,0.96,-0.04,0.24,-0.82,1.24,2.38,-2.72,-74.27,-4.95,-13.31,2.33,-4.86,-15.75,Sitting
17:27.7,1002,878,1317,1002,179,4.72,212.09,0.87,20724.02,184,270,115.2,280,13270,75867,2191,0.99,-0.05,0.25,-1.31,0.66,1.25,-3.46,-73.77,-5.04,-13.48,2.59,-4.98,-15.89,Sitting
17:27.8,1002,881,1321.5,1002,181,4.65,214.96,0.88,20724.02,184,275,115.2,280,13270,85956,2466,0.98,-0.06,0.24,-1.7,-0.24,-1.15,-4,-74.15,-5.19,-13.76,2.54,-5.14,-16.17,Sitting
17:28.0,1002,883,1324.5,1002,193,4.3,232.53,0.94,20724.18,185,269,96.32,273,9277,0,0,0.97,-0.04,0.24,-0.13,1.08,-2.05,-2.83,-74.11,-5.13,-13.87,2.39,-5.04,-16.28,Sitting
17:28.1,1002,885,1327.5,1002,187,4.47,223.68,0.91,20724.18,185,268,96.32,273,9277,6288,268,0.98,-0.03,0.24,-0.49,2.59,-1.43,-2.13,-74.3,-5.12,-13.8,2.31,-5,-16.22,Sitting
17:28.2,1002,886,1329,1002,176,4.81,207.79,0.86,20724.18,185,261,96.32,273,9277,8873,529,0.96,-0.03,0.26,-1.08,1.55,-1.03,-2.4,-73.08,-5.19,-13.86,2.28,-5.08,-16.22,Sitting
17:28.3,1002,888,1332,1002,176,4.81,207.79,0.86,20724.18,185,259,96.32,273,9277,10418,788,0.95,-0.03,0.27,-0.92,0.55,0.73,-2.04,-72.6,-5.23,-14.04,2.46,-5.11,-16.38,Sitting
17:28.5,1002,890,1335,1002,189,4.41,226.62,0.92,20724.18,185,263,96.32,273,9277,14051,1051,0.97,-0.04,0.26,-0.57,0.83,1.84,-2.9,-73.37,-5.23,-14.18,2.8,-5.14,-16.55,Sitting
17:28.6,1002,892,1338,1002,187,4.47,223.68,0.91,20724.18,185,270,96.32,273,9277,21415,1321,0.97,-0.06,0.26,-1.34,0.96,1.07,-3.85,-73.38,-5.33,-14.31,3.03,-5.27,-16.68,Sitting
17:28.7,1002,894,1341,1002,177,4.78,209.22,0.87,20724.18,185,264,96.32,273,9277,25575,1585,0.97,-0.06,0.26,-1.26,1.2,-0.27,-3.88,-73.05,-5.42,-14.41,3.09,-5.36,-16.76,Sitting
17:28.8,1002,895,1342.5,1002,179,4.72,212.09,0.87,20724.18,185,264,96.32,273,9277,29735,1849,0.97,-0.06,0.27,-2.08,0.88,-0.59,-4.21,-72.62,-5.61,-14.56,3.12,-5.55,-16.88,Sitting
17:29.0,1002,897,1345.5,1002,191,4.36,229.57,0.93,20724.18,185,267,96.32,273,9277,35488,2116,0.96,-0.05,0.26,-0.92,1.59,-1.56,-3.31,-72.86,-5.65,-14.61,3.02,-5.56,-16.94,Sitting
17:29.1,1002,898,1347,1002,186,4.5,222.22,0.91,20724.18,185,269,96.32,273,9277,42313,2385,0.96,-0.05,0.28,-0.99,1.01,-0.92,-3.41,-72.12,-5.71,-14.73,3.01,-5.62,-17.03,Sitting
17:29.2,1002,900,1350,1002,176,4.81,207.79,0.86,23.13,182,264,68.17,264,4646,0,0,0.96,-0.05,0.27,-0.98,-0.27,-0.3,-3.19,-72.32,-5.76,-15.01,3.07,-5.66,-17.31,Sitting
17:29.3,1002,901,1351.5,1002,178,4.75,210.65,0.87,23.13,182,264,68.17,264,4646,4160,264,0.96,-0.05,0.27,-0.66,0.26,0.35,-3.55,-72.66,-5.77,-15.23,3.21,-5.68,-17.53,Sitting
17:29.5,1002,903,1354.5,1002,188,4.44,225.15,0.92,23.13,182,268,68.17,264,4646,10448,532,0.97,-0.06,0.26,-0.94,0.03,-0.44,-4.18,-73.04,-5.82,-15.47,3.25,-5.75,-17.78,Sitting
17:29.6,1002,904,1356,1002,191,4.36,229.57,0.93,23.13,182,270,68.17,264,4646,17812,802,0.97,-0.05,0.26,0.08,0.46,-2.05,-3.65,-73.36,-5.74,-15.67,3.1,-5.66,-17.98,Sitting
17:29.7,1002,905,1357.5,1002,182,4.62,216.41,0.89,23.13,182,266,68.17,264,4646,23032,1068,0.97,-0.04,0.26,-0.37,-0.38,-2.24,-2.71,-73.12,-5.72,-15.97,2.91,-5.6,-18.25,Sitting
17:29.8,1002,907,1360.5,1002,175,4.85,206.37,0.86,23.13,182,262,68.17,264,4646,26140,1330,0.96,-0.04,0.25,-1.6,0.99,-0.25,-2.78,-73.79,-5.85,-16.09,2.98,-5.72,-18.4,Sitting
17:30.0,1002,908,1362,1002,184,4.56,219.31,0.9,23.13,182,262,68.17,264,4646,29248,1592,0.98,-0.05,0.26,-1.26,0.42,-0.49,-3.39,-73.21,-5.93,-16.29,3.02,-5.83,-18.57,Sitting
17:30.1,1002,909,1363.5,1002,192,4.33,231.05,0.94,23.13,182,268,68.17,264,4646,35536,1860,0.92,-0.04,0.31,-0.34,1.56,-2.95,-2.9,-69.75,-5.9,-16.34,2.75,-5.78,-18.48,Sitting
17:30.2,1002,910,1365,1002,184,4.56,219.31,0.9,23.13,182,265,68.17,264,4646,40225,2125,0.94,-0.02,0.27,-0.8,1.22,-3.89,-1.76,-72.17,-5.93,-16.44,2.36,-5.77,-18.67,Sitting
17:30.3,1002,912,1368,1002,175,4.85,206.37,0.86,23.13,182,260,68.17,264,4646,42289,2385,0.94,-0.02,0.27,-0.98,2.31,-1.22,-1.48,-72.39,-5.99,-16.4,2.31,-5.81,-18.64,Sitting
17:30.5,1002,913,1369.5,1002,181,4.65,214.96,0.88,20724.16,183,258,65.81,264,4330,0,0,0.97,-0.02,0.3,-0.61,0.35,0.06,-1.64,-71.1,-5.99,-16.61,2.41,-5.82,-18.79,Sitting
17:30.6,1002,914,1371,1002,191,4.36,229.57,0.93,20724.16,183,264,65.81,264,4330,4160,264,0.96,-0.01,0.27,-0.26,-1.66,-0.42,-1.34,-72.53,-5.96,-17.06,2.46,-5.77,-19.28,Sitting
17:30.7,1002,915,1372.5,1002,186,4.5,222.22,0.91,20724.16,183,266,65.81,264,4330,9380,530,0.96,-0.02,0.27,-1.2,0.04,0.35,-1.96,-72.44,-6.04,-17.31,2.6,-5.87,-19.51,Sitting
17:30.8,1002,916,1374,1002,177,4.78,209.22,0.87,20724.16,183,261,65.81,264,4330,11965,791,0.97,-0.03,0.27,-1.08,0.34,-0.73,-2.5,-72.89,-6.1,-17.51,2.61,-5.96,-19.73,Sitting
17:31.0,1002,917,1375.5,1002,178,4.75,210.65,0.87,20724.16,183,262,65.81,264,4330,15073,1053,0.96,-0.03,0.26,-0.82,0.96,-0.94,-2.14,-73.23,-6.13,-17.64,2.59,-5.97,-19.87,Sitting
17:31.1,1002,918,1377,1002,191,4.36,229.57,0.93,20724.16,183,263,65.81,264,4330,18706,1316,0.96,-0.02,0.28,-1.34,1.05,-0.49,-1.86,-71.89,-6.23,-17.76,2.63,-6.06,-19.93,Sitting
17:31.2,1002,919,1378.5,1002,186,4.5,222.22,0.91,20724.16,183,265,65.81,264,4330,23395,1581,0.96,-0.02,0.29,-0.97,0.19,-0.35,-1.96,-71.82,-6.28,-17.99,2.68,-6.11,-20.14,Sitting
17:31.3,1002,920,1380,1002,176,4.81,207.79,0.86,20724.16,183,259,65.81,264,4330,24940,1840,0.97,-0.03,0.27,-0.56,-0.15,-0.33,-2.28,-72.47,-6.28,-18.26,2.74,-6.12,-20.43,Sitting
17:31.5,1002,921,1381.5,1002,180,4.68,213.52,0.88,20724.16,183,259,65.81,264,4330,26485,2099,0.96,-0.02,0.26,-1.27,1.18,-0.8,-2,-73.3,-6.37,-18.36,2.74,-6.2,-20.56,Sitting
17:31.6,1002,922,1383,1002,192,4.33,231.05,0.94,20724.16,183,266,65.81,264,4330,31705,2365,0.96,-0.02,0.27,-2.06,0.08,-0.1,-1.86,-72.34,-6.56,-18.6,2.83,-6.37,-20.75,Sitting
17:31.7,1002,923,1384.5,1002,184,4.56,219.31,0.9,20724.17,184,268,61.64,263,3798,0,0,0.96,-0.03,0.27,-0.72,0.01,-0.56,-2.27,-72.42,-6.58,-18.85,2.85,-6.41,-20.99,Sitting
17:31.8,1002,924,1386,1002,177,4.78,209.22,0.87,20724.17,184,256,61.64,263,3798,0,256,0.96,-0.03,0.27,-0.63,0.69,-0.37,-2.15,-72.75,-6.59,-19.01,2.91,-6.41,-21.16,Sitting
17:32.0,1002,924,1386,1002,179,4.72,212.09,0.87,20724.17,184,263,61.64,263,3798,3633,519,0.97,-0.02,0.28,-1.27,0.25,-0.6,-1.95,-72.42,-6.68,-19.23,2.93,-6.49,-21.36,Sitting
17:32.1,1002,925,1387.5,1002,192,4.33,231.05,0.94,20724.17,184,266,61.64,263,3798,8853,785,0.96,-0.03,0.27,-1.21,0.45,-0.78,-2.08,-72.6,-6.76,-19.43,2.93,-6.57,-21.55,Sitting
17:32.2,1002,926,1389,1002,189,4.41,226.62,0.92,20724.17,184,270,61.64,263,3798,16217,1055,0.96,-0.03,0.27,-0.2,0.35,-0.46,-2.02,-72.69,-6.72,-19.63,2.97,-6.53,-21.76,Sitting
17:32.3,1002,927,1390.5,1002,179,4.72,212.09,0.87,20724.17,184,263,61.64,263,3798,19850,1318,0.97,-0.03,0.27,-0.46,0.27,0.02,-2.18,-72.64,-6.7,-19.85,3.07,-6.52,-21.96,Sitting
17:32.5,1002,928,1392,1002,179,4.72,212.09,0.87,20724.17,184,259,61.64,263,3798,21395,1577,0.96,-0.04,0.27,-0.91,0.82,-0.74,-2.73,-72.74,-6.75,-20,3.08,-6.59,-22.11,Sitting
17:32.6,1002,928,1392,1002,192,4.33,231.05,0.94,20724.17,184,263,61.64,263,3798,25028,1840,0.96,-0.02,0.27,-0.44,1.1,-0.93,-1.78,-72.59,-6.73,-20.11,3.06,-6.53,-22.21,Sitting
17:32.7,1002,929,1393.5,1002,187,4.47,223.68,0.91,20724.17,184,262,61.64,263,3798,28136,2102,0.96,-0.03,0.28,-0.64,1.6,-0.89,-2.05,-72.29,-6.74,-20.16,3.05,-6.55,-22.25,Sitting
17:32.8,1002,930,1395,1002,176,4.81,207.79,0.86,20724.17,184,254,61.64,263,3798,27116,2356,0.95,-0.03,0.28,-0.91,-0.11,-1.03,-2.17,-71.94,-6.78,-20.42,3.02,-6.6,-22.48,Sitting
17:33.0,1002,931,1396.5,1002,179,4.72,212.09,0.87,85.29,182,250,49.07,260,2407,0,0,0.95,-0.04,0.29,0.09,0.24,-1.04,-2.62,-71.33,-6.7,-20.64,2.99,-6.54,-22.67,Sitting
17:33.1,1001,931,1396.5,1002,187,4.47,223.68,0.91,85.29,182,256,49.07,260,2407,0,256,0.95,-0.02,0.28,-0.4,-0.21,0.29,-1.94,-71.81,-6.68,-20.92,3.12,-6.49,-22.95,Sitting
17:33.2,1002,931,1396.5,1002,189,4.41,226.62,0.92,85.29,182,258,49.07,260,2407,1028,514,0.97,-0.03,0.27,-1.02,-0.5,0.08,-2.2,-72.63,-6.74,-21.23,3.23,-6.56,-23.29,Sitting
17:37.1,1002,1002,1503,1002,184,4.56,219.31,0.9,0,0,270,0,0,0,13652,538,1,0.06,0.22,0.76,1.9,-4.52,2.94,-75.42,0.15,-0.07,-0.49,0.26,-3.08,Left Fall while Sitting
17:37.2,1002,1002,1503,1002,189,4.41,226.62,0.92,0,0,270,0,0,0,21016,808,0.91,0.11,0.24,-1.69,-0.24,-2.04,6.29,-72.35,0.01,-0.35,-0.64,0.26,-3.23,Left Fall while Sitting
17:37.3,1002,1002,1503,1002,189,4.41,226.62,0.92,0,0,273,0,0,0,30009,1081,1,0.08,0.22,4.56,5.53,-4.64,3.9,-75.13,0.64,0.09,-1.11,0.77,-2.92,Left Fall while Sitting
17:37.5,1002,1002,1503,1002,184,4.56,219.31,0.9,0,0,273,0,0,0,39002,1354,0.95,0.1,0.25,3.12,6.89,-8.86,5.45,-72.49,1.09,0.69,-2.1,1.26,-2.24,Left Fall while Sitting
17:37.6,1002,1002,1503,1002,181,4.65,214.96,0.88,0,0,272,0,0,0,47450,1626,0.97,0.16,0.29,5,9.14,-9.51,8.54,-69.66,1.77,1.56,-3.17,2.04,-1.28,Left Fall while Sitting
17:37.7,1002,1002,1503,1002,177,4.78,209.22,0.87,0,0,269,0,0,0,54275,1895,0.9,0.23,0.25,2.24,7.64,-14.1,12.94,-67.91,2.11,2.25,-4.78,2.55,-0.56,Left Fall while Sitting
17:37.8,1002,1002,1503,1002,173,4.91,203.53,0.85,0,0,265,0,0,0,58964,2160,0.88,0.26,0.32,-3.82,5.11,-8.69,14.87,-63.3,1.71,2.63,-5.75,2.24,-0.01,Left Fall while Sitting
17:38.0,1002,1002,1503,1002,175,4.85,206.37,0.86,0,0,266,0,0,0,64184,2426,0.73,0.28,0.46,-1.5,2.52,-4.63,17.19,-52.02,1.6,2.69,-6.23,2.22,0.51,Left Fall while Sitting
17:38.1,1002,1002,1503,1002,181,4.65,214.96,0.88,80.21,180,268,83.95,269,7046,0,0,0.84,0.28,0.39,2.4,1.02,-7.05,16.27,-58.7,1.96,2.57,-7,2.53,0.12,Left Fall while Sitting
17:38.2,1002,1002,1503,1002,188,4.44,225.15,0.92,80.21,180,271,83.95,269,7046,7905,271,0.84,0.32,0.33,3.05,1.62,-7.89,19.11,-59.68,2.41,2.53,-7.88,3.08,0.04,Left Fall while Sitting
17:38.3,1001,1001,1501.5,1002,190,4.38,228.09,0.93,80.21,180,272,83.95,269,7046,16353,543,0.84,0.36,0.34,-0.71,0.88,-7.47,20.98,-58.1,2.39,2.39,-8.7,3.13,-0.03,Left Fall while Sitting
17:38.4,1002,1001,1501.5,1002,182,4.62,216.41,0.89,80.21,180,273,83.95,269,7046,25346,816,0.81,0.39,0.34,-1.11,0.37,-7.47,23.22,-56.07,2.32,2.18,-9.53,3.16,-0.15,Left Fall while Sitting
17:38.6,1002,1001,1501.5,1002,175,4.85,206.37,0.86,80.21,180,267,83.95,269,7046,31099,1083,0.82,0.42,0.34,-0.45,-0.74,-5.76,24.59,-55.17,2.33,1.84,-10.15,3.22,-0.44,Left Fall while Sitting
17:38.7,1002,1001,1501.5,1002,176,4.81,207.79,0.86,80.21,180,263,83.95,269,7046,34732,1346,0.8,0.42,0.33,0.89,-2.15,-3.16,25.04,-54.82,2.51,1.32,-10.44,3.41,-0.92,Left Fall while Sitting
17:38.8,1002,1001,1501.5,1002,186,4.5,222.22,0.91,80.21,180,267,83.95,269,7046,40485,1613,0.82,0.41,0.32,2.92,-1.86,-3.85,24.24,-56.3,2.94,0.85,-10.82,3.8,-1.44,Left Fall while Sitting
17:38.9,1002,1001,1501.5,1002,188,4.44,225.15,0.92,80.21,180,272,83.95,269,7046,48933,1885,0.79,0.45,0.28,1.85,-1.56,-2.06,27.69,-54.48,3.25,0.4,-10.98,4.22,-1.79,Left Fall while Sitting
17:39.1,1002,1001,1501.5,1002,180,4.68,213.52,0.88,80.21,180,269,83.95,269,7046,55758,2154,0.78,0.44,0.29,-2.38,1.41,1.84,27.58,-53.97,3.02,0.33,-10.66,4.01,-1.84,Left Fall while Sitting
17:39.2,1002,1001,1501.5,1002,173,4.91,203.53,0.85,80.21,180,247,83.95,269,7046,51231,2401,0.81,0.43,0.35,-2.24,1.86,2.81,25.42,-54.05,2.81,0.31,-10.21,3.72,-1.86,Left Fall while Sitting
17:39.3,1002,1001,1501.5,1002,176,4.81,207.79,0.86,13.15,181,263,74.07,266,5485,0,0,0.79,0.43,0.32,-1.1,0.05,3.55,26.05,-54.49,2.75,0.07,-9.67,3.68,-2.11,Left Fall while Sitting
17:39.4,1001,1001,1501.5,1002,183,4.59,217.86,0.89,13.15,181,263,74.07,266,5485,3633,263,0.87,0.39,0.36,-2.69,1.32,3.15,21.73,-57.35,2.48,-0.01,-9.19,3.25,-2.31,Left Fall while Sitting
17:39.6,1002,1001,1501.5,1002,189,4.41,226.62,0.92,13.15,181,266,74.07,266,5485,8853,529,0.85,0.38,0.39,1.34,3.55,-7.44,21.3,-55.85,2.72,0.18,-10.01,3.46,-2.06,Left Fall while Sitting
17:39.7,1002,1001,1501.5,1002,183,4.59,217.86,0.89,13.15,181,269,74.07,266,5485,15678,798,0.84,0.41,0.3,2.92,-1.97,-6.42,23.94,-57.26,3.15,-0.31,-10.71,3.98,-2.59,Left Fall while Sitting
17:39.8,1002,1001,1501.5,1002,173,4.91,203.53,0.85,13.15,181,206,74.07,266,5485,4294959874,1004,0.82,0.47,0.27,1.68,-1.42,-8.45,27.62,-55.17,3.43,-0.74,-11.67,4.4,-2.92,Left Fall while Sitting
17:39.9,1002,1001,1501.5,1002,171,4.98,200.7,0.84,13.15,181,268,74.07,266,5485,4294966162,1272,0.77,0.51,0.25,-2.85,2.1,-7.76,31.55,-52.09,3.15,-0.73,-12.54,4.28,-2.79,Left Fall while Sitting
17:40.1,1002,1001,1501.5,1002,183,4.59,217.86,0.89,13.15,181,271,74.07,266,5485,6771,1543,0.76,0.51,0.31,-4.49,3.23,-2.51,31.45,-50.06,2.66,-0.58,-12.76,3.81,-2.56,Left Fall while Sitting
17:40.2,1002,1001,1501.5,1002,180,4.68,213.52,0.88,13.15,181,275,74.07,266,5485,16860,1818,0.76,0.5,0.34,0.69,-1.56,-0.9,30.34,-50.17,2.81,-1.02,-12.77,3.91,-2.99,Left Fall while Sitting
17:40.3,1002,1001,1501.5,1002,171,4.98,200.7,0.84,13.15,181,272,74.07,266,5485,25308,2090,0.81,0.53,0.27,3.16,-4.33,1.37,31.42,-52.1,3.28,-1.81,-12.5,4.4,-3.82,Left Fall while Sitting
17:40.4,1001,1001,1501.5,1002,170,5.02,199.3,0.83,13.15,181,275,74.07,266,5485,35397,2365,0.8,0.51,0.29,1.59,-2.26,-3.16,30.52,-51.94,3.54,-2.34,-12.8,4.62,-4.33,Left Fall while Sitting
17:40.6,1002,1001,1501.5,1002,178,4.75,210.65,0.87,74.45,178,276,67.85,264,4602,0,0,0.76,0.54,0.27,2.45,-2.85,-5.11,33.16,-50.16,3.91,-2.93,-13.33,5.08,-4.82,Left Fall while Sitting
17:40.7,1002,1001,1501.5,1002,186,4.5,222.22,0.91,74.45,178,270,67.85,264,4602,7364,270,0.77,0.55,0.2,0.29,-0.66,-4.18,34.24,-51.09,4.02,-3.27,-13.75,5.23,-5.18,Left Fall while Sitting
17:40.8,1002,1001,1501.5,1002,180,4.68,213.52,0.88,74.45,178,289,67.85,264,4602,25349,559,0.75,0.56,0.22,-0.94,1.35,-7.02,35.02,-49.69,3.97,-3.35,-14.52,5.21,-5.2,Left Fall while Sitting
17:40.9,1002,1001,1501.5,1002,171,4.98,200.7,0.84,74.45,178,207,67.85,264,4602,2662,766,0.74,0.59,0.24,2.39,0.11,-5.41,36.44,-47.82,4.34,-3.58,-15.1,5.62,-5.35,Left Fall while Sitting
17:41.1,1002,1001,1501.5,1002,165,5.2,192.31,0.81,74.45,178,281,67.85,264,4602,16087,1047,0.73,0.62,0.24,3.11,1.85,-5.21,38.5,-46,4.8,-3.6,-15.65,6.14,-5.3,Left Fall while Sitting
17:41.2,1002,1001,1501.5,1002,174,4.88,204.95,0.85,74.45,178,283,67.85,264,4602,30640,1330,0.7,0.63,0.24,4.11,3.53,-2.95,39.85,-44.57,5.37,-3.41,-15.92,6.75,-5.06,Left Fall while Sitting
17:41.3,1002,1001,1501.5,1002,183,4.59,217.86,0.89,74.45,178,284,67.85,264,4602,45760,1614,0.72,0.64,0.18,3.92,3.87,-4.14,40.36,-45.47,5.93,-3.18,-16.33,7.31,-4.87,Left Fall while Sitting
17:41.4,1002,1001,1501.5,1002,178,4.75,210.65,0.87,74.45,178,285,67.85,264,4602,61449,1899,0.61,0.67,0.16,-1.53,1.68,-2.64,46.35,-39.77,5.81,-3.22,-16.57,7.43,-4.68,Left Fall while Sitting
17:41.6,1002,1001,1501.5,1002,170,5.02,199.3,0.83,74.45,178,264,67.85,264,4602,65609,2163,0.63,0.65,0.19,-5.73,-2.67,3.47,43.87,-41.44,5.17,-3.8,-16.04,6.72,-5.3,Left Fall while Sitting
17:41.7,1002,1001,1501.5,1002,170,5.02,199.3,0.83,74.45,178,277,67.85,264,4602,76802,2440,0.72,0.62,0.28,-4.81,3.36,3.89,37.88,-45.26,4.64,-3.63,-15.45,5.97,-5.29,Left Fall while Sitting
17:41.8,1002,1001,1501.5,1002,181,4.65,214.96,0.88,133.57,175,278,94.1,271,8854,0,0,0.73,0.62,0.27,-0.23,-0.55,1.23,37.95,-45.74,4.68,-3.94,-15.2,6.01,-5.61,Left Fall while Sitting
17:41.9,1002,1001,1501.5,1002,187,4.47,223.68,0.91,133.57,175,281,94.1,271,8854,13425,281,0.72,0.6,0.25,-1.44,-3.98,0.64,37.22,-46.62,4.57,-4.68,-15.03,5.88,-6.36,Left Fall while Sitting
17:42.1,1002,1001,1501.5,1002,179,4.72,212.09,0.87,133.57,175,281,94.1,271,8854,26850,562,0.77,0.6,0.18,-1.05,0.1,0.63,36.75,-49.05,4.51,-4.92,-14.85,5.8,-6.69,Left Fall while Sitting
17:42.2,1002,1001,1501.5,1002,172,4.95,202.12,0.84,133.57,175,262,94.1,271,8854,29958,824,0.73,0.6,0.25,-2.4,-0.64,1.05,37.38,-46.79,4.28,-5.25,-14.62,5.61,-6.91,Left Fall while Sitting
17:42.3,1002,1001,1501.5,1002,173,4.91,203.53,0.85,133.57,175,273,94.1,271,8854,38951,1097,0.71,0.59,0.22,-1.52,-0.04,1.11,37.55,-47.24,4.16,-5.5,-14.38,5.5,-7.17,Left Fall while Sitting
17:42.4,1002,1001,1501.5,1002,185,4.53,220.76,0.9,133.57,175,275,94.1,271,8854,49040,1372,0.74,0.59,0.22,-10.05,-4.2,8.03,36.57,-48.26,2.98,-6.28,-13.28,4.32,-7.96,Left Fall while Sitting
17:42.6,1001,1001,1501.5,1002,185,4.53,220.76,0.9,133.57,175,279,94.1,271,8854,61345,1651,0.8,0.54,0.25,-7.6,0.85,7.12,32.48,-51.51,2.1,-6.42,-12.29,3.31,-8.23,Left Fall while Sitting
17:42.7,1002,1001,1501.5,1002,176,4.81,207.79,0.86,133.57,175,267,94.1,271,8854,67098,1918,0.8,0.49,0.31,-2.47,4.11,1.63,29.27,-52.34,1.86,-6.16,-11.99,2.96,-8.01,Left Fall while Sitting
17:42.8,1002,1001,1501.5,1002,170,5.02,199.3,0.83,133.57,175,271,94.1,271,8854,75003,2189,0.82,0.49,0.3,-0.21,3.02,-5.59,28.38,-53.68,1.9,-6.03,-12.59,2.96,-7.94,Left Fall while Sitting
17:42.9,1002,1001,1501.5,1002,179,4.72,212.09,0.87,133.57,175,271,94.1,271,8854,82908,2460,0.77,0.54,0.28,-0.01,-1.35,-9.06,32.67,-50.22,1.97,-6.45,-13.61,3.2,-8.2,Left Fall while Sitting
17:43.1,1002,1001,1501.5,1002,187,4.47,223.68,0.91,77.27,179,270,95.01,273,9026,0,0,0.73,0.57,0.27,-0.25,0.69,-8.07,35.4,-47.94,2.01,-6.61,-14.52,3.34,-8.26,Left Fall while Sitting
17:43.2,1002,1001,1501.5,1002,179,4.72,212.09,0.87,77.27,179,270,95.01,273,9026,7364,270,0.71,0.59,0.29,-0.42,1.88,-5.15,37.06,-45.71,2.03,-6.62,-15.06,3.43,-8.19,Left Fall while Sitting
17:43.3,1002,1001,1501.5,1002,171,4.98,200.7,0.84,77.27,179,230,95.01,273,9026,4294962024,500,0.69,0.6,0.31,0.13,0.72,-2.18,37.72,-44.28,2.11,-6.79,-15.23,3.54,-8.29,Left Fall while Sitting
17:43.4,1002,1001,1501.5,1002,168,5.09,196.49,0.82,77.27,179,262,95.01,273,9026,4294965132,762,0.71,0.6,0.28,1.25,2.18,0.05,37.87,-45.21,2.34,-6.76,-15.13,3.76,-8.3,Left Fall while Sitting
17:43.5,1002,1001,1501.5,1002,180,4.68,213.52,0.88,77.27,179,262,95.01,273,9026,944,1024,0.71,0.6,0.24,-3.81,-1.15,5.98,38.35,-45.79,1.94,-7.15,-14.29,3.4,-8.7,Left Fall while Sitting
17:43.7,1002,1001,1501.5,1002,182,4.62,216.41,0.89,77.27,179,269,95.01,273,9026,7769,1293,0.74,0.53,0.23,-9.6,-1.66,11.89,33.86,-50.22,0.81,-7.61,-12.71,2.13,-9.31,Left Fall while Sitting
17:43.8,1002,1001,1501.5,1002,173,4.91,203.53,0.85,77.27,179,249,95.01,273,9026,4234,1542,0.77,0.5,0.29,-11.4,5.22,11.27,30.52,-51.53,-0.53,-7.21,-11.21,0.71,-8.98,Left Fall while Sitting
17:43.9,1002,1001,1501.5,1002,166,5.16,193.7,0.81,77.27,179,214,95.01,273,9026,4294951790,1756,0.85,0.43,0.35,-14.4,0.7,13.29,24.41,-55.42,-2.28,-7.37,-9.44,-1.21,-9.29,Left Fall while Sitting
17:44.0,1002,1001,1501.5,1002,176,4.81,207.79,0.86,77.27,179,265,95.01,273,9026,4294956479,2021,0.81,0.36,0.43,-9.95,-6.81,14.99,20.85,-53.81,-3.46,-8.48,-7.45,-2.49,-10.3,Left Fall while Sitting
17:44.2,1001,1001,1501.5,1002,181,4.65,214.96,0.88,77.27,179,270,95.01,273,9026,4294963843,2291,0.86,0.3,0.37,-2.29,-5.62,16.79,16.94,-59.71,-3.68,-9.44,-5.23,-2.85,-11.45,Left Fall while Sitting
17:44.3,1002,1001,1501.5,1002,170,5.02,199.3,0.83,154.79,174,232,20724.27,252,429495200,0,0,0.94,0.21,0.31,4.34,-1.11,11.3,11.15,-66.9,-3.06,-9.84,-3.71,-2.49,-12.12,Left Fall while Sitting
17:44.4,1002,1001,1501.5,1002,167,5.13,195.09,0.82,154.79,174,265,20724.27,252,429495200,4689,265,0.95,0.17,0.26,0.76,-7.76,7.08,9.3,-70.13,-2.9,-11.06,-2.72,-2.41,-13.43,Left Fall while Sitting
17:44.6,1002,1001,1501.5,1002,180,4.68,213.52,0.88,154.79,174,269,20724.27,252,429495200,11514,534,0.96,0.16,0.19,-7.18,-12.89,10.57,8.69,-73.93,-3.73,-12.94,-1.29,-3.23,-15.38,Left Fall while Sitting
17:44.7,1002,1001,1501.5,1002,176,4.81,207.79,0.86,154.79,174,273,20724.27,252,429495200,20507,807,0.97,0.09,0.18,-7.97,-9.04,12.22,4.47,-76.84,-4.67,-14.34,0.37,-4.3,-16.84,Left Fall while Sitting
17:44.8,1002,1001,1501.5,1002,165,5.2,192.31,0.81,154.79,174,228,20724.27,252,429495200,6955,1035,0.98,0.03,0.15,-5.92,-6.72,10.29,1.18,-79.53,-5.35,-15.44,1.76,-5.08,-18,Left Fall while Sitting
17:44.9,1002,1001,1501.5,1002,178,4.75,210.65,0.87,154.79,174,271,20724.27,252,429495200,14860,1306,0.98,-0.02,0.11,-9.24,-12.46,13.05,-1.63,-82.16,-6.45,-17.28,3.52,-6.26,-19.87,Left Fall while Sitting
17:45.1,1002,1001,1501.5,1002,178,4.75,210.65,0.87,154.79,174,278,20724.27,252,429495200,26608,1584,1.02,-0.1,0.11,-5.57,-5.28,11.94,-6.1,-80.34,-7.09,-18.2,5.14,-7.05,-20.69,Left Fall while Sitting
17:45.2,1002,1001,1501.5,1002,167,5.13,195.09,0.82,154.79,174,262,20724.27,252,429495200,29716,1846,1.06,-0.17,0.1,-1.53,5.74,4.74,-9.44,-78.03,-7.21,-17.73,5.83,-7.3,-20.14,Left Fall while Sitting
17:45.3,1002,1001,1501.5,1002,179,4.72,212.09,0.87,154.79,174,274,20724.27,252,429495200,39256,2120,1.04,-0.14,0.05,-3.23,10.15,-5.38,-8.27,-80.24,-7.55,-16.7,5.25,-7.58,-19.24,Left Fall while Sitting
17:45.4,1002,1001,1501.5,1002,181,4.65,214.96,0.88,154.79,174,279,20724.27,252,429495200,51561,2399,1,-0.13,0.14,-7.56,1.02,-4.69,-7.73,-77.76,-8.44,-16.82,4.75,-8.41,-19.26,Left Fall while Sitting
17:45.6,1002,1001,1501.5,1002,170,5.02,199.3,0.83,174.2,174,268,76.05,266,5783,0,0,0.98,-0.09,0.16,-3.97,4.68,-5.7,-5.59,-78.06,-8.86,-16.49,4.15,-8.73,-18.95,Left Fall while Sitting
17:45.7,1002,1001,1501.5,1002,173,4.91,203.53,0.85,174.2,174,274,76.05,266,5783,9540,274,0.98,-0.07,0.17,-2.83,0.76,-2.92,-4.36,-77.95,-9.14,-16.64,3.88,-8.95,-19.1,Left Fall while Sitting
17:45.8,1002,1001,1501.5,1002,185,4.53,220.76,0.9,174.2,174,276,76.05,266,5783,20180,550,0.98,-0.07,0.17,0.36,-1.56,-0.95,-4.69,-77.82,-9.03,-17.09,3.86,-8.85,-19.52,Left Fall while Sitting
17:45.9,1002,1001,1501.5,1002,182,4.62,216.41,0.89,174.2,174,280,76.05,266,5783,33044,830,0.99,-0.07,0.12,1.24,-3.56,1.13,-4.78,-80.34,-8.81,-17.78,4.1,-8.64,-20.28,Left Fall while Sitting
17:46.1,1002,1001,1501.5,1002,174,4.88,204.95,0.85,174.2,174,276,76.05,266,5783,43684,1106,1,-0.08,0.1,1.27,-2.24,1.63,-5.38,-80.98,-8.58,-18.31,4.4,-8.45,-20.82,Left Fall while Sitting
17:46.2,1002,1001,1501.5,1002,171,4.98,200.7,0.84,174.2,174,273,76.05,266,5783,52677,1379,1.01,-0.11,0.1,0.37,-0.33,0.69,-6.65,-80.24,-8.46,-18.6,4.59,-8.39,-21.07,Left Fall while Sitting
17:46.3,1001,1001,1501.5,1002,183,4.59,217.86,0.89,174.2,174,275,76.05,266,5783,62766,1654,1.01,-0.1,0.1,-0.91,2.15,-1.28,-6.16,-80.5,-8.5,-18.58,4.53,-8.41,-21.06,Left Fall while Sitting
17:46.4,1002,1001,1501.5,1002,183,4.59,217.86,0.89,174.2,174,278,76.05,266,5783,74514,1932,1,-0.08,0.12,-0.79,2.99,-1.24,-5.35,-79.94,-8.53,-18.46,4.47,-8.4,-20.92,Left Fall while Sitting
17:49.9,1002,1002,1503,1002,171,4.98,200.7,0.84,0,0,242,0,0,0,4294962909,503,0.97,-0.06,0.15,-2.2,1.42,1.41,-3.92,-78.97,-0.32,-0.27,-0.04,-0.46,-3.42,Right Fall while Sitting
17:50.0,1001,1001,1501.5,1002,166,5.16,193.7,0.81,0,0,221,0,0,0,4294946214,724,0.97,-0.06,0.2,-0.01,1.74,2.32,-3.93,-76.52,-0.25,-0.3,0.35,-0.4,-3.35,Right Fall while Sitting
17:50.1,1002,1001,1501.5,1002,172,4.95,202.12,0.84,0,0,255,0,0,0,4294945703,979,1,-0.09,0.13,-0.21,-0.97,4.35,-5.85,-79.13,-0.21,-0.67,0.99,-0.43,-3.81,Right Fall while Sitting
17:50.3,1002,1001,1501.5,1002,181,4.65,214.96,0.88,0,0,258,0,0,0,4294946731,1237,0.97,-0.12,0.11,-1.6,-0.66,8.93,-7.85,-78.55,-0.34,-1,2.19,-0.64,-4.1,Right Fall while Sitting
17:50.4,1002,1001,1501.5,1002,181,4.65,214.96,0.88,0,0,262,0,0,0,4294949839,1499,1.05,-0.16,0.11,-1.04,-1.23,7.66,-9.32,-77.78,-0.4,-1.4,3.25,-0.75,-4.46,Right Fall while Sitting
17:50.5,1002,1001,1501.5,1002,174,4.88,204.95,0.85,0,0,262,0,0,0,4294952947,1761,0.99,-0.2,0.14,-1.6,-0.4,4.15,-11.69,-74.65,-0.52,-1.7,3.86,-0.97,-4.62,Right Fall while Sitting
17:50.6,1002,1001,1501.5,1002,167,5.13,195.09,0.82,0,0,251,0,0,0,4294950412,2012,0.99,-0.21,0.11,-2.05,-0.71,3.57,-12.29,-75.02,-0.71,-2.04,4.4,-1.17,-4.95,Right Fall while Sitting
17:50.8,1002,1001,1501.5,1002,171,4.98,200.7,0.84,0,0,258,0,0,0,4294951440,2270,0.96,-0.23,0.11,-4.21,-3.37,6.95,-13.8,-73.58,-1.16,-2.71,5.37,-1.67,-5.54,Right Fall while Sitting
17:50.9,1002,1001,1501.5,1002,182,4.62,216.41,0.89,132.09,174,266,20724.28,253,429495680,0,0,0.97,-0.26,0.12,-2.77,-2.92,8.61,-15.56,-71.87,-1.44,-3.32,6.53,-2,-6.06,Right Fall while Sitting
17:51.0,1002,1001,1501.5,1002,181,4.65,214.96,0.88,132.09,174,267,20724.28,253,429495680,5753,267,0.96,-0.31,0.12,1.29,0.12,6.86,-18.57,-69.19,-1.21,-3.55,7.5,-1.9,-6.18,Right Fall while Sitting
17:51.1,1002,1001,1501.5,1002,171,4.98,200.7,0.84,132.09,174,268,20724.28,253,429495680,12041,535,0.96,-0.34,0.08,-0.11,-0.64,6.11,-19.88,-68.51,-1.15,-3.88,8.37,-1.9,-6.47,Right Fall while Sitting
17:51.3,1002,1001,1501.5,1002,176,4.81,207.79,0.86,132.09,174,264,20724.28,253,429495680,16201,799,1.01,-0.38,0.03,-1.17,-1.11,6.71,-21.04,-67.88,-1.23,-4.28,9.32,-2.02,-6.82,Right Fall while Sitting
17:51.4,1002,1001,1501.5,1002,186,4.5,222.22,0.91,132.09,174,269,20724.28,253,429495680,23026,1068,0.92,-0.39,0.1,2.82,5.15,7.99,-23.61,-64.69,-0.8,-3.88,10.43,-1.71,-6.31,Right Fall while Sitting
17:51.5,1002,1001,1501.5,1002,177,4.78,209.22,0.87,132.09,174,276,20724.28,253,429495680,33666,1344,0.93,-0.45,0.07,-2.85,3.13,6.31,-26.26,-62.4,-1.09,-3.74,11.32,-2.09,-6.09,Right Fall while Sitting
17:51.6,1002,1001,1501.5,1002,175,4.85,206.37,0.86,132.09,174,274,20724.28,253,429495680,43206,1618,0.89,-0.46,0.15,-3.79,5.34,5.97,-27.31,-60.15,-1.5,-3.32,12.18,-2.53,-5.59,Right Fall while Sitting
17:51.8,1002,1001,1501.5,1002,189,4.41,226.62,0.92,132.09,174,272,20724.28,253,429495680,51654,1890,0.79,-0.46,0.2,-2.43,8.17,8.08,-30.41,-55.67,-1.73,-2.54,13.3,-2.88,-4.66,Right Fall while Sitting
17:51.9,1002,1001,1501.5,1002,178,4.75,210.65,0.87,132.09,174,271,20724.28,253,429495680,59559,2161,0.86,-0.53,0.16,-5.46,5.26,8.86,-32.01,-55.42,-2.35,-2.12,14.52,-3.54,-4.26,Right Fall while Sitting
17:52.0,1002,1001,1501.5,1002,170,5.02,199.3,0.83,132.09,174,264,20724.28,253,429495680,63719,2425,0.85,-0.57,0.21,-2.54,4.05,6.05,-33.54,-53.06,-2.61,-1.86,15.39,-3.84,-3.91,Right Fall while Sitting
17:52.2,1002,1001,1501.5,1002,185,4.53,220.76,0.9,111.11,178,269,83.99,269,7053,0,0,0.82,-0.57,0.18,-2.4,1.37,3.94,-34.55,-52.53,-2.83,-1.94,15.98,-4.1,-3.97,Right Fall while Sitting
17:52.3,1002,1001,1501.5,1002,185,4.53,220.76,0.9,111.11,178,271,83.99,269,7053,7905,271,0.84,-0.6,0.14,-1.82,1.82,5.59,-35.79,-52.08,-2.99,-1.96,16.77,-4.3,-3.97,Right Fall while Sitting
17:52.4,1002,1001,1501.5,1002,175,4.85,206.37,0.86,111.11,178,237,83.99,269,7053,4294965834,508,0.8,-0.62,0.16,-1.91,0.44,3.4,-37.86,-49.63,-3.16,-2.16,17.3,-4.55,-4.06,Right Fall while Sitting
17:52.5,1002,1001,1501.5,1002,167,5.13,195.09,0.82,111.11,178,256,83.99,269,7053,4294965834,764,0.77,-0.62,0.17,-1.76,1.03,3.18,-38.57,-48.72,-3.31,-2.28,17.8,-4.72,-4.14,Right Fall while Sitting
17:52.6,1002,1001,1501.5,1002,178,4.75,210.65,0.87,111.11,178,262,83.99,269,7053,1646,1026,0.82,-0.64,0.15,1.41,6.33,6.39,-38.03,-49.77,-3.06,-1.74,18.69,-4.46,-3.66,Right Fall while Sitting
17:52.8,1002,1001,1501.5,1002,179,4.72,212.09,0.87,111.11,178,268,83.99,269,7053,7934,1294,0.8,-0.7,0.21,-1.63,0.22,1.78,-41.11,-45.82,-3.2,-1.97,19.01,-4.71,-3.72,Right Fall while Sitting
17:52.9,1002,1001,1501.5,1002,171,4.98,200.7,0.84,111.11,178,246,83.99,269,7053,2914,1540,0.75,-0.66,0.22,-0.21,1.96,-5.95,-40.93,-45.41,-3.15,-1.97,18.37,-4.67,-3.71,Right Fall while Sitting
17:53.0,1002,1001,1501.5,1002,164,5.24,190.92,0.8,111.11,178,262,83.99,269,7053,6022,1802,0.71,-0.61,0.19,-3.88,-1.16,-0.66,-40.52,-46.25,-3.57,-2.37,18.38,-5.05,-4.12,Right Fall while Sitting
17:53.1,1002,1001,1501.5,1002,174,4.88,204.95,0.85,111.11,178,262,83.99,269,7053,9130,2064,0.75,-0.66,0.19,-1.55,0.08,2.73,-41.1,-45.87,-3.69,-2.61,18.83,-5.19,-4.34,Right Fall while Sitting
17:53.3,1002,1001,1501.5,1002,179,4.72,212.09,0.87,111.11,178,265,83.99,269,7053,13819,2329,0.77,-0.68,0.18,-2.75,-1.07,0.16,-41.17,-46.12,-3.97,-2.99,18.95,-5.45,-4.71,Right Fall while Sitting
17:53.4,1002,1001,1501.5,1002,170,5.02,199.3,0.83,154.36,174,243,27.07,257,732,0,0,0.73,-0.66,0.18,-1.38,1.13,-0.9,-41.83,-45.34,-4.07,-3.09,18.93,-5.58,-4.78,Right Fall while Sitting
17:53.5,1002,1001,1501.5,1002,164,5.24,190.92,0.8,154.36,174,229,27.07,257,732,4294954201,229,0.72,-0.65,0.17,-3.8,-2.97,2.48,-41.96,-45.42,-4.48,-3.72,19.34,-5.97,-5.39,Right Fall while Sitting
17:53.6,1002,1001,1501.5,1002,174,4.88,204.95,0.85,154.36,174,268,27.07,257,732,4294960489,497,0.78,-0.69,0.17,-1.81,-0.8,1.34,-41.35,-46.21,-4.63,-4.07,19.61,-6.1,-5.76,Right Fall while Sitting
17:53.8,1002,1001,1501.5,1002,183,4.59,217.86,0.89,154.36,174,270,27.07,257,732,557,767,0.75,-0.68,0.14,-0.92,0.09,-3.18,-42.27,-45.71,-4.68,-4.31,19.32,-6.18,-5.97,Right Fall while Sitting
17:53.9,1002,1001,1501.5,1002,174,4.88,204.95,0.85,154.36,174,268,27.07,257,732,6845,1035,0.74,-0.68,0.15,-0.65,1.95,-3.34,-42.7,-45.02,-4.69,-4.32,19,-6.21,-5.95,Right Fall while Sitting
17:54.0,1002,1001,1501.5,1002,166,5.16,193.7,0.81,154.36,174,211,27.07,257,732,4294953126,1246,0.74,-0.66,0.16,-0.91,1.53,-2.05,-41.8,-45.7,-4.73,-4.38,18.84,-6.21,-6.03,Right Fall while Sitting
17:54.2,1002,1001,1501.5,1002,173,4.91,203.53,0.85,154.36,174,261,27.07,257,732,4294955711,1507,0.76,-0.67,0.17,-0.78,1.11,-1.21,-41.32,-46.1,-4.76,-4.49,18.79,-6.22,-6.15,Right Fall while Sitting
17:54.3,1002,1001,1501.5,1002,180,4.68,213.52,0.88,154.36,174,265,27.07,257,732,4294960400,1772,0.76,-0.66,0.17,0.63,1.66,-2.18,-40.54,-46.81,-4.61,-4.53,18.61,-6.05,-6.22,Right Fall while Sitting
17:54.4,1002,1001,1501.5,1002,170,5.02,199.3,0.83,154.36,174,237,27.07,257,732,4294951033,2009,0.76,-0.65,0.16,0.06,0.42,-3.73,-40.58,-47.05,-4.53,-4.73,18.24,-5.97,-6.42,Right Fall while Sitting
17:54.5,1002,1001,1501.5,1002,166,5.16,193.7,0.81,154.36,174,261,27.07,257,732,4294953618,2270,0.78,-0.65,0.18,-0.73,2.92,-4.83,-39.53,-47.65,-4.55,-4.62,17.73,-5.95,-6.34,Right Fall while Sitting
17:54.7,1002,1001,1501.5,1002,180,4.68,213.52,0.88,153.02,173,264,20724.28,253,429495776,0,0,0.8,-0.63,0.2,3.05,5.76,-8.69,-37.63,-49.14,-4.1,-4.14,16.74,-5.44,-5.94,Right Fall while Sitting
17:54.8,1002,1001,1501.5,1002,178,4.75,210.65,0.87,153.02,173,267,20724.28,253,429495776,5753,267,0.8,-0.58,0.22,1.39,4.33,-10.69,-35.54,-50.64,-3.85,-3.85,15.49,-5.12,-5.72,Right Fall while Sitting
17:54.9,1001,1001,1501.5,1002,167,5.13,195.09,0.82,153.02,173,208,20724.28,253,429495776,4294950777,475,0.84,-0.55,0.22,-1.18,1.11,-10.77,-32.88,-53.33,-3.93,-3.96,14.22,-5.09,-5.94,Right Fall while Sitting
17:55.0,1001,1001,1501.5,1002,176,4.81,207.79,0.86,153.02,173,263,20724.28,253,429495776,4294954410,738,0.86,-0.52,0.25,-2.87,0.18,-11.71,-30.8,-54.48,-4.23,-4.2,12.82,-5.29,-6.21,Right Fall while Sitting
17:55.2,1002,1001,1501.5,1002,179,4.72,212.09,0.87,153.02,173,281,20724.28,253,429495776,539,1019,0.89,-0.46,0.23,0.64,4.02,-14.3,-27.35,-58.19,-4.08,-3.94,11.12,-5.01,-6.11,Right Fall while Sitting
17:55.3,1002,1001,1501.5,1002,170,5.02,199.3,0.83,153.02,173,278,20724.28,253,429495776,12287,1297,0.88,-0.41,0.26,-2.65,-1.88,-10.6,-24.63,-59.59,-4.34,-4.43,9.87,-5.15,-6.64,Right Fall while Sitting
17:55.4,1002,1001,1501.5,1002,181,4.65,214.96,0.88,153.02,173,273,20724.28,253,429495776,21280,1570,0.91,-0.37,0.27,0.61,-2.31,-12.22,-21.89,-61.8,-4.19,-4.98,8.42,-4.9,-7.25,Right Fall while Sitting
17:55.5,1002,1001,1501.5,1002,184,4.56,219.31,0.9,153.02,173,280,20724.28,253,429495776,34144,1850,0.91,-0.32,0.25,0.15,-4.33,-13.91,-19.38,-64.34,-4.1,-5.78,6.77,-4.71,-8.12,Right Fall while Sitting
17:55.7,1002,1001,1501.5,1002,172,4.95,202.12,0.84,153.02,173,269,20724.28,253,429495776,40969,2119,0.97,-0.25,0.17,3.6,-3.95,-15.77,-14.9,-71,-3.57,-6.53,4.87,-4.03,-9.11,Right Fall while Sitting
17:55.8,1002,1001,1501.5,1002,179,4.72,212.09,0.87,153.02,173,274,20724.28,253,429495776,50509,2393,0.97,-0.19,0.17,-1.53,-3.98,-13.46,-11.3,-73.91,-3.7,-7.29,3.26,-4,-9.96,Right Fall while Sitting
17:55.9,1002,1001,1501.5,1002,187,4.47,223.68,0.91,135.51,177,278,78.9,267,6224,0,0,1.28,-0.15,-0.12,-1.67,-5.57,-13.23,-7.4,-79.78,-3.83,-8.22,1.73,-3.98,-11.09,Right Fall while Sitting
17:56.0,1002,1001,1501.5,1002,178,4.75,210.65,0.87,135.51,177,273,78.9,267,6224,8993,273,1.03,-0.09,0.11,-3.75,5.31,-13.58,-5.41,-80.78,-4.24,-7.81,0.12,-4.28,-10.73,Right Fall while Sitting
17:56.2,1002,1001,1501.5,1002,171,4.98,200.7,0.84,135.51,177,270,78.9,267,6224,16357,543,0.97,-0.02,0.17,-7.58,6.08,-7.92,-1.64,-78.41,-5.11,-7.3,-0.77,-4.97,-10.14,Right Fall while Sitting
17:56.3,1002,1001,1501.5,1002,183,4.59,217.86,0.89,135.51,177,271,78.9,267,6224,24262,814,0.96,-0.02,0.24,-8.73,-1.13,-2.98,-1.55,-74.43,-6.13,-7.69,-1.05,-5.95,-10.36,Right Fall while Sitting
17:56.4,1002,1001,1501.5,1002,188,4.44,225.15,0.92,135.51,177,275,78.9,267,6224,34351,1089,1,-0.01,0.26,-2.98,-1.39,-4.03,-1.41,-73.59,-6.44,-8.12,-1.46,-6.24,-10.73,Right Fall while Sitting
17:56.5,1002,1001,1501.5,1002,178,4.75,210.65,0.87,135.51,177,271,78.9,267,6224,42256,1360,0.99,0,0.18,0.24,-3.02,-2.34,-0.83,-77.97,-6.34,-8.74,-1.65,-6.12,-11.51,Right Fall while Sitting
17:56.7,1002,1001,1501.5,1002,170,5.02,199.3,0.83,135.51,177,263,78.9,267,6224,45889,1623,0.98,0,0.16,1.77,-0.42,-0.59,-0.43,-79.39,-6.05,-9.05,-1.63,-5.82,-11.86,Right Fall while Sitting
17:56.8,1002,1001,1501.5,1002,179,4.72,212.09,0.87,135.51,177,267,78.9,267,6224,51642,1890,1,-0.01,0.16,-0.86,-2.87,-0.35,-1.36,-79.23,-6.09,-9.66,-1.57,-5.9,-12.44,Right Fall while Sitting
17:56.9,1002,1001,1501.5,1002,187,4.47,223.68,0.91,135.51,177,271,78.9,267,6224,59547,2161,1.01,-0.01,0.15,0.11,-1.23,-3.08,-1.08,-80.2,-6,-10.06,-1.86,-5.8,-12.87,Right Fall while Sitting
17:57.0,1002,1001,1501.5,1002,177,4.78,209.22,0.87,135.51,177,268,78.9,267,6224,65835,2429,0.98,0.03,0.15,-0.47,-0.18,-2.83,1.02,-79.67,-5.99,-10.34,-2.11,-5.71,-13.11,Right Fall while Sitting
17:57.2,1002,1001,1501.5,1002,170,5.02,199.3,0.83,109.99,178,265,83.98,269,7051,0,0,0.96,0.03,0.14,-0.43,1.09,1.07,1.11,-79.75,-5.97,-10.45,-1.88,-5.69,-13.22,Right Fall while Sitting
17:57.3,1002,1001,1501.5,1002,176,4.81,207.79,0.86,109.99,178,264,83.98,269,7051,4160,264,1,0.01,0.15,-1.72,0.51,0.8,-0.19,-79.88,-6.12,-10.64,-1.68,-5.88,-13.41,Right Fall while Sitting
18:00.4,1002,1002,1503,1002,206,3.97,252.14,1.01,0,0,270,0,0,0,16904,544,0.96,0,0,3.63,-0.81,-0.17,-0.33,-88.1,1.07,-1.06,-0.46,1.01,-4.54,Forward Fall while Sitting
