Datetime, ECGRaw , AvgECG , ampECG , MAX , GSRRaw , Resistance , GSR(kohm) , SCL , GSRRMS , GSRMAV , EMGRaw , EMGRMS , EMGMAV , EMGVAR , EMGSSI , IEMG , AccX , AccY, AccZ , GyroX , GyroY , GyroZ , Aroll , Apitch , Groll , Gpitch, Gyaw , Combroll , Combpitch,Features
34:13.0,132,132,198,132,448,1.28,779.13,2.19,0,0,128,0,0,0,33545,259,0.99,-0.01,0.21,-2.78,0.99,-0.39,-1.11,-76.66,-0.33,-0.21,-0.13,-0.36,-3.27,Standing
34:13.1,136,134,201,136,448,1.28,779.13,2.19,0,0,130,0,0,0,50445,389,0.99,-0.02,0.22,-2.52,0.72,-1.85,-1.78,-75.93,-0.52,-0.34,-0.23,-0.57,-3.36,Standing
34:13.2,163,143,214.5,163,448,1.28,779.13,2.19,0,0,130,0,0,0,67345,519,0.98,-0.01,0.22,-2.18,1.1,-1.4,-1.08,-75.65,-0.68,-0.42,-0.29,-0.7,-3.43,Standing
34:13.3,210,160,240,210,448,1.28,779.13,2.19,0,0,129,0,0,0,83986,648,0.98,-0.01,0.21,-0.98,-0.23,-1.3,-1.01,-76.16,-0.72,-0.64,-0.34,-0.73,-3.66,Standing
34:13.4,252,178,267,252,448,1.28,779.13,2.19,0,0,130,0,0,0,100886,778,0.98,-0.02,0.2,-0.24,-0.28,-1.91,-1.68,-77,-0.69,-0.87,-0.45,-0.73,-3.91,Standing
34:13.5,301,199,298.5,301,448,1.28,779.13,2.19,0,0,130,0,0,0,117786,908,0.99,-0.01,0.2,-1.63,0.27,-2.19,-1.01,-77.01,-0.79,-1.04,-0.58,-0.8,-4.07,Standing
34:13.6,346,220,330,346,448,1.28,779.13,2.19,0,0,130,0,0,0,134686,1038,0.99,0,0.2,-1.52,2.03,-1.33,-0.64,-77.17,-0.89,-1.03,-0.64,-0.88,-4.08,Standing
34:13.7,377,239,358.5,377,448,1.28,779.13,2.19,0,0,128,0,0,0,151070,1166,0.99,-0.01,0.2,-1.47,-0.37,-2.47,-1,-76.9,-0.98,-1.27,-0.8,-0.98,-4.29,Standing
34:13.8,412,258,387,412,448,1.28,779.13,2.19,64.69,448,129,129.5,129,16770,0,0,0.98,-0.02,0.2,-2.44,1.9,-1.85,-1.44,-76.7,-1.16,-1.28,-0.91,-1.17,-4.29,Standing
34:13.9,433,276,414,433,448,1.28,779.13,2.19,64.69,448,129,129.5,129,16770,16641,129,0.98,0,0.22,-1.31,2.56,-1.6,-0.52,-76,-1.23,-1.22,-0.99,-1.21,-4.21,Standing
34:14.0,443,291,436.5,443,448,1.28,779.13,2.19,64.69,448,129,129.5,129,16770,33282,258,0.98,0.01,0.19,-0.38,-4.68,-0.08,-0.13,-77.4,-1.22,-1.89,-0.91,-1.17,-4.91,Standing
34:14.1,449,304,456,449,448,1.28,779.13,2.19,64.69,448,128,129.5,129,16770,49666,386,0.99,-0.01,0.17,-1.56,3.27,0.33,-1.24,-78.6,-1.32,-1.76,-0.8,-1.31,-4.84,Standing
34:14.2,465,316,474,465,449,1.28,782.23,2.19,64.69,448,129,129.5,129,16770,66307,515,0.98,0,0.2,-3.55,1.8,-0.65,-0.38,-77.06,-1.61,-1.78,-0.79,-1.56,-4.79,Standing
34:14.3,461,327,490.5,465,448,1.28,779.13,2.19,64.69,448,129,129.5,129,16770,82948,644,0.98,0,0.2,-2.06,-0.5,0,-0.61,-77.06,-1.76,-2.03,-0.71,-1.71,-5.03,Standing
34:14.4,466,336,504,466,448,1.28,779.13,2.19,64.69,448,129,129.5,129,16770,99589,773,0.99,-0.01,0.2,-2.35,2.57,-1.05,-1.29,-76.87,-1.94,-1.97,-0.74,-1.91,-4.97,Standing
34:14.5,474,345,517.5,474,449,1.28,782.23,2.19,64.69,448,129,129.5,129,16770,116230,902,0.97,-0.01,0.21,-2.12,0.51,-0.82,-1,-76.46,-2.09,-2.12,-0.74,-2.05,-5.1,Standing
34:14.6,488,353,529.5,488,448,1.28,779.13,2.19,64.69,448,129,129.5,129,16770,132871,1031,0.99,-0.01,0.19,-1.45,-1.61,-0.47,-1.17,-77.63,-2.18,-2.48,-0.71,-2.14,-5.49,Standing
34:14.7,494,361,541.5,494,448,1.28,779.13,2.19,64.69,448,129,129.5,129,16770,149512,1160,0.99,-0.01,0.19,-2,1.34,-1.49,-1.27,-77.67,-2.33,-2.55,-0.78,-2.28,-5.55,Standing
34:14.8,498,368,552,498,449,1.28,782.23,2.19,66.07,448,129,128.9,128,16614,0,0,0.98,0,0.22,-2.55,1.44,-2.14,-0.59,-76.03,-2.52,-2.6,-0.91,-2.44,-5.54,Standing
34:14.9,500,375,562.5,500,449,1.28,782.23,2.19,66.07,448,129,128.9,128,16614,16641,129,0.98,-0.01,0.2,-1.67,-0.19,-0.32,-1.15,-76.68,-2.63,-2.82,-0.86,-2.57,-5.78,Standing
34:15.0,505,381,571.5,505,448,1.28,779.13,2.19,66.07,448,130,128.9,128,16614,33541,259,0.98,-0.01,0.2,-1.59,-0.02,-1.69,-1.06,-76.83,-2.73,-3.02,-0.95,-2.67,-5.97,Standing
34:15.1,511,387,580.5,511,448,1.28,779.13,2.19,66.07,448,129,128.9,128,16614,50182,388,0.98,0,0.19,-2.05,3.03,-0.89,-0.5,-77.27,-2.88,-2.92,-0.96,-2.79,-5.89,Standing
34:15.2,507,392,588,511,449,1.28,782.23,2.19,66.07,448,129,128.9,128,16614,66823,517,0.98,0,0.2,-0.68,1.23,-1.37,-0.72,-77.02,-2.9,-3,-1.02,-2.81,-5.96,Standing
34:15.3,493,396,594,511,448,1.28,779.13,2.19,66.07,448,129,128.9,128,16614,83464,646,0.98,0,0.19,-1.19,0.87,-1.89,-0.79,-77.27,-2.96,-3.11,-1.13,-2.87,-6.07,Standing
34:15.4,489,400,600,511,448,1.28,779.13,2.19,66.07,448,129,128.9,128,16614,100105,775,0.98,0,0.2,-1.58,1.11,0.5,-0.79,-76.67,-3.06,-3.2,-1,-2.97,-6.13,Standing
34:15.5,499,404,606,511,448,1.28,779.13,2.19,66.07,448,129,128.9,128,16614,116746,904,0.99,-0.01,0.21,-2.55,0.81,-1.4,-1.2,-76.61,-3.26,-3.31,-1.06,-3.18,-6.25,Standing
34:15.6,497,407,610.5,511,448,1.28,779.13,2.19,66.07,448,129,128.9,128,16614,133387,1033,0.98,0,0.2,-1.49,0.69,-1.76,-0.8,-76.77,-3.35,-3.45,-1.16,-3.25,-6.38,Standing
34:15.7,490,410,615,511,448,1.28,779.13,2.19,66.07,448,129,128.9,128,16614,150028,1162,0.97,-0.01,0.2,-1.93,-0.56,-0.35,-1.16,-76.8,-3.49,-3.7,-1.11,-3.39,-6.62,Standing
34:15.8,477,412,618,511,449,1.28,782.23,2.19,66.07,448,129,129.1,129,16665,0,0,0.99,-0.01,0.18,-2.41,2.2,-0.72,-1.03,-77.93,-3.67,-3.68,-1.11,-3.56,-6.65,Standing
34:15.9,481,414,621,511,449,1.28,782.23,2.19,66.07,448,129,129.1,129,16665,16641,129,0.98,-0.01,0.2,-1.66,-0.17,-2.11,-1.11,-77.17,-3.78,-3.89,-1.24,-3.67,-6.82,Standing
34:16.0,473,416,624,511,448,1.28,779.13,2.19,66.07,448,129,129.1,129,16665,33282,258,0.99,0,0.19,-1.26,1.39,-0.27,-0.69,-77.35,-3.85,-3.95,-1.19,-3.72,-6.89,Standing
34:16.1,241,411,616.5,511,448,1.28,779.13,2.19,66.07,448,129,129.1,129,16665,49923,387,1,-0.01,0.21,-3.15,3.58,-0.77,-1.31,-76.44,-4.11,-3.8,-1.18,-4,-6.7,Standing
34:16.2,0,398,597,511,448,1.28,779.13,2.19,66.07,448,131,129.1,129,16665,67084,518,0.98,0,0.21,-1.69,-0.12,-1.13,-0.75,-76.53,-4.22,-4.01,-1.22,-4.08,-6.91,Standing
34:16.3,386,398,597,511,448,1.28,779.13,2.19,66.07,448,129,129.1,129,16665,83725,647,0.99,-0.01,0.2,-0.98,0.27,-1.12,-0.88,-77.13,-4.26,-4.18,-1.25,-4.13,-7.1,Standing
34:16.4,524,402,603,524,448,1.28,779.13,2.19,66.07,448,132,129.1,129,16665,101149,779,0.98,-0.01,0.2,-1.41,2.27,-1.79,-0.96,-76.93,-4.35,-4.15,-1.35,-4.21,-7.06,Standing
34:16.5,121,394,591,524,448,1.28,779.13,2.19,66.07,448,129,129.1,129,16665,117790,908,0.99,-0.01,0.2,-1.66,0.01,-1.57,-1.37,-77.06,-4.46,-4.35,-1.43,-4.33,-7.26,Standing
34:16.6,332,392,588,524,449,1.28,782.23,2.19,66.07,448,129,129.1,129,16665,134431,1037,0.98,0,0.18,-3.05,-1,-1.34,-0.59,-77.84,-4.7,-4.65,-1.48,-4.54,-7.58,Standing
34:16.7,514,395,592.5,524,448,1.28,779.13,2.19,66.07,448,129,129.1,129,16665,151072,1166,0.99,-0.01,0.19,-3.59,2.89,-0.25,-1.15,-77.36,-5.01,-4.56,-1.43,-4.86,-7.47,Standing
34:16.8,237,391,586.5,524,448,1.28,779.13,2.19,65.38,448,129,129.5,129,16770,0,0,0.98,-0.01,0.19,-2.44,0.01,-2.17,-0.93,-77.28,-5.19,-4.75,-1.56,-5.02,-7.65,Standing
34:16.9,349,390,585,524,448,1.28,779.13,2.19,65.38,448,129,129.5,129,16770,16641,129,1,-0.01,0.21,-2.92,-0.25,-1.53,-1.28,-76.64,-5.43,-4.98,-1.64,-5.26,-7.84,Standing
34:17.0,419,391,586.5,524,448,1.28,779.13,2.19,65.38,448,129,129.5,129,16770,33282,258,0.98,-0.01,0.19,-2.84,-0.69,-1.73,-1.1,-77.62,-5.65,-5.24,-1.73,-5.47,-8.14,Standing
34:17.1,446,392,588,524,448,1.28,779.13,2.19,65.38,448,129,129.5,129,16770,49923,387,0.98,-0.01,0.2,-1.79,1.37,-1.76,-0.97,-76.76,-5.78,-5.31,-1.83,-5.58,-8.17,Standing
34:17.2,471,394,591,524,448,1.28,779.13,2.19,65.38,448,129,129.5,129,16770,66564,516,0.99,-0.01,0.19,-2.24,-1.74,-0.95,-1.15,-77.5,-5.94,-5.68,-1.84,-5.75,-8.55,Standing
34:17.3,477,396,594,524,448,1.28,779.13,2.19,65.38,448,129,129.5,129,16770,83205,645,0.97,0,0.2,-2.02,1.08,-1.21,-0.65,-77,-6.09,-5.77,-1.89,-5.87,-8.62,Standing
34:17.4,485,398,597,524,448,1.28,779.13,2.19,65.38,448,129,129.5,129,16770,99846,774,1,0,0.18,-2.31,1.28,-2.54,-0.76,-78.32,-6.26,-5.84,-2.06,-6.04,-8.74,Standing
34:17.5,489,400,600,524,448,1.28,779.13,2.19,65.38,448,129,129.5,129,16770,116487,903,1,0,0.18,-2.57,2.95,-2.89,-0.83,-78.07,-6.46,-5.75,-2.27,-6.24,-8.64,Standing
34:17.6,500,402,603,524,449,1.28,782.23,2.19,65.38,448,129,129.5,129,16770,133128,1032,0.97,0,0.2,-2.29,1.05,-1.49,-0.75,-77.03,-6.64,-5.84,-2.34,-6.4,-8.69,Standing
34:17.7,518,404,606,524,448,1.28,779.13,2.19,65.38,448,129,129.5,129,16770,149769,1161,0.99,0,0.19,-1.31,0.73,-1.56,-0.52,-77.34,-6.71,-5.97,-2.41,-6.46,-8.82,Standing
34:17.8,524,407,610.5,524,448,1.28,779.13,2.19,64.69,448,129,129,129,16640,0,0,1,0.01,0.17,-2.18,0.05,-1.88,-0.11,-78.94,-6.87,-6.16,-2.52,-6.6,-9.07,Standing
34:17.9,528,409,613.5,528,448,1.28,779.13,2.19,64.69,448,129,129,129,16640,16641,129,0.98,0,0.17,-2.17,-0.98,-0.94,-0.44,-78.29,-7.03,-6.45,-2.53,-6.77,-9.33,Standing
34:18.0,509,411,616.5,528,449,1.28,782.23,2.19,64.69,448,129,129,129,16640,33282,258,0.97,0.01,0.17,-2.63,0.43,-0.52,0.13,-78.37,-7.24,-6.61,-2.51,-6.94,-9.48,Standing
34:18.1,520,413,619.5,528,448,1.28,779.13,2.19,64.69,448,129,129,129,16640,49923,387,0.99,-0.01,0.18,-1.8,2.45,0.67,-0.87,-78.15,-7.36,-6.57,-2.36,-7.1,-9.43,Standing
34:18.2,548,416,624,548,448,1.28,779.13,2.19,64.69,448,130,129,129,16640,66823,517,1.01,-0.01,0.19,-3.21,-1.2,-2.35,-0.95,-77.93,-7.62,-6.88,-2.52,-7.36,-9.72,Standing
34:18.3,544,418,627,548,448,1.28,779.13,2.19,64.69,448,129,129,129,16640,83464,646,0.98,0,0.18,-2.55,2.44,-1.33,-0.72,-78.14,-7.82,-6.84,-2.57,-7.54,-9.69,Standing
34:18.4,528,420,630,548,448,1.28,779.13,2.19,64.69,448,129,129,129,16640,100105,775,0.99,0,0.2,-1.89,0.37,-0.69,-0.86,-77.01,-7.95,-7,-2.56,-7.67,-9.8,Standing
34:18.5,524,422,633,548,448,1.28,779.13,2.19,64.69,448,128,129,129,16640,116489,903,0.98,0,0.2,-2.05,2.76,0.1,-0.59,-76.95,-8.1,-6.93,-2.47,-7.8,-9.73,Standing
34:18.6,521,424,636,548,448,1.28,779.13,2.19,64.69,448,129,129,129,16640,133130,1032,1,-0.01,0.21,-1.11,1.38,-0.23,-1.24,-76.62,-8.16,-6.99,-2.42,-7.88,-9.77,Standing
34:18.7,525,425,637.5,548,448,1.28,779.13,2.19,64.69,448,132,129,129,16640,150554,1164,0.99,0.01,0.18,-1.02,-1.88,-3.08,-0.16,-78,-8.2,-7.37,-2.64,-7.88,-10.2,Standing
34:18.8,519,427,640.5,548,448,1.28,779.13,2.19,64.69,448,129,129.3,129,16718,0,0,0.99,-0.01,0.18,-1.64,0.12,-2.24,-0.9,-78.33,-8.31,-7.56,-2.79,-8.01,-10.39,Standing
34:18.9,500,428,642,548,448,1.28,779.13,2.19,64.69,448,129,129.3,129,16718,16641,129,0.98,0,0.18,-2.69,1.35,-0.98,-0.52,-78.15,-8.52,-7.62,-2.81,-8.2,-10.44,Standing
34:19.0,506,429,643.5,548,449,1.28,782.23,2.19,64.69,448,130,129.3,129,16718,33541,259,0.98,0,0.18,-2.07,0.97,-0.18,-0.66,-78.24,-8.67,-7.72,-2.75,-8.35,-10.54,Standing
34:19.1,507,431,646.5,548,448,1.28,779.13,2.19,64.69,448,130,129.3,129,16718,50441,389,1,0,0.19,-2.53,3.23,-0.69,-0.8,-77.67,-8.87,-7.6,-2.74,-8.54,-10.41,Standing
34:19.2,502,432,648,548,448,1.28,779.13,2.19,64.69,448,129,129.3,129,16718,67082,518,1,-0.01,0.2,-1.42,0.06,-2.52,-1.09,-77.1,-8.95,-7.8,-2.91,-8.64,-10.57,Standing
34:19.3,501,433,649.5,548,449,1.28,782.23,2.19,64.69,448,130,129.3,129,16718,83982,648,0.98,0,0.18,-1.94,-0.9,-2.91,-0.33,-78.08,-9.09,-8.09,-3.12,-8.74,-10.89,Standing
34:19.4,477,434,651,548,448,1.28,779.13,2.19,64.69,448,129,129.3,129,16718,100623,777,0.99,0,0.17,-1.28,1.8,-1.35,-0.51,-78.63,-9.16,-8.11,-3.18,-8.81,-10.93,Standing
34:19.5,480,434,651,548,448,1.28,779.13,2.19,64.69,448,129,129.3,129,16718,117264,906,0.99,0,0.19,-1.1,1.59,-0.92,-0.54,-77.78,-9.22,-8.15,-3.19,-8.87,-10.93,Standing
34:19.6,480,435,652.5,548,449,1.28,782.23,2.19,64.69,448,129,129.3,129,16718,133905,1035,1,0,0.2,-2.24,0.93,-1.45,-0.65,-77.32,-9.38,-8.25,-3.26,-9.03,-11.02,Standing
34:19.7,476,436,654,548,448,1.28,779.13,2.19,64.69,448,129,129.3,129,16718,150546,1164,0.99,0.01,0.18,-1.98,0.64,-1.53,-0.19,-77.95,-9.52,-8.39,-3.33,-9.15,-11.17,Standing
34:19.8,483,436,654,548,448,1.28,779.13,2.19,66.07,448,129,129.3,129,16717,0,0,0.98,0.01,0.19,-2.2,0.63,-2.32,-0.19,-77.65,-9.69,-8.52,-3.48,-9.31,-11.29,Standing
34:19.9,492,437,655.5,548,448,1.28,779.13,2.19,66.07,448,129,129.3,129,16717,16641,129,0.99,0.01,0.18,-1.26,2.71,-0.18,-0.27,-77.87,-9.76,-8.45,-3.42,-9.38,-11.23,Standing
34:20.0,465,437,655.5,548,449,1.28,782.23,2.19,66.07,448,130,129.3,129,16717,33541,259,1,0,0.19,-2.53,1.53,-1.28,-0.75,-77.75,-9.95,-8.5,-3.47,-9.58,-11.27,Standing
34:20.1,465,438,657,548,448,1.28,779.13,2.19,66.07,448,129,129.3,129,16717,50182,388,0.99,0,0.2,-2.38,0.6,-2.04,-0.51,-77.15,-10.13,-8.64,-3.59,-9.75,-11.38,Standing
34:20.2,456,438,657,548,448,1.28,779.13,2.19,66.07,448,129,129.3,129,16717,66823,517,0.99,0,0.19,-1.09,0.13,-1.99,-0.32,-77.7,-10.19,-8.83,-3.72,-9.79,-11.58,Standing
34:20.3,462,438,657,548,449,1.28,782.23,2.19,66.07,448,130,129.3,129,16717,83723,647,0.98,0.01,0.19,-1.5,0.99,-0.95,0.01,-77.62,-10.28,-8.93,-3.73,-9.87,-11.68,Standing
34:20.4,457,439,658.5,548,448,1.28,779.13,2.19,66.07,448,129,129.3,129,16717,100364,776,0.99,0.01,0.18,-1.4,2.55,-1.18,-0.02,-78.07,-10.36,-8.87,-3.77,-9.95,-11.64,Standing
34:20.5,467,439,658.5,548,448,1.28,779.13,2.19,66.07,448,130,129.3,129,16717,117264,906,0.98,0.01,0.18,-1.53,0.72,-1.29,0.04,-78.23,-10.46,-9,-3.82,-10.04,-11.77,Standing
34:20.6,445,439,658.5,548,449,1.28,782.23,2.19,66.07,448,129,129.3,129,16717,133905,1035,0.98,0,0.17,-2.89,1.63,-1.15,-0.69,-78.35,-10.69,-9.04,-3.86,-10.29,-11.81,Standing
34:20.7,447,439,658.5,548,448,1.28,779.13,2.19,66.07,448,130,129.3,129,16717,150805,1165,0.98,0,0.19,-2.45,0.39,-1.34,-0.45,-77.41,-10.88,-9.2,-3.91,-10.47,-11.93,Standing
34:20.8,444,439,658.5,548,449,1.28,782.23,2.19,66.74,448,130,129.5,129,16769,0,0,0.98,0.01,0.2,-1.23,1.69,0.24,0.06,-77.09,-10.95,-9.23,-3.81,-10.51,-11.95,Standing
34:20.9,456,439,658.5,548,450,1.27,785.34,2.2,66.74,448,129,129.5,129,16769,16641,129,1,0,0.19,0.03,0.66,-0.3,-0.61,-77.42,-10.89,-9.36,-3.76,-10.48,-12.09,Standing
34:21.0,461,440,660,548,449,1.28,782.23,2.19,66.74,448,129,129.5,129,16769,33282,258,0.99,0,0.18,-0.66,0.39,-2.76,-0.58,-77.97,-10.9,-9.52,-3.96,-10.49,-12.26,Standing
34:21.1,478,440,660,548,449,1.28,782.23,2.19,66.74,448,130,129.5,129,16769,50182,388,0.97,0.02,0.19,-1.21,1.34,-2.18,0.42,-77.45,-10.96,-9.59,-4.1,-10.51,-12.3,Standing
34:21.2,460,440,660,548,449,1.28,782.23,2.19,66.74,448,130,129.5,129,16769,67082,518,0.99,0.01,0.19,-1.58,1.08,-0.03,-0.18,-77.84,-11.07,-9.68,-4.02,-10.63,-12.41,Standing
34:21.3,490,441,661.5,548,448,1.28,779.13,2.19,66.74,448,130,129.5,129,16769,83982,648,0.99,0,0.17,-3.02,0.92,0.27,-0.32,-78.5,-11.31,-9.79,-3.92,-10.87,-12.54,Standing
34:21.4,506,442,663,548,449,1.28,782.23,2.19,66.74,448,129,129.5,129,16769,100623,777,0.99,0,0.19,-2.76,2.11,-0.69,-0.41,-77.58,-11.53,-9.78,-3.91,-11.09,-12.49,Standing
34:21.5,497,442,663,548,448,1.28,779.13,2.19,66.74,448,130,129.5,129,16769,117523,907,1,0,0.19,-2.46,2.5,-0.83,-0.48,-77.39,-11.72,-9.73,-3.91,-11.27,-12.43,Standing
34:21.6,517,443,664.5,548,448,1.28,779.13,2.19,66.74,448,130,129.5,129,16769,134423,1037,0.98,0,0.19,-2.34,0.79,-1.99,-0.51,-77.22,-11.9,-9.85,-4.03,-11.44,-12.55,Standing
34:21.7,522,444,666,548,449,1.28,782.23,2.19,66.74,448,129,129.5,129,16769,151064,1166,0.98,0,0.19,-1.31,-0.23,-1.88,-0.51,-77.43,-11.97,-10.07,-4.14,-11.51,-12.77,Standing
34:21.8,497,445,667.5,548,448,1.28,779.13,2.19,68.73,448,130,129.6,129,16795,0,0,0.98,0.01,0.19,-1.22,1.53,-1.23,-0.23,-77.57,-12.04,-10.12,-4.19,-11.57,-12.82,Standing
34:21.9,460,445,667.5,548,448,1.28,779.13,2.19,68.73,448,130,129.6,129,16795,16900,130,0.98,0,0.18,-1.85,0.66,0.45,-0.37,-77.8,-12.17,-10.25,-4.06,-11.69,-12.96,Standing
34:22.0,454,445,667.5,548,448,1.28,779.13,2.19,68.73,448,130,129.6,129,16795,33800,260,0.99,0,0.19,-2.06,-1.72,-1.17,-0.37,-77.68,-12.32,-10.63,-4.1,-11.84,-13.31,Standing
34:22.1,476,445,667.5,548,449,1.28,782.23,2.19,68.73,448,129,129.6,129,16795,50441,389,0.99,0.01,0.17,-1.59,1.82,-1.44,-0.13,-78.54,-12.42,-10.64,-4.17,-11.93,-13.36,Standing
34:22.2,464,445,667.5,548,449,1.28,782.23,2.19,68.73,448,130,129.6,129,16795,67341,519,0.98,-0.01,0.18,-1.93,2.66,-1.34,-0.89,-77.88,-12.56,-10.58,-4.22,-12.09,-13.27,Standing
34:22.3,451,445,667.5,548,449,1.28,782.23,2.19,68.73,448,130,129.6,129,16795,84241,649,1,0,0.2,-1.87,0.09,-1.58,-0.47,-77.33,-12.69,-10.77,-4.3,-12.2,-13.43,Standing
34:22.4,464,446,669,548,449,1.28,782.23,2.19,68.73,448,130,129.6,129,16795,101141,779,1,0,0.18,-2.02,-2.62,-2.12,-0.73,-78.01,-12.83,-11.24,-4.43,-12.35,-13.91,Standing
34:22.5,460,446,669,548,449,1.28,782.23,2.19,68.73,448,129,129.6,129,16795,117782,908,0.98,0.01,0.18,-0.72,-1.44,-2.52,-0.12,-77.85,-12.85,-11.58,-4.61,-12.34,-14.23,Standing
34:22.6,467,446,669,548,450,1.27,785.34,2.2,68.73,448,130,129.6,129,16795,134682,1038,0.99,0,0.18,-1.48,1.56,-0.52,-0.37,-78.13,-12.94,-11.62,-4.58,-12.44,-14.28,Standing
34:22.7,472,446,669,548,449,1.28,782.23,2.19,68.73,448,130,129.6,129,16795,151582,1168,0.98,0.01,0.17,-1.4,-0.58,-1.05,0.08,-78.72,-13.03,-11.88,-4.61,-12.5,-14.56,Standing
34:22.8,474,447,670.5,548,450,1.27,785.34,2.2,70.66,449,130,129.8,129,16847,0,0,1,0,0.16,-2.24,1.73,-0.1,-0.32,-79.1,-13.19,-11.91,-4.54,-12.68,-14.6,Standing
34:22.9,477,447,670.5,548,450,1.27,785.34,2.2,70.66,449,130,129.8,129,16847,16900,130,1,0.01,0.18,-2.57,2.26,-0.09,0.07,-77.96,-13.39,-11.89,-4.47,-12.85,-14.53,Standing
34:23.0,490,450,675,548,449,1.28,782.23,2.19,70.66,449,129,129.8,129,16847,33541,259,0.99,0,0.19,-2.09,-0.2,-2.73,-0.75,-77.85,-13.55,-12.11,-4.66,-13.04,-14.74,Standing
34:32.9,126,126,189,126,448,1.28,779.13,2.19,0,0,128,0,0,0,33284,258,0.98,-0.09,0.24,-2.34,5.66,0.93,-5.76,-73.8,-0.37,0.79,0.75,-0.58,-2.19,Left Fall while Standing
34:33.0,124,125,187.5,126,448,1.28,779.13,2.19,0,0,128,0,0,0,49668,386,0.98,-0.08,0.23,-1.92,-2.65,-2.31,-5.26,-74.61,-0.5,0.34,0.61,-0.69,-2.66,Left Fall while Standing
34:33.1,158,136,204,158,449,1.28,782.23,2.19,0,0,128,0,0,0,66052,514,0.98,-0.08,0.2,-1.15,0.49,-2.45,-5.01,-75.82,-0.55,0.19,0.45,-0.73,-2.85,Left Fall while Standing
34:33.2,205,153,229.5,205,449,1.28,782.23,2.19,0,0,128,0,0,0,82436,642,0.98,-0.1,0.19,-0.85,2.35,5.79,-6.15,-75.89,-0.58,0.23,1.08,-0.81,-2.82,Left Fall while Standing
34:33.3,248,172,258,248,448,1.28,779.13,2.19,0,0,129,0,0,0,99077,771,0.96,-0.1,0.2,-5.82,4.98,12.55,-6.25,-75.32,-1.1,0.52,2.39,-1.3,-2.51,Left Fall while Standing
34:33.4,288,191,286.5,288,449,1.28,782.23,2.19,0,0,129,0,0,0,115718,900,1,-0.13,0.22,-1.79,21.95,5.63,-7.91,-74.2,-1.22,2.46,3.01,-1.49,-0.61,Left Fall while Standing
34:33.4,342,213,319.5,342,449,1.28,782.23,2.19,0,0,129,0,0,0,132359,1029,0.97,-0.14,0.28,1.53,1.97,0.66,-8.66,-70.39,-1.02,2.45,3.16,-1.32,-0.46,Left Fall while Standing
34:33.5,384,234,351,384,449,1.28,782.23,2.19,0,0,129,0,0,0,149000,1158,0.95,-0.13,0.23,-1.21,4.08,1.23,-8.43,-72.75,-1.08,2.66,3.35,-1.37,-0.36,Left Fall while Standing
34:33.7,407,253,379.5,407,449,1.28,782.23,2.19,69.38,448,128,128.6,128,16537,0,0,0.96,-0.14,0.25,-1.46,-0.67,0.36,-8.52,-71.99,-1.17,2.4,3.47,-1.46,-0.58,Left Fall while Standing
34:33.7,430,271,406.5,430,449,1.28,782.23,2.19,69.38,448,128,128.6,128,16537,16384,128,0.94,-0.15,0.23,-3.44,3.36,3.44,-9.25,-72.09,-1.45,2.53,3.88,-1.76,-0.45,Left Fall while Standing
34:33.8,447,287,430.5,447,449,1.28,782.23,2.19,69.38,448,128,128.6,128,16537,32768,256,0.93,-0.15,0.25,-6.72,2.27,5.63,-9.55,-71.03,-2.06,2.56,4.51,-2.36,-0.39,Left Fall while Standing
34:33.9,463,301,451.5,463,449,1.28,782.23,2.19,69.38,448,128,128.6,128,16537,49152,384,0.94,-0.16,0.3,-3.55,11.99,10.28,-9.62,-68.79,-2.36,3.56,5.62,-2.65,0.66,Left Fall while Standing
34:34.0,479,315,472.5,479,450,1.27,785.34,2.2,69.38,448,129,128.6,128,16537,65793,513,0.95,-0.18,0.3,3.42,11.4,7.02,-10.92,-68.07,-1.96,4.49,6.39,-2.32,1.58,Left Fall while Standing
34:34.1,474,326,489,479,449,1.28,782.23,2.19,69.38,448,128,128.6,128,16537,82177,641,0.97,-0.2,0.26,1.87,1.92,1.85,-12.02,-69.72,-1.72,4.48,6.65,-2.13,1.51,Left Fall while Standing
34:34.2,489,337,505.5,489,449,1.28,782.23,2.19,69.38,448,129,128.6,128,16537,98818,770,0.93,-0.16,0.27,-4.95,6.66,0.95,-10.2,-69.59,-2.16,4.94,6.83,-2.48,1.96,Left Fall while Standing
34:34.3,481,346,519,489,449,1.28,782.23,2.19,69.38,448,129,128.6,128,16537,115459,899,0.95,-0.2,0.29,-2.98,5.24,3.3,-12.01,-68.09,-2.4,5.26,7.23,-2.78,2.33,Left Fall while Standing
34:34.4,488,354,531,489,449,1.28,782.23,2.19,69.38,448,128,128.6,128,16537,131843,1027,0.89,-0.2,0.3,-4.83,3.79,0.91,-12.61,-66.31,-2.82,5.44,7.4,-3.21,2.57,Left Fall while Standing
34:34.5,496,362,543,496,449,1.28,782.23,2.19,69.38,448,129,128.6,128,16537,148484,1156,0.94,-0.22,0.32,-1.24,-0.15,0.6,-12.9,-66.15,-2.89,5.22,7.54,-3.29,2.37,Left Fall while Standing
34:34.6,490,369,553.5,496,449,1.28,782.23,2.19,71.29,449,129,128.5,128,16511,0,0,0.93,-0.21,0.3,-0.6,-0.44,-2.87,-12.81,-66.94,-2.89,4.98,7.33,-3.29,2.11,Left Fall while Standing
34:34.7,485,375,562.5,496,449,1.28,782.23,2.19,71.29,449,129,128.5,128,16511,16641,129,0.93,-0.21,0.29,-2.36,-3.63,-1.88,-13,-67.2,-3.07,4.43,7.22,-3.47,1.56,Left Fall while Standing
34:34.8,488,380,570,496,449,1.28,782.23,2.19,71.29,449,129,128.5,128,16511,33282,258,0.92,-0.2,0.32,-0.1,1.24,3.07,-12.32,-66.05,-3.03,4.35,7.61,-3.4,1.53,Left Fall while Standing
34:34.9,506,386,579,506,449,1.28,782.23,2.19,71.29,449,128,128.5,128,16511,49666,386,0.94,-0.22,0.32,1.98,0.07,1.34,-12.79,-66.23,-2.78,4.16,7.82,-3.18,1.34,Left Fall while Standing
34:35.0,500,391,586.5,506,449,1.28,782.23,2.19,71.29,449,129,128.5,128,16511,66307,515,0.94,-0.22,0.29,0.53,-0.76,-4.5,-13.02,-67.37,-2.67,3.89,7.46,-3.08,1.04,Left Fall while Standing
34:35.1,506,396,594,506,450,1.27,785.34,2.2,71.29,449,128,128.5,128,16511,82691,643,0.92,-0.21,0.28,-0.73,0.47,-3.66,-12.88,-67.53,-2.69,3.74,7.17,-3.09,0.89,Left Fall while Standing
34:35.2,496,400,600,506,450,1.27,785.34,2.2,71.29,449,128,128.5,128,16511,99075,771,0.9,-0.21,0.31,-2.85,0.53,1.31,-13,-65.82,-2.91,3.59,7.38,-3.32,0.81,Left Fall while Standing
34:35.3,491,403,604.5,506,449,1.28,782.23,2.19,71.29,449,129,128.5,128,16511,115716,900,0.92,-0.22,0.3,-5.34,5.5,8.27,-13.26,-66.41,-3.39,3.94,8.28,-3.78,1.12,Left Fall while Standing
34:35.4,481,406,609,506,449,1.28,782.23,2.19,71.29,449,128,128.5,128,16511,132100,1028,0.95,-0.23,0.31,-2.46,2.53,2.23,-13.46,-66.17,-3.57,3.99,8.58,-3.97,1.18,Left Fall while Standing
34:35.5,494,409,613.5,506,449,1.28,782.23,2.19,71.29,449,129,128.5,128,16511,148741,1157,0.93,-0.22,0.3,-1.44,1.24,-4.6,-13.48,-66.44,-3.66,3.92,8.2,-4.05,1.1,Left Fall while Standing
34:35.6,489,412,618,506,450,1.27,785.34,2.2,72.54,449,128,128.5,128,16511,0,0,0.95,-0.22,0.32,-0.91,0.73,-10.42,-12.99,-66.11,-3.7,3.79,7.25,-4.07,1,Left Fall while Standing
34:35.7,506,415,622.5,506,450,1.27,785.34,2.2,72.54,449,129,128.5,128,16511,16641,129,0.94,-0.18,0.32,3.05,-9.18,-29.17,-10.66,-67.28,-3.34,2.67,4.42,-3.63,-0.12,Left Fall while Standing
34:35.8,514,418,627,514,449,1.28,782.23,2.19,72.54,449,129,128.5,128,16511,33282,258,0.99,-0.13,0.28,1.06,1.6,-41.43,-7.81,-71,-3.17,2.63,0.39,-3.36,-0.31,Left Fall while Standing
34:35.9,515,421,631.5,515,449,1.28,782.23,2.19,72.54,449,129,128.5,128,16511,49923,387,0.92,-0.07,0.28,-0.66,-10.65,-40.58,-5.02,-71.1,-3.19,1.38,-3.55,-3.26,-1.52,Left Fall while Standing
34:36.0,504,424,636,515,449,1.28,782.23,2.19,72.54,449,128,128.5,128,16511,66307,515,0.95,-0.02,0.28,0.1,-23.38,-39.77,-1.82,-72.02,-3.12,-1.18,-7.48,-3.07,-4.02,Left Fall while Standing
34:36.1,499,426,639,515,449,1.28,782.23,2.19,72.54,449,129,128.5,128,16511,82948,644,0.95,0.05,0.23,5.89,-21.4,-37.18,2.27,-74.62,-2.48,-3.5,-11.09,-2.29,-6.34,Left Fall while Standing
34:36.2,522,429,643.5,522,449,1.28,782.23,2.19,72.54,449,129,128.5,128,16511,99589,773,0.95,0.1,0.21,6.91,-6.06,-25.85,5.33,-74.53,-1.74,-4.3,-13.57,-1.46,-7.11,Left Fall while Standing
34:36.3,509,431,646.5,522,449,1.28,782.23,2.19,72.54,449,129,128.5,128,16511,116230,902,0.98,0.14,0.15,2.96,3.35,-12.79,7.46,-76.4,-1.38,-4.16,-14.78,-1.03,-7.05,Left Fall while Standing
34:36.4,496,432,648,522,449,1.28,782.23,2.19,72.54,449,128,128.5,128,16511,132614,1030,1,0.19,0.19,-5.21,2.49,-13.63,9.98,-73.2,-1.84,-4.11,-16.05,-1.37,-6.88,Left Fall while Standing
34:36.5,492,434,651,522,449,1.28,782.23,2.19,72.54,449,129,128.5,128,16511,149255,1159,0.99,0.2,0.23,-0.95,2.08,-26.85,10.37,-71.52,-1.88,-4.11,-18.63,-1.39,-6.8,Left Fall while Standing
34:36.6,490,435,652.5,522,450,1.27,785.34,2.2,71.92,449,129,128.8,128,16588,0,0,0.94,0.23,0.18,0.89,-4.34,-31.06,12.99,-71.12,-1.74,-4.74,-21.66,-1.15,-7.39,Left Fall while Standing
34:36.7,485,437,655.5,522,450,1.27,785.34,2.2,71.92,449,129,128.8,128,16588,16641,129,0.9,0.27,0.21,4,-5.3,-23.56,15.94,-67.31,-1.29,-5.46,-23.91,-0.6,-7.94,Left Fall while Standing
34:36.8,487,438,657,522,449,1.28,782.23,2.19,71.92,449,129,128.8,128,16588,33282,258,0.92,0.34,0.17,3.69,-0.18,-18.24,19.22,-65.99,-0.87,-5.68,-25.64,-0.06,-8.09,Left Fall while Standing
34:36.9,493,439,658.5,522,449,1.28,782.23,2.19,71.92,449,129,128.8,128,16588,49923,387,0.93,0.36,0.15,0.34,0.93,-17.15,20.11,-65.84,-0.78,-5.78,-27.27,0.06,-8.19,Left Fall while Standing
34:37.0,493,440,660,522,450,1.27,785.34,2.2,71.92,449,129,128.8,128,16588,66564,516,0.91,0.38,0.15,0.23,-0.92,-20.01,21.6,-64.35,-0.7,-6.07,-29.18,0.19,-8.4,Left Fall while Standing
34:37.1,487,441,661.5,522,449,1.28,782.23,2.19,71.92,449,128,128.8,128,16588,82948,644,0.9,0.4,0.17,0.7,-2.14,-16.89,23.03,-62.63,-0.57,-6.48,-30.77,0.37,-8.73,Left Fall while Standing
34:37.2,484,442,663,522,449,1.28,782.23,2.19,71.92,449,129,128.8,128,16588,99589,773,0.88,0.43,0.16,1.46,-4.01,-14.36,24.91,-61.04,-0.37,-7.09,-32.14,0.64,-9.25,Left Fall while Standing
34:37.3,485,443,664.5,522,449,1.28,782.23,2.19,71.92,449,129,128.8,128,16588,116230,902,0.85,0.44,0.16,-3.08,-0.85,-6.44,26.39,-59.54,-0.62,-7.37,-32.7,0.46,-9.46,Left Fall while Standing
34:37.4,480,444,666,522,449,1.28,782.23,2.19,71.92,449,130,128.8,128,16588,133130,1032,0.88,0.44,0.16,-2.82,1.55,-3.25,25.45,-60.66,-0.84,-7.42,-32.94,0.21,-9.55,Left Fall while Standing
34:37.5,482,445,667.5,522,449,1.28,782.23,2.19,71.92,449,129,128.8,128,16588,149771,1161,0.91,0.45,0.15,-2.25,-0.48,-8.36,25.25,-61.06,-1.01,-7.67,-33.71,0.04,-9.8,Left Fall while Standing
34:37.6,471,445,667.5,522,449,1.28,782.23,2.19,71.92,449,129,129,129,16640,0,0,0.87,0.47,0.15,-2.7,-2,-8.14,27.19,-59.1,-1.22,-8.06,-34.43,-0.09,-10.1,Left Fall while Standing
34:37.7,477,446,669,522,450,1.27,785.34,2.2,71.92,449,130,129,129,16640,16900,130,0.86,0.48,0.16,-3.9,1.06,-5.53,28.13,-57.92,-1.56,-8.15,-34.9,-0.37,-10.14,Left Fall while Standing
34:37.8,470,446,669,522,449,1.28,782.23,2.19,71.92,449,129,129,129,16640,33541,259,0.85,0.48,0.15,-2.92,2.26,-2.78,28.38,-57.98,-1.79,-8.13,-35.09,-0.58,-10.12,Left Fall while Standing
34:37.9,474,447,670.5,522,449,1.28,782.23,2.19,71.92,449,129,129,129,16640,50182,388,0.84,0.47,0.13,-0.22,-0.48,-1.21,28.58,-58,-1.76,-8.38,-35.14,-0.54,-10.36,Left Fall while Standing
34:38.0,476,448,672,522,450,1.27,785.34,2.2,71.92,449,129,129,129,16640,66823,517,0.88,0.47,0.14,-2.02,-0.25,-2.47,27.42,-59.14,-1.9,-8.6,-35.3,-0.73,-10.62,Left Fall while Standing
34:38.1,478,448,672,522,449,1.28,782.23,2.19,71.92,449,129,129,129,16640,83464,646,0.88,0.48,0.14,-3.66,-0.26,-5.57,27.68,-58.82,-2.21,-8.83,-35.79,-1.02,-10.83,Left Fall while Standing
34:38.2,478,449,673.5,522,449,1.28,782.23,2.19,71.92,449,129,129,129,16640,100105,775,0.85,0.5,0.15,-3.64,-2.13,-6.69,29.25,-57.1,-2.52,-9.24,-36.37,-1.25,-11.15,Left Fall while Standing
34:38.3,484,449,673.5,522,449,1.28,782.23,2.19,71.92,449,129,129,129,16640,116746,904,0.84,0.5,0.14,-2.13,2.04,-6.48,29.7,-56.8,-2.68,-9.23,-36.94,-1.38,-11.13,Left Fall while Standing
34:38.4,493,450,675,522,449,1.28,782.23,2.19,71.92,449,129,129,129,16640,133387,1033,0.82,0.5,0.13,-2.92,-1.42,-3.22,30.57,-56.16,-2.91,-9.57,-37.18,-1.57,-11.44,Left Fall while Standing
34:38.5,490,451,676.5,522,450,1.27,785.34,2.2,71.92,449,129,129,129,16640,150028,1162,0.84,0.5,0.14,-3.69,-1.23,-0.8,29.96,-56.58,-3.22,-9.9,-37.18,-1.9,-11.76,Left Fall while Standing
34:38.6,490,451,676.5,522,449,1.28,782.23,2.19,72.54,449,129,129.1,129,16665,0,0,0.84,0.5,0.15,-1.79,2.02,-0.18,29.64,-56.8,-3.35,-9.89,-37.12,-2.03,-11.77,Left Fall while Standing
34:38.7,490,452,678,522,449,1.28,782.23,2.19,72.54,449,129,129.1,129,16665,16641,129,0.87,0.5,0.13,-1.84,0.37,-3.49,28.99,-57.84,-3.47,-10.06,-37.39,-2.18,-11.97,Left Fall while Standing
34:38.8,491,453,679.5,522,449,1.28,782.23,2.19,72.54,449,129,129.1,129,16665,33282,258,0.84,0.5,0.12,-2.15,-0.62,-5.95,29.68,-57.17,-3.63,-10.32,-37.9,-2.3,-12.19,Left Fall while Standing
34:38.9,481,453,679.5,522,449,1.28,782.23,2.19,72.54,449,129,129.1,129,16665,49923,387,0.84,0.5,0.13,-2.51,-1.03,-5.44,29.92,-56.8,-3.83,-10.62,-38.37,-2.48,-12.47,Left Fall while Standing
34:39.0,493,454,681,522,449,1.28,782.23,2.19,72.54,449,129,129.1,129,16665,66564,516,0.86,0.5,0.11,-3.1,-3,-3.67,29.24,-57.77,-4.08,-11.12,-38.66,-2.75,-12.99,Left Fall while Standing
34:39.1,483,454,681,522,449,1.28,782.23,2.19,72.54,449,129,129.1,129,16665,83205,645,0.79,0.54,0.12,0.42,9.82,1.24,33.72,-53.12,-3.99,-10.35,-38.46,-2.48,-12.06,Left Fall while Standing
34:39.2,493,455,682.5,522,449,1.28,782.23,2.19,72.54,449,129,129.1,129,16665,99846,774,0.8,0.51,0.1,-11.84,-3.53,5.77,31.75,-55.34,-5.1,-10.9,-37.81,-3.63,-12.68,Left Fall while Standing
34:39.3,493,455,682.5,522,449,1.28,782.23,2.19,72.54,449,128,129.1,129,16665,116230,902,0.84,0.47,0.14,-11.05,-2.85,6.85,28.37,-58.17,-6.16,-11.39,-37.04,-4.78,-13.26,Left Fall while Standing
34:39.4,495,456,684,522,448,1.28,779.13,2.19,72.54,449,129,129.1,129,16665,132871,1031,0.88,0.47,0.17,-8.33,6.95,6.03,26.88,-58.92,-6.94,-10.89,-36.36,-5.59,-12.81,Left Fall while Standing
34:39.5,502,457,685.5,522,449,1.28,782.23,2.19,72.54,449,129,129.1,129,16665,149512,1160,0.85,0.47,0.2,-0.61,-2.89,3.43,27.64,-57.42,-6.94,-11.38,-35.93,-5.56,-13.22,Left Fall while Standing
34:39.6,495,457,685.5,522,449,1.28,782.23,2.19,70.02,448,129,128.9,128,16614,0,0,0.86,0.46,0.16,4.48,-6.86,7.67,27.21,-58.87,-6.44,-12.26,-35.1,-5.1,-14.12,Left Fall while Standing
34:39.7,495,458,687,522,449,1.28,782.23,2.19,70.02,448,129,128.9,128,16614,16641,129,0.83,0.44,0.12,1.79,1.73,8.67,27.15,-59.61,-6.21,-12.29,-34.16,-4.88,-14.18,Left Fall while Standing
34:39.8,500,458,687,522,449,1.28,782.23,2.19,70.02,448,130,128.9,128,16614,33541,259,0.85,0.44,0.13,1.49,25.83,12.13,26.41,-60.14,-6.01,-9.9,-32.87,-4.71,-11.91,Left Fall while Standing
34:39.9,494,459,688.5,522,448,1.28,779.13,2.19,70.02,448,129,128.9,128,16614,50182,388,0.93,0.39,0.15,-0.89,0.27,13.7,22.09,-63.99,-6.04,-10.07,-31.42,-4.92,-12.23,Left Fall while Standing
34:40.0,489,459,688.5,522,449,1.28,782.23,2.19,70.02,448,130,128.9,128,16614,67082,518,0.9,0.39,0.14,-5.95,2.1,9.41,22.24,-64.03,-6.57,-10.06,-30.41,-5.42,-12.22,Left Fall while Standing
34:40.1,492,460,690,522,449,1.28,782.23,2.19,70.02,448,129,128.9,128,16614,83723,647,0.88,0.36,0.19,-3.39,2.38,7.36,21.37,-63.39,-6.86,-10.03,-29.59,-5.73,-12.16,Left Fall while Standing
34:40.2,494,460,690,522,449,1.28,782.23,2.19,70.02,448,129,128.9,128,16614,100364,776,0.91,0.33,0.22,-4.09,-4.37,6.79,18.83,-64.8,-7.21,-10.66,-28.84,-6.17,-12.83,Left Fall while Standing
34:40.3,497,461,691.5,522,449,1.28,782.23,2.19,70.02,448,129,128.9,128,16614,117005,905,0.92,0.33,0.21,0.11,0.08,2.55,18.44,-65.69,-7.14,-10.86,-28.5,-6.12,-13.05,Left Fall while Standing
34:40.4,491,461,691.5,522,449,1.28,782.23,2.19,70.02,448,130,128.9,128,16614,133905,1035,0.92,0.34,0.2,2.82,-6.85,5.8,19.27,-65.27,-6.81,-11.73,-27.85,-5.77,-13.87,Left Fall while Standing
34:40.5,486,461,691.5,522,450,1.27,785.34,2.2,70.02,448,130,128.9,128,16614,150805,1165,0.91,0.32,0.15,3.35,-4.88,18.06,18.7,-67.02,-6.41,-12.43,-25.95,-5.41,-14.61,Left Fall while Standing
34:40.6,482,461,691.5,522,449,1.28,782.23,2.19,70.66,449,130,129.5,129,16769,0,0,0.91,0.28,0.14,1.1,1.54,30.9,16.07,-69.76,-6.25,-12.47,-22.84,-5.36,-14.76,Left Fall while Standing
34:40.7,495,462,693,522,449,1.28,782.23,2.19,70.66,449,129,129.5,129,16769,16641,129,0.94,0.24,0.17,0.44,0.86,41.44,13.54,-71.06,-6.15,-12.59,-18.62,-5.36,-14.92,Left Fall while Standing
34:40.8,485,462,693,522,449,1.28,782.23,2.19,70.66,449,130,129.5,129,16769,33541,259,1.01,0.14,0.11,-1.75,-2.85,27.69,7.24,-78.58,-6.27,-13.07,-15.77,-5.73,-15.69,Left Fall while Standing
34:40.9,463,462,693,522,449,1.28,782.23,2.19,70.66,449,129,129.5,129,16769,50182,388,0.99,0.1,0.14,0.67,-2.77,21.56,5.1,-78.62,-6.15,-13.54,-13.56,-5.7,-16.15,Left Fall while Standing
34:41.0,472,462,693,522,449,1.28,782.23,2.19,70.66,449,132,129.5,129,16769,67606,520,0.98,0.07,0.14,1.99,-4.47,20.02,3.19,-79.41,-5.89,-14.19,-11.47,-5.53,-16.8,Left Fall while Standing
34:41.1,499,463,694.5,522,450,1.27,785.34,2.2,70.66,449,130,129.5,129,16769,84506,650,1.02,0.03,0.12,-1.93,-6.81,19.27,1.26,-81.45,-6.03,-15.07,-9.47,-5.74,-17.73,Left Fall while Standing
34:41.2,500,463,694.5,522,449,1.28,782.23,2.19,70.66,449,130,129.5,129,16769,101406,780,1.02,-0.01,0.1,-1.21,-3.22,16.75,-0.92,-82.62,-6.1,-15.59,-7.73,-5.89,-18.27,Left Fall while Standing
34:41.3,515,464,696,522,449,1.28,782.23,2.19,70.66,449,129,129.5,129,16769,118047,909,1.05,-0.02,0.1,3.19,-4.72,8.63,-1.72,-82.76,-5.72,-16.26,-6.79,-5.56,-18.92,Left Fall while Standing
34:41.4,515,464,696,522,450,1.27,785.34,2.2,70.66,449,130,129.5,129,16769,134947,1039,1.06,-0.05,0.09,2.3,-3.14,5.16,-3.15,-83.11,-5.43,-16.78,-6.19,-5.34,-19.43,Left Fall while Standing
34:41.5,519,465,697.5,522,449,1.28,782.23,2.19,70.66,449,130,129.5,129,16769,151847,1169,1.02,-0.04,0.1,2.11,2.9,3.15,-2.54,-82.59,-5.17,-16.69,-5.8,-5.06,-19.33,Left Fall while Standing
34:41.6,530,466,699,530,449,1.28,782.23,2.19,71.92,449,130,129.9,129,16873,0,0,1.04,-0.06,0.06,1.94,-0.31,6.74,-3.76,-83.75,-4.92,-16.92,-5.06,-4.88,-19.59,Left Fall while Standing
34:41.7,514,466,699,530,450,1.27,785.34,2.2,71.92,449,130,129.9,129,16873,16900,130,1.02,-0.06,0.07,0.28,2.21,-0.89,-3.84,-83.26,-4.84,-16.89,-5.07,-4.8,-19.55,Left Fall while Standing
34:41.8,518,467,700.5,530,449,1.28,782.23,2.19,71.92,449,130,129.9,129,16873,33800,260,0.98,-0.04,0.11,-1.47,2.18,-0.83,-3.11,-81.42,-4.93,-16.88,-5.07,-4.85,-19.46,Left Fall while Standing
34:41.9,534,467,700.5,534,449,1.28,782.23,2.19,71.92,449,130,129.9,129,16873,50700,390,1,-0.06,0.08,-3.76,1.95,-0.9,-4.14,-82.71,-5.24,-16.88,-5.09,-5.2,-19.51,Left Fall while Standing
34:42.0,511,468,702,534,450,1.27,785.34,2.2,71.92,449,130,129.9,129,16873,67600,520,1,-0.05,0.09,-2.99,2.85,-2.79,-3.64,-82.24,-5.49,-16.8,-5.29,-5.42,-19.41,Left Fall while Standing
34:42.1,498,468,702,534,449,1.28,782.23,2.19,71.92,449,130,129.9,129,16873,84500,650,1.01,-0.06,0.11,-1.22,1.18,-1.86,-3.75,-81.52,-5.55,-16.88,-5.39,-5.48,-19.46,Left Fall while Standing
34:42.2,490,468,702,534,449,1.28,782.23,2.19,71.92,449,130,129.9,129,16873,101400,780,1.01,-0.05,0.08,-0.21,0.66,-2.72,-3.61,-82.85,-5.52,-17.01,-5.59,-5.44,-19.64,Left Fall while Standing
34:42.3,487,469,703.5,534,449,1.28,782.23,2.19,71.92,449,130,129.9,129,16873,118300,910,1.03,-0.05,0.09,-2.06,3.24,-4.37,-3.09,-82.9,-5.67,-16.89,-5.95,-5.57,-19.53,Left Fall while Standing
34:42.4,477,469,703.5,534,448,1.28,779.13,2.19,71.92,449,130,129.9,129,16873,135200,1040,1.01,-0.04,0.09,-1.7,0.02,-4.33,-2.81,-83.08,-5.78,-17.08,-6.3,-5.67,-19.72,Left Fall while Standing
34:42.5,480,469,703.5,534,450,1.27,785.34,2.2,71.92,449,130,129.9,129,16873,152100,1170,0.99,-0.03,0.08,-2.18,0.95,-4.31,-2.57,-83.25,-5.95,-17.19,-6.65,-5.81,-19.83,Left Fall while Standing
34:42.6,486,469,703.5,534,449,1.28,782.23,2.19,71.92,449,130,130,130,16899,0,0,1.01,-0.04,0.1,-3.65,5.47,-1.49,-2.94,-82.36,-6.26,-16.84,-6.72,-6.12,-19.46,Left Fall while Standing
34:42.7,495,469,703.5,534,449,1.28,782.23,2.19,71.92,449,130,130,130,16899,16900,130,0.99,-0.04,0.11,-2.28,0.95,-0.45,-2.97,-81.77,-6.43,-16.94,-6.69,-6.29,-19.54,Left Fall while Standing
34:46.3,236,236,354,236,448,1.28,779.13,2.19,0,0,129,0,0,0,33541,259,0.99,-0.04,0.1,-2.24,4.49,0.49,-3.02,-82.13,-0.31,-0.7,0.39,-0.42,-3.96,Right Fall while Standing
34:46.4,217,226,339,236,449,1.28,782.23,2.19,0,0,128,0,0,0,49925,387,1,-0.04,0.09,-5.46,1.69,2.71,-2.9,-82.89,-0.79,-0.73,0.73,-0.87,-4.02,Right Fall while Standing
34:46.5,234,229,343.5,236,448,1.28,779.13,2.19,0,0,129,0,0,0,66566,516,1,-0.03,0.14,-1.72,10.49,-1.06,-2.57,-80.24,-0.9,0.09,0.71,-0.97,-3.12,Right Fall while Standing
34:46.6,265,238,357,265,448,1.28,779.13,2.19,0,0,129,0,0,0,83207,645,0.98,-0.06,0.13,-2.44,-8.47,2.85,-3.82,-80.44,-1.08,-0.94,1.06,-1.19,-4.12,Right Fall while Standing
34:46.7,304,251,376.5,304,448,1.28,779.13,2.19,0,0,129,0,0,0,99848,774,0.98,-0.11,0.11,-2.86,-7.4,24.42,-7.21,-79.27,-1.31,-1.86,3.53,-1.55,-4.95,Right Fall while Standing
34:46.8,323,263,394.5,323,448,1.28,779.13,2.19,0,0,129,0,0,0,116489,903,0.99,-0.09,0.09,-4.21,26.47,25.25,-5.78,-80.94,-1.66,0.52,6.06,-1.83,-2.74,Right Fall while Standing
34:46.9,352,275,412.5,352,449,1.28,782.23,2.19,0,0,129,0,0,0,133130,1032,1.02,-0.17,0.12,-1.87,31.63,14.05,-9.74,-77.04,-1.79,3.42,7.51,-2.11,0.2,Right Fall while Standing
34:47.0,379,288,432,379,448,1.28,779.13,2.19,0,0,129,0,0,0,149771,1161,0.97,-0.19,0.18,-3.85,3.14,3.08,-11.62,-73.1,-2.11,3.53,7.89,-2.49,0.47,Right Fall while Standing
34:47.1,398,300,450,398,449,1.28,782.23,2.19,67.41,448,127,128.8,128,16589,0,0,0.96,-0.19,0.16,-3.13,1.76,7.63,-11.86,-73.59,-2.36,3.51,8.71,-2.74,0.43,Right Fall while Standing
34:47.2,417,312,468,417,448,1.28,779.13,2.19,67.41,448,128,128.8,128,16589,16384,128,0.98,-0.21,0.19,-7.59,13.96,9.97,-12.75,-72.09,-3.06,4.69,9.77,-3.45,1.62,Right Fall while Standing
34:47.3,418,322,483,418,448,1.28,779.13,2.19,67.41,448,129,128.8,128,16589,33025,257,0.94,-0.22,0.23,-11.15,-8.27,9.94,-13.16,-69.84,-4.11,3.68,10.84,-4.47,0.74,Right Fall while Standing
34:47.4,420,330,495,420,449,1.28,782.23,2.19,67.41,448,128,128.8,128,16589,49409,385,0.95,-0.22,0.17,-8.43,4.61,15.33,-13.21,-72.28,-4.89,3.94,12.45,-5.23,0.89,Right Fall while Standing
34:47.5,423,337,505.5,423,449,1.28,782.23,2.19,67.41,448,129,128.8,128,16589,66050,514,0.9,-0.28,0.2,-11.68,0.99,8.92,-17.71,-67.39,-6,3.84,13.41,-6.46,0.99,Right Fall while Standing
34:47.6,430,344,516,430,449,1.28,782.23,2.19,67.41,448,129,128.8,128,16589,82691,643,0.91,-0.29,0.25,-2.31,5.42,17.5,-17.9,-65.42,-6.17,4.18,15.22,-6.64,1.39,Right Fall while Standing
34:47.7,430,349,523.5,430,449,1.28,782.23,2.19,67.41,448,129,128.8,128,16589,99332,772,0.92,-0.31,0.24,4.32,5.2,11.95,-18.79,-65.17,-5.68,4.5,16.49,-6.2,1.71,Right Fall while Standing
34:47.8,444,355,532.5,444,449,1.28,782.23,2.19,67.41,448,129,128.8,128,16589,115973,901,0.93,-0.36,0.2,6.65,8.7,9.13,-21.1,-64.69,-4.97,5.16,17.48,-5.61,2.37,Right Fall while Standing
34:47.9,445,360,540,445,449,1.28,782.23,2.19,67.41,448,129,128.8,128,16589,132614,1030,0.89,-0.34,0.21,-5.01,6.83,11.25,-20.64,-64.68,-5.41,5.64,18.67,-6.02,2.83,Right Fall while Standing
34:48.0,441,365,547.5,445,449,1.28,782.23,2.19,67.41,448,129,128.8,128,16589,149255,1159,0.88,-0.39,0.28,-3.37,0.6,13.58,-23.27,-60.03,-5.69,5.5,20.1,-6.39,2.88,Right Fall while Standing
34:48.1,457,370,555,457,449,1.28,782.23,2.19,69.38,448,129,128.8,128,16588,0,0,0.88,-0.42,0.25,-5.24,5.43,13.11,-25.2,-59.39,-6.15,5.83,21.47,-6.91,3.23,Right Fall while Standing
34:48.2,458,374,561,458,449,1.28,782.23,2.19,69.38,448,129,128.8,128,16588,16641,129,0.91,-0.41,0.27,-3.66,-0.4,14.64,-23.6,-60.25,-6.45,5.6,23,-7.14,2.96,Right Fall while Standing
34:48.3,453,378,567,458,449,1.28,782.23,2.19,69.38,448,129,128.8,128,16588,33282,258,0.85,-0.46,0.24,-5.99,13.23,23.51,-28.18,-56.98,-7,6.72,25.43,-7.84,4.17,Right Fall while Standing
34:48.4,455,381,571.5,458,449,1.28,782.23,2.19,69.38,448,129,128.8,128,16588,49923,387,0.82,-0.5,0.29,-0.95,7.24,23.76,-30.22,-53.49,-7.03,7.24,27.86,-7.96,4.81,Right Fall while Standing
34:48.5,470,385,577.5,470,449,1.28,782.23,2.19,69.38,448,129,128.8,128,16588,66564,516,0.85,-0.53,0.27,0.25,0.4,15.46,-31.54,-53.07,-6.95,7.08,29.46,-7.94,4.68,Right Fall while Standing
34:48.6,468,389,583.5,470,449,1.28,782.23,2.19,69.38,448,129,128.8,128,16588,83205,645,0.82,-0.55,0.27,3.18,-2.21,8.17,-33.17,-51.61,-6.58,6.66,30.36,-7.64,4.33,Right Fall while Standing
34:48.7,466,392,588,470,450,1.27,785.34,2.2,69.38,448,128,128.8,128,16588,99589,773,0.8,-0.55,0.25,-0.11,-0.49,7.68,-34.14,-51.15,-6.54,6.41,31.2,-7.64,4.11,Right Fall while Standing
34:48.8,473,395,592.5,473,449,1.28,782.23,2.19,69.38,448,129,128.8,128,16588,116230,902,0.79,-0.57,0.24,-3.4,-1.1,6.22,-35.29,-50.24,-6.82,6.11,31.89,-7.96,3.85,Right Fall while Standing
34:48.9,483,398,597,483,449,1.28,782.23,2.19,69.38,448,129,128.8,128,16588,132871,1031,0.78,-0.58,0.26,-2.08,-2.37,5.96,-35.83,-49.32,-6.97,5.67,32.57,-8.12,3.47,Right Fall while Standing
34:49.0,494,401,601.5,494,449,1.28,782.23,2.19,69.38,448,129,128.8,128,16588,149512,1160,0.81,-0.58,0.26,-1.85,-2.14,6.19,-35,-50.27,-7.1,5.26,33.26,-8.21,3.04,Right Fall while Standing
34:49.1,500,405,607.5,500,449,1.28,782.23,2.19,71.29,449,130,129,129,16640,0,0,0.76,-0.6,0.26,-1.31,0.1,5.91,-37.11,-48.06,-7.17,5.07,33.92,-8.37,2.95,Right Fall while Standing
34:49.2,500,408,612,500,449,1.28,782.23,2.19,71.29,449,129,129,129,16640,16641,129,0.77,-0.59,0.26,1.02,1.47,7.98,-36.68,-48.38,-7.01,5.02,34.79,-8.2,2.89,Right Fall while Standing
34:49.3,504,411,616.5,504,449,1.28,782.23,2.19,71.29,449,129,129,129,16640,33282,258,0.75,-0.61,0.25,0.91,2.5,9.03,-38.21,-47.03,-6.87,5.07,35.77,-8.12,2.99,Right Fall while Standing
34:49.4,507,414,621,507,449,1.28,782.23,2.19,71.29,449,129,129,129,16640,49923,387,0.75,-0.63,0.25,-0.34,-1.33,5.46,-38.95,-46.39,-6.85,4.75,36.38,-8.13,2.7,Right Fall while Standing
34:49.5,518,417,625.5,518,449,1.28,782.23,2.19,71.29,449,129,129,129,16640,66564,516,0.74,-0.63,0.26,-2.35,-2.67,4.11,-39.28,-45.76,-7.03,4.28,36.87,-8.32,2.28,Right Fall while Standing
34:49.6,516,420,630,518,450,1.27,785.34,2.2,71.29,449,129,129,129,16640,83205,645,0.76,-0.65,0.26,0.11,-2.18,1.38,-39.5,-45.9,-6.96,3.87,37.08,-8.26,1.87,Right Fall while Standing
34:49.7,524,423,634.5,524,449,1.28,782.23,2.19,71.29,449,130,129,129,16640,100105,775,0.75,-0.64,0.26,-1.35,-1.22,-2.97,-39.22,-45.93,-7.04,3.55,36.87,-8.33,1.57,Right Fall while Standing
34:49.8,529,426,639,529,449,1.28,782.23,2.19,71.29,449,130,129,129,16640,117005,905,0.75,-0.63,0.23,-2.29,1.09,-2.22,-39.45,-46.43,-7.21,3.46,36.72,-8.5,1.46,Right Fall while Standing
34:49.9,536,429,643.5,536,449,1.28,782.23,2.19,71.29,449,130,129,129,16640,133905,1035,0.72,-0.64,0.25,-2.8,2.35,1.46,-40.37,-44.99,-7.44,3.49,36.95,-8.75,1.55,Right Fall while Standing
34:50.0,537,432,648,537,449,1.28,782.23,2.19,71.29,449,130,129,129,16640,150805,1165,0.78,-0.65,0.23,-2.65,-4.24,1.18,-39.08,-47.12,-7.64,2.87,37.14,-8.9,0.87,Right Fall while Standing
34:50.1,540,434,651,540,449,1.28,782.23,2.19,71.29,449,129,129.4,129,16743,0,0,0.73,-0.65,0.25,-1.02,1.41,-1.03,-40.88,-44.52,-7.69,2.81,37.12,-9.02,0.92,Right Fall while Standing
34:50.2,529,437,655.5,540,449,1.28,782.23,2.19,71.29,449,130,129.4,129,16743,16900,130,0.74,-0.64,0.25,-1.14,2.08,-2.81,-40.22,-45.36,-7.74,2.82,36.92,-9.04,0.9,Right Fall while Standing
34:50.3,518,439,658.5,540,449,1.28,782.23,2.19,71.29,449,129,129.4,129,16743,33541,259,0.75,-0.64,0.25,-2.6,0.21,-5.95,-39.56,-45.89,-7.95,2.64,36.41,-9.21,0.7,Right Fall while Standing
34:50.4,517,441,661.5,540,450,1.27,785.34,2.2,71.29,449,130,129.4,129,16743,50441,389,0.76,-0.63,0.25,-1.39,-1.8,-7.73,-38.41,-46.97,-8.03,2.26,35.71,-9.25,0.3,Right Fall while Standing
34:50.5,514,442,663,540,449,1.28,782.23,2.19,71.29,449,129,129.4,129,16743,67082,518,0.77,-0.61,0.25,0.91,-3.78,-11.05,-37.94,-47.59,-7.88,1.69,34.7,-9.09,-0.28,Right Fall while Standing
34:50.6,520,444,666,540,449,1.28,782.23,2.19,71.29,449,130,129.4,129,16743,83982,648,0.76,-0.6,0.24,-3.83,-1.48,-7.58,-37.57,-48,-8.21,1.35,34.03,-9.38,-0.63,Right Fall while Standing
34:50.7,523,446,669,540,450,1.27,785.34,2.2,71.29,449,130,129.4,129,16743,100882,778,0.78,-0.59,0.24,-3.34,0.24,-6.4,-36.55,-49.03,-8.49,1.17,33.46,-9.61,-0.84,Right Fall while Standing
34:50.8,533,448,672,540,449,1.28,782.23,2.19,71.29,449,130,129.4,129,16743,117782,908,0.8,-0.59,0.25,-1.77,-1.83,-9.37,-35.77,-49.73,-8.61,0.79,32.61,-9.7,-1.23,Right Fall while Standing
34:50.9,539,450,675,540,449,1.28,782.23,2.19,71.29,449,130,129.4,129,16743,134682,1038,0.8,-0.58,0.23,-2.08,-1.6,-8.07,-35.62,-50.32,-8.76,0.44,31.89,-9.83,-1.59,Right Fall while Standing
34:51.0,557,452,678,557,450,1.27,785.34,2.2,71.29,449,130,129.4,129,16743,151582,1168,0.81,-0.57,0.23,-3.3,-0.44,-13.78,-34.64,-51.18,-9.04,0.19,30.58,-10.06,-1.87,Right Fall while Standing
34:51.1,564,454,681,564,449,1.28,782.23,2.19,72.54,449,130,129.8,129,16847,0,0,0.82,-0.55,0.21,-4.31,-5.29,-29.31,-33.55,-52.79,-9.41,-0.53,27.75,-10.37,-2.62,Right Fall while Standing
34:51.2,574,457,685.5,574,449,1.28,782.23,2.19,72.54,449,130,129.8,129,16847,16900,130,0.82,-0.5,0.21,-6.16,-5.38,-34.76,-31.29,-54.87,-9.96,-1.26,24.39,-10.81,-3.41,Right Fall while Standing
34:51.3,575,459,688.5,575,449,1.28,782.23,2.19,72.54,449,130,129.8,129,16847,33800,260,0.85,-0.46,0.21,-6.6,-2.19,-20.58,-28.4,-57.54,-10.57,-1.69,22.39,-11.28,-3.92,Right Fall while Standing
34:51.4,572,461,691.5,575,449,1.28,782.23,2.19,72.54,449,130,129.8,129,16847,50700,390,0.9,-0.45,0.2,-6.84,2.15,-12.5,-26.68,-59.6,-11.2,-1.67,21.22,-11.82,-3.99,Right Fall while Standing
34:51.5,568,463,694.5,575,449,1.28,782.23,2.19,72.54,449,130,129.8,129,16847,67600,520,0.93,-0.45,0.22,-3.63,-6.94,-24.85,-25.69,-60.25,-11.51,-2.57,18.82,-12.07,-4.87,Right Fall while Standing
34:51.6,578,465,697.5,578,449,1.28,782.23,2.19,72.54,449,130,129.8,129,16847,84500,650,0.93,-0.4,0.2,-3.63,-5.98,-35.88,-23.43,-62.69,-11.82,-3.37,15.27,-12.28,-5.74,Right Fall while Standing
34:51.7,581,467,700.5,581,449,1.28,782.23,2.19,72.54,449,130,129.8,129,16847,101400,780,0.91,-0.33,0.16,-5.82,2.11,-32.95,-20.38,-66.32,-12.34,-3.36,12.06,-12.66,-5.88,Right Fall while Standing
34:51.8,580,469,703.5,581,449,1.28,782.23,2.19,72.54,449,130,129.8,129,16847,118300,910,0.91,-0.27,0.14,-9.4,-0.23,-23.36,-16.83,-70.04,-13.23,-3.58,9.8,-13.37,-6.24,Right Fall while Standing
34:51.9,573,471,706.5,581,449,1.28,782.23,2.19,72.54,449,130,129.8,129,16847,135200,1040,0.98,-0.27,0.2,-7.69,-5.77,-18.52,-15.54,-69.62,-13.95,-4.37,8.01,-14.01,-6.98,Right Fall while Standing
34:52.0,555,473,709.5,581,449,1.28,782.23,2.19,72.54,449,130,129.8,129,16847,152100,1170,1.01,-0.23,0.16,-1.15,-1.94,-21.57,-13.14,-73.06,-14.01,-4.76,5.93,-13.97,-7.49,Right Fall while Standing
34:52.1,551,474,711,581,449,1.28,782.23,2.19,70.66,449,130,130,130,16899,0,0,1,-0.18,0.15,-0.25,10.46,-23.56,-10.82,-75.12,-13.98,-3.92,3.68,-13.85,-6.77,Right Fall while Standing
34:52.2,524,475,712.5,581,449,1.28,782.23,2.19,70.66,449,130,130,130,16899,16900,130,1.02,-0.13,0.15,-3.12,5.29,-27,-7.71,-77.49,-14.24,-3.59,1.03,-13.97,-6.55,Right Fall while Standing
34:52.3,499,475,712.5,581,449,1.28,782.23,2.19,70.66,449,130,130,130,16899,33800,260,0.92,-0.04,0.13,-8.48,-3.44,-20.17,-3.3,-80.08,-15.02,-4.13,-0.89,-14.55,-7.17,Right Fall while Standing
34:52.4,476,475,712.5,581,449,1.28,782.23,2.19,70.66,449,130,130,130,16899,50700,390,0.94,-0.01,0.15,-16.54,8.21,17.91,-1.17,-79.14,-16.62,-3.51,0.98,-16,-6.53,Right Fall while Standing
34:52.5,507,476,714,581,449,1.28,782.23,2.19,70.66,449,130,130,130,16899,67600,520,1.1,-0.18,0.19,-17.69,-1.38,2.79,-9.92,-74.89,-18.33,-3.85,1.34,-17.99,-6.69,Right Fall while Standing
34:52.6,503,476,714,581,449,1.28,782.23,2.19,70.66,449,130,130,130,16899,84500,650,1.07,-0.14,0.22,-13.41,-12.05,-10.73,-7.93,-74.55,-19.62,-5.25,0.34,-19.15,-8.02,Right Fall while Standing
34:52.7,490,476,714,581,449,1.28,782.23,2.19,70.66,449,130,130,130,16899,101400,780,0.95,-0.16,0.2,0.09,-2.43,-3.57,-9.98,-73.56,-19.55,-5.7,0.07,-19.17,-8.41,Right Fall while Standing
34:52.8,477,476,714,581,449,1.28,782.23,2.19,70.66,449,130,130,130,16899,118300,910,0.97,-0.11,0.16,15.93,-4.21,-0.46,-7.14,-76.76,-17.9,-6.32,0.1,-17.47,-9.13,Right Fall while Standing
34:52.9,455,476,714,581,448,1.28,779.13,2.19,70.66,449,130,130,130,16899,135200,1040,0.95,-0.11,0.11,5.09,-3.25,6.11,-6.86,-79.29,-17.34,-6.84,0.79,-16.92,-9.74,Right Fall while Standing
34:53.0,459,476,714,581,449,1.28,782.23,2.19,70.66,449,130,130,130,16899,152100,1170,0.99,-0.11,0.1,-1.75,1.59,3.1,-6.83,-80.07,-17.45,-6.88,1.18,-17.03,-9.81,Right Fall while Standing
34:53.1,464,475,712.5,581,450,1.27,785.34,2.2,70.66,449,130,130,130,16899,0,0,1.02,-0.1,0.12,-0.6,-6.27,0.61,-6.28,-79.65,-17.46,-7.7,1.32,-17.01,-10.58,Right Fall while Standing
34:53.2,460,475,712.5,581,449,1.28,782.23,2.19,70.66,449,130,130,130,16899,16900,130,1.03,-0.15,0.09,-2.14,-3.51,-0.34,-8.62,-78.89,-17.62,-8.25,1.36,-17.26,-11.07,Right Fall while Standing
34:53.3,461,475,712.5,581,449,1.28,782.23,2.19,70.66,449,130,130,130,16899,33800,260,1.01,-0.15,0.12,-7.89,2.9,-1.31,-8.99,-77.8,-18.35,-8.16,1.31,-17.97,-10.94,Right Fall while Standing
34:53.4,455,475,712.5,581,449,1.28,782.23,2.19,70.66,449,130,130,130,16899,50700,390,0.99,-0.12,0.13,-3.66,5.03,-4.26,-7.41,-78.37,-18.66,-7.85,0.96,-18.21,-10.68,Right Fall while Standing
34:53.5,431,474,711,581,449,1.28,782.23,2.19,70.66,449,129,130,130,16899,67341,519,1,-0.12,0.15,0.87,1.15,-0.81,-7.37,-77.66,-18.52,-7.94,0.96,-18.07,-10.73,Right Fall while Standing
34:53.6,436,474,711,581,448,1.28,779.13,2.19,70.66,449,130,130,130,16899,84241,649,0.99,-0.14,0.13,-0.71,1.27,-0.43,-8.76,-77.25,-18.53,-8.01,1,-18.14,-10.78,Right Fall while Standing
34:53.7,448,473,709.5,581,450,1.27,785.34,2.2,70.66,449,129,130,130,16899,100882,778,1,-0.13,0.14,2.12,-2.42,-1.44,-7.78,-77.72,-18.26,-8.46,0.93,-17.84,-11.23,Right Fall while Standing
34:53.8,445,473,709.5,581,449,1.28,782.23,2.19,70.66,449,130,130,130,16899,117782,908,0.99,-0.13,0.12,3.53,-0.02,0.33,-7.94,-78.29,-17.85,-8.66,1.04,-17.46,-11.44,Right Fall while Standing
34:53.9,430,472,708,581,449,1.28,782.23,2.19,70.66,449,129,130,130,16899,134423,1037,0.97,-0.13,0.1,0.46,-2.73,-0.34,-8.08,-78.77,-17.75,-9.14,1.09,-17.36,-11.92,Right Fall while Standing
34:57.3,255,255,382.5,255,449,1.28,782.23,2.19,0,0,129,0,0,0,33802,260,1.05,-0.12,0.1,-1.05,-11.58,-8.03,-7.24,-79.82,-0.78,-3.24,-1,-1.04,-6.3,Forward Fall while Standing
34:57.4,240,247,370.5,255,449,1.28,782.23,2.19,0,0,129,0,0,0,50443,389,1.01,-0.09,0.03,-1.63,-16.11,-7.21,-5.94,-82.85,-0.89,-5.02,-1.63,-1.09,-8.13,Forward Fall while Standing
34:57.5,241,245,367.5,255,449,1.28,782.23,2.19,0,0,129,0,0,0,67084,518,1.05,-0.09,0.05,-2.98,-27.61,-4.66,-5.75,-82.68,-1.12,-7.89,-2.01,-1.31,-10.88,Forward Fall while Standing
34:57.6,283,254,381,283,448,1.28,779.13,2.19,0,0,129,0,0,0,83725,647,1.02,-0.08,-0.05,0.57,-7.9,-1.11,-4.95,-83.1,-1.01,-8.86,-2.04,-1.17,-11.83,Forward Fall while Standing
34:57.7,512,306,459,512,451,1.27,788.46,2.2,0,0,707,0,0,0,59286,1354,1.02,-0.08,-0.07,-1.05,-11.5,-1.6,-5,-82.59,-1.06,-10.2,-2.12,-1.22,-13.09,Forward Fall while Standing
34:57.8,511,340,510,512,451,1.27,788.46,2.2,0,0,742,0,0,0,85562,2096,1,-0.07,-0.13,-3.34,-31.24,-2.07,-4.64,-79.79,-1.33,-13.45,-2.25,-1.46,-16.11,Forward Fall while Standing
34:57.9,455,356,534,512,451,1.27,788.46,2.2,0,0,824,0,0,0,109178,2920,1.02,-0.08,-0.12,-1.37,-29.79,-3.59,-4.99,-80.23,-1.41,-16.6,-2.52,-1.56,-19.15,Forward Fall while Standing
34:58.0,480,372,558,512,451,1.27,788.46,2.2,0,0,759,0,0,0,95435,3679,1,-0.07,-0.21,2.99,-12.96,-5.44,-4.59,-76.18,-1.06,-18.08,-2.98,-1.2,-20.41,Forward Fall while Standing
34:58.1,460,381,571.5,512,451,1.27,788.46,2.2,76.77,450,316,80.13,399,6420,0,0,0.99,-0.06,-0.24,-1.08,-19.46,-1,-3.72,-74.23,-1.11,-20.18,-3,-1.22,-22.35,Forward Fall while Standing
34:58.2,464,390,585,512,451,1.27,788.46,2.2,76.77,450,309,80.13,399,6420,29945,309,1.02,-0.07,-0.27,-1.83,-12.94,-1.06,-4.54,-73.13,-1.24,-21.68,-3.03,-1.37,-23.74,Forward Fall while Standing
34:58.3,451,395,592.5,512,452,1.26,791.59,2.21,76.77,450,305,80.13,399,6420,57434,614,1,-0.07,-0.27,-0.98,-11.11,-2.61,-4.48,-72.61,-1.28,-23,-3.21,-1.41,-24.99,Forward Fall while Standing
34:58.4,440,399,598.5,512,451,1.27,788.46,2.2,76.77,450,304,80.13,399,6420,84314,918,0.98,-0.06,-0.31,-5.48,-20.45,-2.05,-4.09,-70.67,-1.77,-25.22,-3.34,-1.86,-27.04,Forward Fall while Standing
34:58.5,459,403,604.5,512,452,1.26,791.59,2.21,76.77,450,303,80.13,399,6420,110587,1221,0.96,-0.07,-0.33,5.98,-17.09,-0.38,-4.29,-68.9,-1.11,-27.13,-3.3,-1.24,-28.8,Forward Fall while Standing
34:58.6,469,408,612,512,451,1.27,788.46,2.2,76.77,450,303,80.13,399,6420,136860,1524,1.08,-0.07,-0.43,6.31,-19.86,0.03,-4.04,-66.3,-0.42,-29.34,-3.22,-0.56,-30.82,Forward Fall while Standing
34:58.7,488,413,619.5,512,451,1.27,788.46,2.2,76.77,450,304,80.13,399,6420,163740,1828,0.97,-0.07,-0.42,0.1,-17.66,0.38,-4.62,-64.67,-0.35,-31.31,-3.1,-0.52,-32.64,Forward Fall while Standing
34:58.8,495,418,627,512,451,1.27,788.46,2.2,76.77,450,306,80.13,399,6420,191840,2134,0.97,-0.08,-0.43,-3.64,-4.47,-2.34,-4.79,-64.05,-0.66,-31.95,-3.25,-0.82,-33.23,Forward Fall while Standing
34:58.9,495,423,634.5,512,451,1.27,788.46,2.2,76.77,450,311,80.13,399,6420,223025,2445,0.97,-0.08,-0.42,-5.78,-11.11,-2.17,-5.02,-64.53,-1.19,-33.27,-3.39,-1.34,-34.52,Forward Fall while Standing
34:59.0,481,426,639,512,451,1.27,788.46,2.2,76.77,450,318,80.13,399,6420,193077,2763,0.94,-0.06,-0.44,-3.22,-0.21,-3.76,-4.04,-63.07,-1.45,-33.49,-3.69,-1.56,-34.68,Forward Fall while Standing
34:59.1,477,429,643.5,512,451,1.27,788.46,2.2,83.5,451,465,145.84,322,21268,0,0,0.95,-0.06,-0.45,-3.98,-10.31,-3.17,-3.83,-62.7,-1.79,-34.71,-3.92,-1.87,-35.83,Forward Fall while Standing
34:59.2,469,431,646.5,512,451,1.27,788.46,2.2,83.5,451,597,145.84,322,21268,28729,597,0.94,-0.06,-0.49,-1.19,-0.82,-3.53,-3.8,-60.78,-1.85,-35,-4.2,-1.93,-36.03,Forward Fall while Standing
34:59.3,466,432,648,512,451,1.27,788.46,2.2,83.5,451,702,145.84,322,21268,4294964541,1299,0.92,-0.05,-0.47,-4.21,-5.86,-1.61,-3.62,-61.38,-2.22,-35.78,-4.28,-2.28,-36.81,Forward Fall while Standing
34:59.4,462,434,651,512,452,1.26,791.59,2.21,83.5,451,774,145.84,322,21268,6497,2073,0.92,-0.05,-0.49,-2.35,-5.46,-0.18,-3.45,-60.32,-2.4,-36.54,-4.22,-2.44,-37.49,Forward Fall while Standing
34:59.5,470,435,652.5,512,451,1.27,788.46,2.2,83.5,451,788,145.84,322,21268,37617,2861,0.93,-0.05,-0.49,-2.66,-7.93,-1.72,-3.53,-60.39,-2.61,-37.53,-4.31,-2.65,-38.45,Forward Fall while Standing
34:59.6,474,437,655.5,512,452,1.26,791.59,2.21,83.5,451,794,145.84,322,21268,12693,3655,0.92,-0.05,-0.54,-0.69,-6.79,-3.13,-3.21,-57.87,-2.62,-38.41,-4.55,-2.65,-39.19,Forward Fall while Standing
34:59.7,491,439,658.5,512,451,1.27,788.46,2.2,83.5,451,791,145.84,322,21268,4294950310,4446,0.93,-0.05,-0.51,-1.85,-3.28,-1.18,-3.35,-59.24,-2.75,-38.95,-4.59,-2.78,-39.76,Forward Fall while Standing
34:59.8,508,442,663,512,451,1.27,788.46,2.2,83.5,451,788,145.84,322,21268,14134,5234,0.92,-0.07,-0.55,0.24,-3.02,-1.17,-4.1,-57.56,-2.67,-39.45,-4.62,-2.73,-40.17,Forward Fall while Standing
34:59.9,503,444,666,512,451,1.27,788.46,2.2,83.5,451,787,145.84,322,21268,43679,6021,0.9,-0.06,-0.53,-0.85,-4.95,-4.29,-3.95,-57.62,-2.7,-40.14,-4.97,-2.75,-40.84,Forward Fall while Standing
35:00.0,510,446,669,512,452,1.26,791.59,2.21,83.5,451,785,145.84,322,21268,70080,6806,0.89,-0.05,-0.56,-2.92,-4.68,-1.69,-3.35,-56.28,-2.94,-40.82,-5.07,-2.96,-41.44,Forward Fall while Standing
35:00.1,528,449,673.5,528,451,1.27,788.46,2.2,84.04,451,786,99.02,759,9804,0,0,0.9,-0.05,-0.56,-1.4,-3.34,-2.6,-3.32,-56.43,-3.02,-41.34,-5.24,-3.04,-41.95,Forward Fall while Standing
35:00.2,534,452,678,534,451,1.27,788.46,2.2,84.04,451,785,99.02,759,9804,26401,785,0.9,-0.04,-0.57,-2.11,-7.21,-5.36,-2.6,-56.21,-3.18,-42.25,-5.69,-3.16,-42.81,Forward Fall while Standing
35:00.3,543,455,682.5,543,452,1.26,791.59,2.21,84.04,451,786,99.02,759,9804,54373,1571,0.89,-0.04,-0.58,-0.69,-4.02,-2.51,-2.69,-54.95,-3.19,-42.86,-5.87,-3.17,-43.35,Forward Fall while Standing
35:00.4,551,458,687,551,451,1.27,788.46,2.2,84.04,451,785,99.02,759,9804,80774,2356,0.88,-0.04,-0.59,-1.05,-2.69,-1.27,-2.6,-54.76,-3.24,-43.33,-5.92,-3.21,-43.79,Forward Fall while Standing
35:00.5,548,461,691.5,551,452,1.26,791.59,2.21,84.04,451,783,99.02,759,9804,104039,3139,0.89,-0.04,-0.58,-1.4,-1.91,-0.98,-2.87,-55.37,-3.32,-43.72,-5.93,-3.31,-44.18,Forward Fall while Standing
35:00.6,533,463,694.5,551,451,1.27,788.46,2.2,84.04,451,790,99.02,759,9804,72779,3929,0.88,-0.04,-0.59,0.21,-0.11,-1.81,-2.96,-54.22,-3.25,-43.93,-6.04,-3.23,-44.34,Forward Fall while Standing
35:00.7,527,464,696,551,451,1.27,788.46,2.2,84.04,451,785,99.02,759,9804,99180,4714,0.88,-0.04,-0.59,-1.79,-1.84,-1.56,-2.54,-54.75,-3.37,-44.31,-6.11,-3.33,-44.73,Forward Fall while Standing
35:00.8,499,465,697.5,551,451,1.27,788.46,2.2,84.04,451,788,99.02,759,9804,130300,5502,0.88,-0.03,-0.59,-0.47,-0.32,-1.94,-2.37,-54.56,-3.36,-44.54,-6.23,-3.32,-44.94,Forward Fall while Standing
35:00.9,494,466,699,551,451,1.27,788.46,2.2,84.04,451,793,99.02,759,9804,103789,6295,0.87,-0.05,-0.62,-1.06,0.07,-0.98,-3.17,-53.12,-3.41,-44.74,-6.25,-3.4,-45.07,Forward Fall while Standing
35:01.0,480,467,700.5,551,452,1.26,791.59,2.21,84.04,451,788,99.02,759,9804,134909,7083,0.87,-0.05,-0.59,-1.95,0.93,-0.51,-3.14,-54.03,-3.55,-44.85,-6.22,-3.53,-45.21,Forward Fall while Standing
35:01.1,478,467,700.5,551,451,1.27,788.46,2.2,84.04,451,787,128.24,787,16444,0,0,0.88,-0.04,-0.6,-1.71,0.42,-1.11,-2.7,-54.02,-3.66,-45,-6.25,-3.62,-45.36,Forward Fall while Standing
35:01.2,477,467,700.5,551,451,1.27,788.46,2.2,84.04,451,785,128.24,787,16444,26401,785,0.88,-0.04,-0.6,-0.63,3.56,-1.09,-2.85,-54.13,-3.67,-44.84,-6.28,-3.64,-45.21,Forward Fall while Standing
35:01.3,497,468,702,551,451,1.27,788.46,2.2,84.04,451,783,128.24,787,16444,49666,1568,0.86,-0.04,-0.61,-0.27,4.68,-0.56,-2.77,-53.29,-3.64,-44.57,-6.26,-3.6,-44.92,Forward Fall while Standing
35:01.4,508,469,703.5,551,451,1.27,788.46,2.2,84.04,451,793,128.24,787,16444,23155,2361,0.9,-0.05,-0.59,-1.21,7.76,0.22,-3.34,-54.93,-3.7,-44,-6.16,-3.69,-44.44,Forward Fall while Standing
35:01.5,505,470,705,551,451,1.27,788.46,2.2,84.04,451,784,128.24,787,16444,47987,3145,0.9,-0.05,-0.58,-2.82,8.31,-0.77,-3.3,-55.44,-3.93,-43.37,-6.16,-3.91,-43.85,Forward Fall while Standing
35:01.6,518,471,706.5,551,450,1.27,785.34,2.2,84.04,451,786,128.24,787,16444,75959,3931,0.9,-0.05,-0.55,-1.44,12.29,-0.7,-3.38,-56.89,-4.02,-42.34,-6.15,-3.99,-42.92,Forward Fall while Standing
35:01.7,532,472,708,551,451,1.27,788.46,2.2,84.04,451,784,128.24,787,16444,100791,4715,0.9,-0.06,-0.53,-0.5,12.98,0.18,-3.96,-57.54,-4.01,-41.24,-6.05,-4.01,-41.89,Forward Fall while Standing
35:01.8,510,473,709.5,551,451,1.27,788.46,2.2,84.04,451,785,128.24,787,16444,127192,5500,0.91,-0.06,-0.55,-0.79,12.27,-0.18,-3.74,-57.4,-4.04,-40.2,-5.99,-4.02,-40.89,Forward Fall while Standing
35:01.9,504,473,709.5,551,451,1.27,788.46,2.2,84.04,451,783,128.24,787,16444,150457,6283,0.93,-0.05,-0.52,-1.44,11.53,-2.57,-3.42,-59.24,-4.12,-39.25,-6.17,-4.09,-40.05,Forward Fall while Standing
35:02.0,530,475,712.5,551,451,1.27,788.46,2.2,84.04,451,787,128.24,787,16444,180002,7070,0.92,-0.05,-0.5,-2.82,9.19,-2.63,-3.14,-59.89,-4.35,-38.53,-6.35,-4.3,-39.39,Forward Fall while Standing
35:02.1,505,475,712.5,551,452,1.26,791.59,2.21,82.42,451,784,143.12,785,20482,0,0,0.94,-0.06,-0.47,-3.53,10.79,-0.31,-3.77,-61.71,-4.65,-37.65,-6.3,-4.61,-38.61,Forward Fall while Standing
35:02.2,486,475,712.5,551,451,1.27,788.46,2.2,82.42,451,786,143.12,785,20482,27972,786,0.95,-0.05,-0.45,0.01,18.31,-1.39,-3.5,-63.25,-4.59,-36.02,-6.36,-4.55,-37.11,Forward Fall while Standing
35:02.3,499,476,714,551,451,1.27,788.46,2.2,82.42,451,787,143.12,785,20482,57517,1573,0.98,-0.06,-0.43,5.26,33.09,1.5,-3.73,-64.38,-4.01,-32.94,-6.14,-4,-34.2,Forward Fall while Standing
35:02.4,525,477,715.5,551,452,1.26,791.59,2.21,82.42,451,793,143.12,785,20482,31006,2366,0.99,-0.07,-0.34,2.27,50.56,2.45,-4.41,-69.06,-3.73,-28.04,-5.81,-3.75,-29.68,Forward Fall while Standing
35:02.5,532,478,717,551,451,1.27,788.46,2.2,82.42,451,788,143.12,785,20482,62126,3154,0.98,-0.08,-0.25,4.08,50.95,3.8,-5.22,-73.39,-3.26,-23.14,-5.35,-3.34,-25.15,Forward Fall while Standing
35:02.6,520,479,718.5,551,451,1.27,788.46,2.2,82.42,451,793,143.12,785,20482,35615,3947,1.01,-0.08,-0.19,2.66,42.63,5.95,-5.27,-76.63,-2.94,-19.08,-4.68,-3.03,-21.38,Forward Fall while Standing
35:02.7,515,479,718.5,551,451,1.27,788.46,2.2,82.42,451,787,143.12,785,20482,65160,4734,1.02,-0.1,-0.1,-8.44,25.59,5.86,-6.36,-80.46,-3.73,-16.72,-4.01,-3.83,-19.27,Forward Fall while Standing
35:02.8,523,480,720,551,452,1.26,791.59,2.21,82.42,451,793,143.12,785,20482,38649,5527,1.05,-0.12,0.07,-4.53,16.56,-2.56,-7.18,-80.85,-4.12,-15.27,-4.19,-4.25,-17.89,Forward Fall while Standing
35:02.9,496,480,720,551,451,1.27,788.46,2.2,82.42,451,795,143.12,785,20482,15314,6322,0.97,-0.09,-0.01,13.66,32.64,-6.5,-5.87,-83.08,-2.7,-12.2,-4.76,-2.83,-15.04,Forward Fall while Standing
35:03.0,506,481,721.5,551,450,1.27,785.34,2.2,82.42,451,789,143.12,785,20482,48011,7111,0.96,-0.09,0,10.27,27.76,2.48,-5.85,-83.15,-1.62,-9.63,-4.43,-1.79,-12.57,Forward Fall while Standing
35:03.1,486,481,721.5,551,452,1.26,791.59,2.21,83.5,451,786,87.17,789,7597,0,0,0.97,-0.11,-0.04,2.48,9.56,4.56,-6.97,-81.66,-1.32,-8.89,-3.91,-1.55,-11.8,Forward Fall while Standing
35:03.2,470,481,721.5,551,451,1.27,788.46,2.2,83.5,451,787,87.17,789,7597,29545,787,1.04,-0.1,0.02,3.05,7.68,1.76,-5.94,-82.99,-0.96,-8.32,-3.65,-1.16,-11.3,Forward Fall while Standing
35:03.3,452,480,720,551,452,1.26,791.59,2.21,83.5,451,786,87.17,789,7597,57517,1573,1.01,-0.11,0.05,-4.41,3.39,3.77,-6.66,-81.72,-1.34,-8.18,-3.2,-1.55,-11.12,Forward Fall while Standing
35:03.4,466,480,720,551,451,1.27,788.46,2.2,83.5,451,792,87.17,789,7597,29421,2365,0.97,-0.09,0.05,-7.18,0.73,-1.41,-5.67,-82.45,-2,-8.31,-3.26,-2.14,-11.27,Forward Fall while Standing
35:03.5,478,480,720,551,451,1.27,788.46,2.2,83.5,451,788,87.17,789,7597,60541,3153,1.01,-0.11,0.05,-11.06,-3.69,4.81,-6.82,-81.62,-3.05,-8.88,-2.7,-3.2,-11.79,Forward Fall while Standing
35:03.6,480,480,720,551,452,1.26,791.59,2.21,83.5,451,788,87.17,789,7597,91661,3941,1.01,-0.13,0.09,-11.27,2.83,-3.64,-7.72,-79.8,-4.11,-8.79,-2.99,-4.25,-11.63,Forward Fall while Standing
35:03.7,478,480,720,551,451,1.27,788.46,2.2,83.5,451,789,87.17,789,7597,124358,4730,0.99,-0.14,0.05,-4.78,-6.59,-0.8,-8.89,-79.52,-4.53,-9.65,-2.99,-4.7,-12.45,Forward Fall while Standing
35:03.8,492,480,720,551,451,1.27,788.46,2.2,83.5,451,787,87.17,789,7597,153903,5517,0.99,-0.12,0.04,-2.03,-2.25,-0.83,-7.62,-80.96,-4.68,-10.08,-2.99,-4.79,-12.91,Forward Fall while Standing
35:03.9,493,480,720,551,452,1.26,791.59,2.21,83.5,451,789,87.17,789,7597,186600,6306,1.01,-0.12,0.06,-3.22,-1.17,4.17,-7.53,-80.68,-4.94,-10.39,-2.5,-5.04,-13.21,Forward Fall while Standing
35:04.0,493,480,720,551,451,1.27,788.46,2.2,83.5,451,790,87.17,789,7597,155340,7096,1.04,-0.15,0.05,-0.59,1.11,0.87,-8.88,-79.75,-4.94,-10.48,-2.33,-5.1,-13.25,Forward Fall while Standing
35:04.1,502,481,721.5,551,451,1.27,788.46,2.2,84.04,451,789,137.12,788,18802,0,0,1.01,-0.13,0.04,-0.15,-2.8,-3.05,-7.91,-80.76,-4.9,-10.96,-2.56,-5.02,-13.75,Forward Fall while Standing
35:04.2,504,481,721.5,551,452,1.26,791.59,2.21,84.04,451,789,137.12,788,18802,32697,789,1.01,-0.13,0.03,-3.43,0.02,0.45,-7.74,-81.07,-5.19,-11.16,-2.43,-5.29,-13.95,Forward Fall while Standing
35:04.3,510,481,721.5,551,451,1.27,788.46,2.2,84.04,451,791,137.12,788,18802,3018,1580,1,-0.16,0.03,-2.92,2.66,1.18,-9.46,-79.36,-5.42,-11.09,-2.24,-5.59,-13.82,Forward Fall while Standing
35:04.4,501,482,723,551,451,1.27,788.46,2.2,84.04,451,792,137.12,788,18802,4294942218,2372,1,-0.16,0.04,0.03,-0.98,-0.89,-9.46,-79.23,-5.36,-11.39,-2.25,-5.53,-14.11,Forward Fall while Standing
35:04.5,489,482,723,551,451,1.27,788.46,2.2,84.04,451,797,137.12,788,18802,4294922067,3169,0.99,-0.13,0.05,-3.42,-0.21,2.88,-8.27,-80.23,-5.65,-11.61,-1.88,-5.75,-14.36,Forward Fall while Standing
35:04.6,511,482,723,551,451,1.27,788.46,2.2,84.04,451,790,137.12,788,18802,4294890807,3959,1.01,-0.15,0.03,-1.31,1.24,1.5,-9,-79.84,-5.73,-11.69,-1.65,-5.86,-14.42,Forward Fall while Standing
35:04.7,512,483,724.5,551,451,1.27,788.46,2.2,84.04,451,794,137.12,788,18802,4294865883,4753,1.02,-0.16,0.04,0.49,-0.97,-3.31,-9.41,-79.36,-5.62,-11.99,-1.9,-5.77,-14.69,Forward Fall while Standing
35:04.8,491,483,724.5,551,452,1.26,791.59,2.21,84.04,451,785,137.12,788,18802,4294892284,5538,1,-0.15,0.01,-0.58,-0.99,-2.42,-8.87,-80.12,-5.62,-12.29,-2.07,-5.75,-15,Forward Fall while Standing
35:04.9,476,483,724.5,551,451,1.27,788.46,2.2,84.04,451,786,137.12,788,18802,4294920256,6324,1,-0.14,0.02,-2.42,2.88,-2.15,-8.63,-80.27,-5.81,-12.2,-2.2,-5.92,-14.92,Forward Fall while Standing
35:05.0,470,482,723,551,451,1.27,788.46,2.2,84.04,451,790,137.12,788,18802,4294888996,7114,1,-0.15,0.03,-1.44,0.02,-2.04,-9.05,-79.73,-5.9,-12.4,-2.33,-6.02,-15.09,Forward Fall while Standing
35:05.1,481,482,723,551,452,1.26,791.59,2.21,84.04,451,785,20724.18,789,429491552,0,0,1.01,-0.15,0.04,-1.76,2.13,-1.77,-9.01,-79.72,-6.02,-12.39,-2.43,-6.14,-15.08,Forward Fall while Standing
35:05.2,475,482,723,551,451,1.27,788.46,2.2,84.04,451,788,20724.18,789,429491552,31120,788,1,-0.14,0.03,-2.09,-1.23,0.11,-8.53,-80.25,-6.17,-12.71,-2.34,-6.27,-15.41,Forward Fall while Standing
35:15.6,106,106,159,106,450,1.27,785.34,2.2,0,0,790,0,0,0,1437,1579,1,-0.16,0.08,-3.46,6.51,-0.69,-9.63,-78.27,-0.57,-0.71,-0.16,-0.93,-3.82,Sitting
35:15.7,112,109,163.5,112,450,1.27,785.34,2.2,0,0,789,0,0,0,34134,2368,1,-0.16,0.09,-2.13,0.67,-2.02,-9.56,-78.06,-0.72,-0.84,-0.28,-1.08,-3.93,Sitting
35:15.8,159,125,187.5,159,450,1.27,785.34,2.2,0,0,793,0,0,0,7623,3161,1,-0.14,0.1,-2.18,-0.2,-1.35,-8.67,-78.65,-0.88,-1.06,-0.33,-1.19,-4.16,Sitting
35:15.8,231,152,228,231,451,1.27,788.46,2.2,0,0,786,0,0,0,35595,3947,1.01,-0.15,0.1,-2.4,3.57,-1.23,-9.21,-78.21,-1.06,-0.91,-0.37,-1.39,-4,Sitting
35:15.9,298,181,271.5,298,451,1.27,788.46,2.2,0,0,787,0,0,0,65140,4734,0.99,-0.15,0.09,-2.05,-1.07,-2.77,-9.02,-78.63,-1.21,-1.21,-0.57,-1.52,-4.31,Sitting
35:16.0,358,210,315,358,451,1.27,788.46,2.2,0,0,788,0,0,0,96260,5522,1,-0.15,0.09,-2.01,3.07,-1.87,-9.15,-78.39,-1.35,-1.11,-0.68,-1.66,-4.2,Sitting
35:16.1,396,237,355.5,396,451,1.27,788.46,2.2,0,0,786,0,0,0,124232,6308,1,-0.15,0.1,-2.15,1.81,-1.97,-9.28,-77.93,-1.5,-1.13,-0.79,-1.81,-4.2,Sitting
35:16.2,431,261,391.5,431,451,1.27,788.46,2.2,0,0,786,0,0,0,152204,7094,1,-0.14,0.1,-1.5,0.73,-1.92,-8.8,-78.27,-1.6,-1.25,-0.9,-1.88,-4.33,Sitting
35:16.3,447,282,423,447,451,1.27,788.46,2.2,81.32,450,789,135.98,788,18489,0,0,0.99,-0.14,0.09,-1.54,1.87,-1.46,-8.63,-78.88,-1.69,-1.26,-0.97,-1.97,-4.37,Sitting
35:16.4,465,300,450,465,451,1.27,788.46,2.2,81.32,450,792,135.98,788,18489,4294939200,792,0.99,-0.14,0.09,-1.82,1.06,-0.53,-8.58,-78.83,-1.82,-1.36,-0.94,-2.09,-4.46,Sitting
35:16.5,473,316,474,473,451,1.27,788.46,2.2,81.32,450,793,135.98,788,18489,4294912689,1585,1,-0.14,0.07,-1.85,-0.02,-0.02,-8.59,-79.41,-1.95,-1.56,-0.86,-2.21,-4.68,Sitting
35:16.6,487,330,495,487,451,1.27,788.46,2.2,81.32,450,790,135.98,788,18489,4294881429,2375,1.01,-0.15,0.09,-2.75,2.41,-1.48,-9.27,-78.25,-2.17,-1.52,-0.93,-2.45,-4.59,Sitting
35:16.7,484,342,513,487,451,1.27,788.46,2.2,81.32,450,792,135.98,788,18489,4294853333,3167,1.01,-0.14,0.1,-2.43,0.92,-2.34,-8.71,-78.4,-2.35,-1.63,-1.09,-2.61,-4.7,Sitting
35:16.8,492,352,528,492,451,1.27,788.46,2.2,81.32,450,790,135.98,788,18489,4294822073,3957,0.99,-0.15,0.09,-0.82,-0.18,-1.56,-9.09,-78.37,-2.38,-1.85,-1.16,-2.65,-4.91,Sitting
35:16.9,481,361,541.5,492,451,1.27,788.46,2.2,81.32,450,789,135.98,788,18489,4294854770,4746,0.99,-0.15,0.09,-2.09,2.23,-1.18,-9.16,-78.36,-2.53,-1.83,-1.2,-2.8,-4.89,Sitting
35:17.0,526,371,556.5,526,451,1.27,788.46,2.2,81.32,450,789,135.98,788,18489,4294887467,5535,1.01,-0.15,0.1,-1.43,0.12,-2.64,-8.75,-78.42,-2.62,-2.01,-1.39,-2.87,-5.07,Sitting
35:17.1,541,381,571.5,541,451,1.27,788.46,2.2,81.32,450,792,135.98,788,18489,4294859371,6327,1,-0.14,0.09,-1.95,-0.85,-1.49,-8.24,-79.13,-2.76,-2.3,-1.46,-2.98,-5.38,Sitting
35:17.2,530,389,583.5,541,452,1.26,791.59,2.21,81.32,450,789,135.98,788,18489,4294892068,7116,0.98,-0.14,0.09,-1.92,0.76,-1.37,-8.75,-78.73,-2.9,-2.43,-1.52,-3.13,-5.48,Sitting
35:17.3,518,396,594,541,451,1.27,788.46,2.2,82.96,451,788,20724.2,790,429492320,0,0,1.01,-0.14,0.1,-0.98,0.44,-1.21,-8.65,-78.59,-2.94,-2.58,-1.56,-3.17,-5.62,Sitting
35:17.4,512,402,603,541,451,1.27,788.46,2.2,82.96,451,792,20724.2,790,429492320,4294939200,792,1,-0.14,0.09,-1.78,-0.33,-0.85,-8.73,-78.73,-3.06,-2.82,-1.57,-3.29,-5.86,Sitting
35:17.5,516,407,610.5,541,451,1.27,788.46,2.2,82.96,451,794,20724.2,790,429492320,4294914276,1586,1,-0.13,0.08,-3.12,2.11,-2.02,-8.02,-79.58,-3.32,-2.81,-1.69,-3.51,-5.88,Sitting
35:17.6,535,413,619.5,541,451,1.27,788.46,2.2,82.96,451,794,20724.2,790,429492320,4294889352,2380,1.01,-0.14,0.09,-2.65,0.15,-0.2,-8.42,-79.07,-3.53,-3,-1.63,-3.73,-6.04,Sitting
35:17.7,522,418,627,541,451,1.27,788.46,2.2,82.96,451,791,20724.2,790,429492320,4294859673,3171,1,-0.14,0.09,-1.3,0.54,-0.97,-8.34,-78.98,-3.61,-3.15,-1.65,-3.8,-6.18,Sitting
35:17.8,521,422,633,541,452,1.26,791.59,2.21,82.96,451,789,20724.2,790,429492320,4294892370,3960,1.01,-0.14,0.08,-1.57,1.18,-1.83,-8.38,-79.34,-3.71,-3.23,-1.75,-3.9,-6.27,Sitting
35:17.9,521,426,639,541,451,1.27,788.46,2.2,82.96,451,789,20724.2,790,429492320,4294925067,4749,1,-0.15,0.09,-2.98,1.31,-2.87,-8.8,-78.86,-3.96,-3.3,-1.97,-4.15,-6.32,Sitting
35:18.1,526,430,645,541,451,1.27,788.46,2.2,82.96,451,789,20724.2,790,429492320,4294957764,5538,1,-0.14,0.08,-2.3,1.74,-2.69,-8.52,-79.14,-4.13,-3.33,-2.16,-4.31,-6.36,Sitting
35:18.2,514,433,649.5,541,451,1.27,788.46,2.2,82.96,451,791,20724.2,790,429492320,4294928085,6329,0.98,-0.13,0.09,-2.31,0.07,-0.76,-8.32,-78.96,-4.31,-3.52,-2.16,-4.47,-6.54,Sitting
35:18.3,499,435,652.5,541,451,1.27,788.46,2.2,82.96,451,791,20724.2,790,429492320,4294898406,7120,1,-0.14,0.09,-1.65,1.82,1.01,-8.46,-79.01,-4.42,-3.54,-1.97,-4.58,-6.56,Sitting
35:18.4,507,438,657,541,451,1.27,788.46,2.2,82.96,451,793,20724.07,791,429487200,0,0,1.01,-0.14,0.1,-1.41,1.25,-2.66,-8.45,-78.85,-4.5,-3.61,-2.16,-4.66,-6.62,Sitting
35:18.5,510,440,660,541,451,1.27,788.46,2.2,82.96,451,791,20724.07,791,429487200,4294937617,791,1,-0.14,0.1,-2.94,-0.92,-2.4,-8.28,-78.95,-4.75,-3.91,-2.32,-4.89,-6.91,Sitting
35:18.6,520,443,664.5,541,452,1.26,791.59,2.21,82.96,451,789,20724.07,791,429487200,3018,1580,1,-0.14,0.08,-3.23,0.46,-2.98,-8.4,-79.29,-5.01,-4.07,-2.54,-5.15,-7.07,Sitting
35:18.7,519,445,667.5,541,451,1.27,788.46,2.2,82.96,451,788,20724.07,791,429487200,34138,2368,1,-0.13,0.09,-2,-0.34,-2.23,-7.72,-79.72,-5.16,-4.3,-2.69,-5.26,-7.32,Sitting
35:18.8,501,447,670.5,541,451,1.27,788.46,2.2,82.96,451,789,20724.07,791,429487200,66835,3157,1,-0.13,0.08,-2.76,1.33,-2.05,-7.89,-79.71,-5.38,-4.37,-2.81,-5.48,-7.38,Sitting
35:18.9,502,448,672,541,451,1.27,788.46,2.2,82.96,451,786,20724.07,791,429487200,94807,3943,1,-0.12,0.08,-1.85,1.47,-2.31,-7.57,-80.06,-5.51,-4.42,-2.97,-5.59,-7.45,Sitting
35:19.0,487,449,673.5,541,451,1.27,788.46,2.2,82.96,451,787,20724.07,791,429487200,124352,4730,1.01,-0.12,0.09,-1.66,-0.73,-3.77,-7.38,-80.02,-5.62,-4.7,-3.27,-5.69,-7.71,Sitting
35:19.1,482,450,675,541,452,1.26,791.59,2.21,82.96,451,788,20724.07,791,429487200,155472,5518,1.01,-0.12,0.1,-2.47,0.87,-3.79,-7.55,-79.6,-5.82,-4.81,-3.57,-5.88,-7.8,Sitting
35:19.2,473,451,676.5,541,451,1.27,788.46,2.2,82.96,451,789,20724.07,791,429487200,188169,6307,0.99,-0.11,0.07,-2.97,0.79,-2.21,-7.15,-80.57,-6.06,-4.93,-3.71,-6.1,-7.96,Sitting
35:19.3,461,451,676.5,541,451,1.27,788.46,2.2,82.96,451,789,20724.07,791,429487200,220866,7096,1,-0.12,0.09,-2.66,1.81,-1.42,-7.16,-80.15,-6.27,-4.95,-3.78,-6.3,-7.96,Sitting
35:19.4,469,452,678,541,451,1.27,788.46,2.2,83.5,451,790,137.7,788,18959,0,0,1,-0.12,0.09,-2.31,-0.24,-2.53,-7.29,-80.08,-6.44,-5.17,-3.95,-6.47,-8.17,Sitting
35:19.5,468,452,678,541,451,1.27,788.46,2.2,83.5,451,790,137.7,788,18959,4294936036,790,1,-0.12,0.06,-3.2,-1.53,-1.35,-7.21,-80.87,-6.7,-5.53,-4.01,-6.72,-8.54,Sitting
35:19.6,469,452,678,541,451,1.27,788.46,2.2,83.5,451,789,137.7,788,18959,1437,1579,1,-0.12,0.07,-2.25,0.18,-0.03,-7.28,-80.6,-6.87,-5.71,-3.93,-6.89,-8.71,Sitting
35:19.7,486,453,679.5,541,451,1.27,788.46,2.2,83.5,451,789,137.7,788,18959,34134,2368,1,-0.12,0.07,-4.46,2.72,1.25,-7.17,-80.58,-7.26,-5.64,-3.73,-7.26,-8.64,Sitting
35:19.8,519,455,682.5,541,452,1.26,791.59,2.21,83.5,451,788,137.7,788,18959,65254,3156,1.01,-0.14,0.07,-0.91,-2.01,-1.15,-8.59,-79.6,-7.3,-6.03,-3.76,-7.35,-8.98,Sitting
35:19.9,528,456,684,541,451,1.27,788.46,2.2,83.5,451,789,137.7,788,18959,97951,3945,0.99,-0.13,0.07,-2.89,-1.31,-0.5,-7.8,-80.25,-7.53,-6.37,-3.73,-7.54,-9.32,Sitting
35:20.0,522,458,687,541,451,1.27,788.46,2.2,83.5,451,790,137.7,788,18959,66691,4735,1.02,-0.12,0.09,-0.42,-0.29,2.05,-7.36,-79.91,-7.52,-6.6,-3.45,-7.51,-9.53,Sitting
35:20.1,515,459,688.5,541,452,1.26,791.59,2.21,83.5,451,794,137.7,788,18959,41767,5529,1.01,-0.13,0.05,-1.73,-2.98,-1.12,-7.68,-80.75,-7.63,-7.09,-3.48,-7.63,-10.03,Sitting
35:20.2,515,460,690,541,451,1.27,788.46,2.2,83.5,451,790,137.7,788,18959,10507,6319,1.01,-0.12,0.05,-1.39,3.08,-2.06,-7.4,-80.98,-7.72,-6.98,-3.61,-7.7,-9.94,Sitting
35:20.3,513,461,691.5,541,451,1.27,788.46,2.2,83.5,451,790,137.7,788,18959,4294946543,7109,1.01,-0.13,0.07,-2.11,1.68,-2.83,-7.89,-80.09,-7.87,-7.01,-3.81,-7.87,-9.94,Sitting
35:20.4,509,462,693,541,451,1.27,788.46,2.2,83.5,451,793,20724.19,790,429492000,0,0,0.99,-0.12,0.07,-2.36,-0.39,-1.92,-7.29,-80.53,-8.05,-7.25,-3.93,-8.02,-10.18,Sitting
35:20.5,501,463,694.5,541,451,1.27,788.46,2.2,83.5,451,792,20724.19,790,429492000,4294939200,792,1,-0.12,0.05,-1.6,-0.08,-0.16,-7.4,-80.95,-8.16,-7.46,-3.86,-8.13,-10.4,Sitting
35:20.6,483,463,694.5,541,451,1.27,788.46,2.2,83.5,451,787,20724.19,790,429492000,1449,1579,1.02,-0.13,0.08,-1.05,1.38,-1.92,-7.94,-79.93,-8.21,-7.52,-3.98,-8.2,-10.42,Sitting
35:20.7,493,464,696,541,451,1.27,788.46,2.2,83.5,451,792,20724.19,790,429492000,4294940649,2371,1,-0.12,0.07,-1.24,0.08,-2.31,-7.37,-80.58,-8.27,-7.72,-4.13,-8.24,-10.63,Sitting
35:20.8,500,465,697.5,541,452,1.26,791.59,2.21,83.5,451,788,20724.19,790,429492000,4473,3159,1,-0.12,0.05,-2.25,2.01,-1.47,-7.41,-80.95,-8.45,-7.72,-4.2,-8.4,-10.65,Sitting
35:20.9,492,465,697.5,541,451,1.27,788.46,2.2,83.5,451,788,20724.19,790,429492000,35593,3947,1.01,-0.12,0.06,-1.66,0.02,-0.16,-7.38,-80.79,-8.56,-7.92,-4.13,-8.51,-10.83,Sitting
35:21.0,493,466,699,541,451,1.27,788.46,2.2,83.5,451,790,20724.19,790,429492000,4333,4737,1.01,-0.13,0.06,-1.53,0.81,-2.19,-7.64,-80.64,-8.65,-8.03,-4.27,-8.61,-10.94,Sitting
35:21.1,487,466,699,541,451,1.27,788.46,2.2,83.5,451,790,20724.19,790,429492000,4294940369,5527,1,-0.12,0.06,-2.09,0.38,-2.83,-7.29,-80.99,-8.81,-8.2,-4.48,-8.75,-11.11,Sitting
35:21.2,478,466,699,541,451,1.27,788.46,2.2,83.5,451,793,20724.19,790,429492000,4294913858,6320,1,-0.13,0.06,-1.57,1.14,0.68,-7.79,-80.32,-8.91,-8.29,-4.33,-8.87,-11.17,Sitting
35:21.3,486,467,700.5,541,451,1.27,788.46,2.2,83.5,451,792,20724.19,790,429492000,4294885762,7112,1.02,-0.13,0.05,-1.78,-0.05,-1.37,-7.6,-80.83,-9.04,-8.5,-4.39,-8.98,-11.39,Sitting
35:21.4,532,468,702,541,451,1.27,788.46,2.2,82.96,451,790,20724.03,790,429485440,0,0,1,-0.11,0.06,-1.27,1.11,-1.17,-6.98,-81.17,-9.11,-8.59,-4.43,-9.02,-11.49,Sitting
35:21.5,527,469,703.5,541,451,1.27,788.46,2.2,82.96,451,790,20724.03,790,429485440,4294936036,790,1,-0.12,0.07,-2.38,2.72,-1.44,-7.66,-80.43,-9.29,-8.51,-4.49,-9.23,-11.39,Sitting
35:21.6,515,469,703.5,541,451,1.27,788.46,2.2,82.96,451,792,20724.03,790,429485440,4294907940,1582,1,-0.12,0.06,-2.11,-0.57,-2.07,-7.54,-80.54,-9.45,-8.78,-4.63,-9.38,-11.65,Sitting
35:21.7,478,470,705,541,451,1.27,788.46,2.2,82.96,451,790,20724.03,790,429485440,4294876680,2372,1.01,-0.12,0.07,-1.5,2.17,-2.14,-7.05,-80.93,-9.55,-8.76,-4.76,-9.45,-11.65,Sitting
35:21.8,472,470,705,541,452,1.26,791.59,2.21,82.96,451,792,20724.03,790,429485440,4294848584,3164,1.01,-0.12,0.07,-1.91,1.4,-2.15,-7.32,-80.61,-9.68,-8.82,-4.9,-9.59,-11.69,Sitting
35:21.9,476,470,705,541,451,1.27,788.46,2.2,82.96,451,786,20724.03,790,429485440,4294876556,3950,0.99,-0.1,0.06,-2.18,1.95,-0.6,-6.45,-81.74,-9.85,-8.83,-4.88,-9.72,-11.74,Sitting
35:22.0,475,470,705,541,451,1.27,788.46,2.2,82.96,451,785,20724.03,790,429485440,4294902957,4735,1,-0.12,0.05,-2.76,1.49,-0.15,-7.31,-81.15,-10.07,-8.88,-4.81,-9.96,-11.77,Sitting
35:22.1,485,470,705,541,451,1.27,788.46,2.2,82.96,451,788,20724.03,790,429485440,4294934077,5523,1.02,-0.12,0.05,-3.44,1.96,0.45,-7.51,-80.87,-10.37,-8.88,-4.69,-10.25,-11.76,Sitting
35:22.2,494,470,705,541,451,1.27,788.46,2.2,82.96,451,788,20724.03,790,429485440,4294965197,6311,1.01,-0.11,0.08,-3.73,2.97,-1.22,-7.04,-80.38,-10.69,-8.78,-4.73,-10.54,-11.65,Sitting
35:22.3,493,471,706.5,541,451,1.27,788.46,2.2,82.96,451,797,20724.03,790,429485440,4294945046,7108,1.01,-0.12,0.08,-2.72,-0.56,-3.15,-7.38,-80.18,-10.91,-9.04,-4.97,-10.77,-11.89,Sitting
35:22.4,491,471,706.5,541,451,1.27,788.46,2.2,82.96,451,796,20724.2,790,429492320,0,0,1.01,-0.12,0.08,-2.49,1.12,-1.9,-7.52,-80.15,-11.1,-9.13,-5.08,-10.96,-11.97,Sitting
35:22.5,490,471,706.5,541,451,1.27,788.46,2.2,82.96,451,788,20724.2,790,429492320,31120,788,0.99,-0.12,0.07,-1.27,0.55,-4.12,-7.72,-80.33,-11.17,-9.28,-5.42,-11.04,-12.12,Sitting
35:22.6,480,471,706.5,541,451,1.27,788.46,2.2,82.96,451,789,20724.2,790,429492320,63817,1577,1,-0.12,0.07,-0.81,0.11,-0.53,-7.29,-80.64,-11.2,-9.47,-5.39,-11.04,-12.31,Sitting
35:22.7,474,471,706.5,541,452,1.26,791.59,2.21,82.96,451,790,20724.2,790,429492320,32557,2367,1.01,-0.11,0.06,-1.4,-0.53,-0.17,-6.85,-81.3,-11.28,-9.72,-5.33,-11.11,-12.59,Sitting
35:22.8,493,472,708,541,451,1.27,788.46,2.2,82.96,451,787,20724.2,790,429492320,62102,3154,1.01,-0.11,0.07,-1.97,0.98,-1.84,-7.02,-81,-11.43,-9.82,-5.44,-11.25,-12.67,Sitting
35:22.9,494,472,708,541,451,1.27,788.46,2.2,82.96,451,790,20724.2,790,429492320,30842,3944,1.01,-0.12,0.07,-1.6,1.04,-1.81,-7.23,-80.63,-11.53,-9.92,-5.54,-11.36,-12.75,Sitting
35:23.0,490,472,708,541,451,1.27,788.46,2.2,82.96,451,789,20724.2,790,429492320,63539,4733,0.99,-0.11,0.05,-2.05,-1.18,-1.55,-7.02,-81.31,-11.68,-10.24,-5.62,-11.5,-13.09,Sitting
35:23.1,492,472,708,541,452,1.26,791.59,2.21,82.96,451,788,20724.2,790,429492320,94659,5521,1,-0.12,0.05,-1.11,0.78,-0.47,-7.32,-81.2,-11.74,-10.37,-5.58,-11.56,-13.2,Sitting
35:27.1,218,218,327,218,451,1.27,788.46,2.2,0,0,784,0,0,0,52804,1570,1,-0.07,0.09,1.02,1.08,-3.81,-4.75,-81.97,-0.19,-0.05,-0.53,-0.38,-3.33,Left Fall while Sitting
35:27.2,106,162,243,218,451,1.27,788.46,2.2,0,0,788,0,0,0,83924,2358,1.02,-0.09,0.04,2.83,-3.01,-3.27,-5.77,-82.71,0.13,-0.54,-0.77,-0.1,-3.82,Left Fall while Sitting
35:27.3,107,143,214.5,218,450,1.27,785.34,2.2,0,0,790,0,0,0,52664,3148,1,-0.07,0.02,-0.88,1.09,0.62,-4.57,-84.28,0.1,-0.63,-0.63,-0.08,-3.97,Left Fall while Sitting
35:27.4,174,151,226.5,218,450,1.27,785.34,2.2,0,0,789,0,0,0,85361,3937,1.01,-0.07,0.03,-2.82,2.6,0.35,-4.57,-84.15,-0.12,-0.57,-0.52,-0.29,-3.91,Left Fall while Sitting
35:27.5,249,170,255,249,452,1.26,791.59,2.21,0,0,789,0,0,0,118058,4726,1.01,-0.07,0.07,-2.92,5.84,-0.11,-4.53,-82.72,-0.35,-0.19,-0.46,-0.52,-3.49,Left Fall while Sitting
35:27.6,322,196,294,322,452,1.26,791.59,2.21,0,0,788,0,0,0,149178,5514,1.02,-0.07,0.03,-6.27,-2.99,-0.74,-4.5,-84.04,-0.9,-0.67,-0.45,-1.05,-4.01,Left Fall while Sitting
35:27.7,390,223,334.5,390,451,1.27,788.46,2.2,0,0,787,0,0,0,178723,6301,1.02,-0.07,0.04,-4.66,-1.89,-10.72,-4.4,-83.89,-1.3,-1.05,-1.42,-1.43,-4.37,Left Fall while Sitting
35:27.8,419,248,372,419,451,1.27,788.46,2.2,0,0,786,0,0,0,206695,7087,1.01,-0.07,0.08,-4.72,0.78,-3.71,-4.26,-82.54,-1.72,-1.17,-1.71,-1.82,-4.43,Left Fall while Sitting
35:27.9,440,269,403.5,440,451,1.27,788.46,2.2,82.96,451,786,153.19,787,23465,0,0,0.99,-0.05,0.05,-0.92,-5.67,-6.26,-3.72,-84.14,-1.75,-1.93,-2.25,-1.83,-5.21,Left Fall while Sitting
35:28.0,464,288,432,464,452,1.26,791.59,2.21,82.96,451,792,153.19,787,23465,4294939200,792,0.99,-0.05,0.02,0.64,-0.47,-2.22,-3.27,-85.49,-1.63,-2.17,-2.39,-1.7,-5.5,Left Fall while Sitting
35:28.1,472,305,457.5,472,451,1.27,788.46,2.2,82.96,451,793,153.19,787,23465,4294912689,1585,1,-0.04,0.02,-1.93,0.54,2.88,-2.93,-85.85,-1.77,-2.32,-2.02,-1.82,-5.66,Left Fall while Sitting
35:28.2,513,322,483,513,452,1.26,791.59,2.21,82.96,451,794,153.19,787,23465,4294887765,2379,1.04,-0.05,0.03,-2.82,1.86,-1.87,-3.29,-85.28,-2,-2.33,-2.13,-2.05,-5.65,Left Fall while Sitting
35:28.3,518,337,505.5,518,451,1.27,788.46,2.2,82.96,451,794,153.19,787,23465,4294862841,3173,1.08,-0.06,0.02,-1.34,15.95,-23.57,-3.64,-85.14,-2.07,-0.92,-4.43,-2.14,-4.29,Left Fall while Sitting
35:28.4,497,349,523.5,518,451,1.27,788.46,2.2,82.96,451,792,153.19,787,23465,4294834745,3965,0.97,0.04,0.02,-3.11,-0.75,-24.48,1.65,-86.02,-2.33,-1.2,-6.82,-2.17,-4.59,Left Fall while Sitting
35:28.5,536,361,541.5,536,451,1.27,788.46,2.2,82.96,451,788,153.19,787,23465,4294865865,4753,1.01,0.07,0.08,-2.74,-2.44,-13.64,3.17,-82.55,-2.55,-1.65,-8.1,-2.32,-4.88,Left Fall while Sitting
35:28.6,530,372,558,536,451,1.27,788.46,2.2,82.96,451,789,153.19,787,23465,4294898562,5542,1.06,0.07,0.05,-2.55,-4.25,-23.8,3.06,-83.98,-2.75,-2.27,-10.41,-2.52,-5.54,Left Fall while Sitting
35:28.7,537,381,571.5,537,451,1.27,788.46,2.2,82.96,451,786,153.19,787,23465,4294926534,6328,0.96,0.11,0.04,2.26,-5.51,-37.05,6.13,-81.31,-2.46,-3.04,-14.1,-2.12,-6.17,Left Fall while Sitting
35:28.8,536,390,585,537,451,1.27,788.46,2.2,82.96,451,790,153.19,787,23465,4294895274,7118,0.96,0.19,0.06,-0.84,6,-29.09,10.36,-76.87,-2.49,-2.64,-16.93,-1.97,-5.61,Left Fall while Sitting
35:28.9,541,398,597,541,451,1.27,788.46,2.2,83.5,451,787,20724.2,790,429492480,0,0,0.97,0.23,0.06,-2.95,2.7,-17.42,12.64,-74.74,-2.73,-2.57,-18.58,-2.11,-5.46,Left Fall while Sitting
35:29.0,549,405,607.5,549,451,1.27,788.46,2.2,83.5,451,789,20724.2,790,429492480,32697,789,0.95,0.23,0.04,3.27,0.31,-16.66,12.96,-74.68,-2.34,-2.74,-20.18,-1.73,-5.62,Left Fall while Sitting
35:29.1,563,413,619.5,563,451,1.27,788.46,2.2,83.5,451,791,20724.2,790,429492480,3018,1580,0.99,0.27,0.04,2.3,-5.34,-13.81,14.64,-73.02,-2.05,-3.47,-21.49,-1.39,-6.25,Left Fall while Sitting
35:29.2,555,419,628.5,563,451,1.27,788.46,2.2,83.5,451,791,20724.2,790,429492480,4294940635,2371,1,0.29,0.03,0.7,0.64,-15.06,15.69,-72.09,-1.92,-3.61,-22.96,-1.22,-6.35,Left Fall while Sitting
35:29.3,535,424,636,563,451,1.27,788.46,2.2,83.5,451,793,20724.2,790,429492480,4294914124,3164,0.98,0.32,0.04,-1.45,2.96,-16.17,17.61,-70.04,-2.01,-3.52,-24.51,-1.23,-6.18,Left Fall while Sitting
35:29.4,523,428,642,563,452,1.26,791.59,2.21,83.5,451,792,20724.2,790,429492480,4294886028,3956,0.91,0.37,0.01,-3.56,-3.05,-21.27,21.72,-66.11,-2.32,-4.03,-26.58,-1.35,-6.51,Left Fall while Sitting
35:29.5,506,432,648,563,451,1.27,788.46,2.2,83.5,451,791,20724.2,790,429492480,4294856349,4747,0.91,0.39,0,-3.62,0.12,-18.24,22.76,-65.08,-2.63,-4.22,-28.36,-1.61,-6.65,Left Fall while Sitting
35:29.6,515,435,652.5,563,451,1.27,788.46,2.2,83.5,451,786,20724.2,790,429492480,4294884321,5533,0.89,0.41,0,-5.16,1.18,-10.36,24.15,-63.69,-3.1,-4.3,-29.33,-2.01,-6.68,Left Fall while Sitting
35:29.7,531,438,657,563,451,1.27,788.46,2.2,83.5,451,792,20724.2,790,429492480,4294856225,6325,0.87,0.4,0.01,-7.82,1.42,-3.05,24.08,-63.75,-3.83,-4.36,-29.56,-2.71,-6.74,Left Fall while Sitting
35:29.8,519,441,661.5,563,451,1.27,788.46,2.2,83.5,451,791,20724.2,790,429492480,4294826546,7116,0.91,0.39,0.04,-5.46,0.92,1.37,22.72,-65,-4.33,-4.47,-29.34,-3.25,-6.89,Left Fall while Sitting
35:29.9,513,444,666,563,452,1.26,791.59,2.21,83.5,451,789,20724.04,790,429485920,0,0,0.93,0.39,0.05,-1.03,2.63,-2.01,22.36,-65.31,-4.38,-4.41,-29.46,-3.31,-6.84,Left Fall while Sitting
35:30.0,491,445,667.5,563,451,1.27,788.46,2.2,83.5,451,790,20724.04,790,429485920,4294936036,790,0.93,0.4,0.04,3.56,-1.83,-10,22.79,-64.94,-3.96,-4.8,-30.4,-2.89,-7.2,Left Fall while Sitting
35:30.1,508,447,670.5,563,451,1.27,788.46,2.2,83.5,451,789,20724.04,790,429485920,1437,1579,0.92,0.43,0.03,3.79,-7.42,-9.82,24.44,-63.32,-3.52,-5.74,-31.3,-2.4,-8.04,Left Fall while Sitting
35:30.2,486,448,672,563,451,1.27,788.46,2.2,83.5,451,791,20724.04,790,429485920,4294939054,2370,0.89,0.45,0,4.39,-7.63,-6.86,26.06,-61.78,-3.02,-6.72,-31.92,-1.85,-8.93,Left Fall while Sitting
35:30.3,463,449,673.5,563,451,1.27,788.46,2.2,83.5,451,787,20724.04,790,429485920,1303,3157,0.91,0.45,0,4.07,-0.52,-0.56,25.68,-62.16,-2.55,-6.98,-31.9,-1.42,-9.18,Left Fall while Sitting
35:30.4,456,449,673.5,563,452,1.26,791.59,2.21,83.5,451,787,20724.04,790,429485920,30848,3944,0.9,0.44,-0.02,-2.24,1.33,6.3,25.67,-62.15,-2.72,-7.04,-31.19,-1.58,-9.25,Left Fall while Sitting
35:30.5,465,449,673.5,563,451,1.27,788.46,2.2,83.5,451,788,20724.04,790,429485920,61968,4732,0.94,0.39,-0.04,-1.65,7.41,6.73,22.1,-65.64,-2.82,-6.5,-30.44,-1.83,-8.87,Left Fall while Sitting
35:30.6,469,450,675,563,451,1.27,788.46,2.2,83.5,451,790,20724.04,790,429485920,30708,5522,0.93,0.4,-0.01,-4.12,5.49,-1.42,22.7,-65.14,-3.19,-6.15,-30.5,-2.15,-8.51,Left Fall while Sitting
35:30.7,472,451,676.5,563,451,1.27,788.46,2.2,83.5,451,789,20724.04,790,429485920,63405,6311,0.9,0.42,0,-4.25,4.83,0.63,24.62,-63.22,-3.56,-5.86,-30.36,-2.43,-8.16,Left Fall while Sitting
35:30.8,469,451,676.5,563,451,1.27,788.46,2.2,83.5,451,789,20724.04,790,429485920,96102,7100,0.89,0.41,0.03,-4.15,0.6,2.89,24.21,-63.57,-3.92,-6,-29.99,-2.79,-8.31,Left Fall while Sitting
35:30.9,473,452,678,563,452,1.26,791.59,2.21,83.5,451,790,80.52,789,6483,0,0,0.88,0.4,0.01,0.13,-10.39,9.51,24.04,-63.79,-3.85,-7.23,-28.97,-2.73,-9.49,Left Fall while Sitting
35:31.0,507,453,679.5,563,451,1.27,788.46,2.2,83.5,451,794,80.52,789,6483,4294942372,794,0.94,0.36,-0.01,1.67,-9.76,24.64,20.51,-67.32,-3.63,-8.4,-26.46,-2.66,-10.75,Left Fall while Sitting
35:31.1,506,454,681,563,451,1.27,788.46,2.2,83.5,451,790,80.52,789,6483,4294911112,1584,0.98,0.31,-0.02,1.05,12.03,18.18,16.9,-70.88,-3.46,-7.38,-24.54,-2.65,-9.92,Left Fall while Sitting
35:31.2,572,457,685.5,572,450,1.27,785.34,2.2,83.5,451,790,80.52,789,6483,4294879852,2374,0.94,0.32,-0.04,-5.97,11.09,6.62,18.31,-69.4,-4.01,-6.46,-23.79,-3.12,-8.98,Left Fall while Sitting
35:31.3,585,460,690,585,451,1.27,788.46,2.2,83.5,451,791,80.52,789,6483,4294850173,3165,0.93,0.34,-0.04,-7.57,0.34,17.46,19.47,-68.22,-4.7,-6.63,-21.99,-3.74,-9.09,Left Fall while Sitting
35:31.4,549,462,693,585,451,1.27,788.46,2.2,83.5,451,796,80.52,789,6483,4294828429,3961,1,0.24,0,-9.44,9.42,21.79,13.05,-74.79,-5.59,-5.89,-19.73,-4.85,-8.64,Left Fall while Sitting
35:31.5,489,463,694.5,585,451,1.27,788.46,2.2,83.5,451,794,80.52,789,6483,4294803505,4755,0.99,0.21,0.05,-9.34,5.15,17.66,11.17,-76.32,-6.48,-5.57,-17.86,-5.77,-8.4,Left Fall while Sitting
35:31.6,482,463,694.5,585,451,1.27,788.46,2.2,83.5,451,787,80.52,789,6483,4294833050,5542,0.96,0.16,0.05,-9.02,-12.05,27.37,9.02,-78.3,-7.33,-6.97,-15.05,-6.67,-9.83,Left Fall while Sitting
35:31.7,483,463,694.5,585,451,1.27,788.46,2.2,83.5,451,792,80.52,789,6483,4294804954,6334,1.03,0.12,0.02,-3.42,0.89,25.49,5.92,-81.85,-7.61,-7.09,-12.39,-7.07,-10.08,Left Fall while Sitting
35:31.8,484,464,696,585,451,1.27,788.46,2.2,83.5,451,789,80.52,789,6483,4294837651,7123,1.02,0.05,0.04,-0.45,8.45,23.44,2.43,-84.57,-7.6,-6.44,-9.97,-7.2,-9.57,Left Fall while Sitting
35:31.9,470,464,696,585,452,1.26,791.59,2.21,82.42,451,795,20723.93,791,429481440,0,0,1.02,0.04,0.04,0.6,1.72,21.02,1.59,-85.47,-7.49,-6.47,-7.81,-7.13,-9.63,Left Fall while Sitting
35:32.0,478,464,696,585,451,1.27,788.46,2.2,82.42,451,789,20723.93,791,429481440,32697,789,1.07,-0.03,0.08,4.72,10.63,16.41,-2.34,-83.56,-6.96,-5.61,-6.09,-6.78,-8.72,Left Fall while Sitting
35:32.1,492,465,697.5,585,451,1.27,788.46,2.2,82.42,451,787,20723.93,791,429481440,62242,1576,1.02,-0.02,0.01,-0.35,-2.75,15.7,-1.61,-87.13,-6.94,-6.08,-4.44,-6.73,-9.32,Left Fall while Sitting
35:32.2,503,465,697.5,585,451,1.27,788.46,2.2,82.42,451,788,20723.93,791,429481440,93362,2364,1.02,-0.04,0,0.29,2.47,4.94,-2.84,-86.15,-6.85,-6.03,-3.86,-6.69,-9.24,Left Fall while Sitting
35:32.3,521,467,700.5,585,451,1.27,788.46,2.2,82.42,451,789,20723.93,791,429481440,126059,3153,1.05,-0.06,0.05,-4.5,7.38,1.61,-4.02,-84.09,-7.25,-5.49,-3.62,-7.12,-8.63,Left Fall while Sitting
35:32.4,521,468,702,585,451,1.27,788.46,2.2,82.42,451,789,20723.93,791,429481440,158756,3942,1.06,-0.06,0.03,-6.95,0.46,-8.04,-3.82,-84.67,-7.89,-5.64,-4.35,-7.73,-8.81,Left Fall while Sitting
35:32.5,517,468,702,585,451,1.27,788.46,2.2,82.42,451,793,20723.93,791,429481440,132245,4735,1.01,0,0.03,-3.67,-0.47,-8.92,-0.62,-86.83,-8.21,-5.89,-5.17,-7.9,-9.13,Left Fall while Sitting
35:32.6,493,469,703.5,585,451,1.27,788.46,2.2,82.42,451,786,20723.93,791,429481440,160217,5521,1.01,-0.06,0.04,-4.5,2.51,-6.37,-3.96,-84.21,-8.6,-5.84,-5.73,-8.42,-8.98,Left Fall while Sitting
35:32.7,488,469,703.5,585,451,1.27,788.46,2.2,82.42,451,788,20723.93,791,429481440,191337,6309,0.99,-0.01,0.06,-3.21,1.59,-5.53,-1,-85.12,-8.87,-5.88,-6.21,-8.56,-9.05,Left Fall while Sitting
35:32.8,516,470,705,585,452,1.26,791.59,2.21,82.42,451,787,20723.93,791,429481440,220882,7096,0.99,0,0.05,-0.21,-0.2,-0.02,-0.73,-85.25,-8.84,-6.1,-6.13,-8.51,-9.27,Left Fall while Sitting
35:32.9,533,471,706.5,585,451,1.27,788.46,2.2,82.96,451,787,158.25,788,25041,0,0,1.02,-0.02,0.05,1.47,0.56,-1.13,-1.98,-85.21,-8.63,-6.25,-6.17,-8.37,-9.41,Left Fall while Sitting
35:33.0,538,472,708,585,451,1.27,788.46,2.2,82.96,451,787,158.25,788,25041,29545,787,1.01,-0.02,0.03,3.3,0.55,-0.23,-1.52,-86.54,-8.25,-6.39,-6.11,-7.98,-9.6,Left Fall while Sitting
35:33.1,534,473,709.5,585,452,1.26,791.59,2.21,82.96,451,789,158.25,788,25041,62242,1576,1.02,0,0.04,0.88,2.65,-0.96,-0.84,-85.91,-8.11,-6.33,-6.13,-7.82,-9.51,Left Fall while Sitting
35:33.2,540,474,711,585,451,1.27,788.46,2.2,82.96,451,788,158.25,788,25041,93362,2364,1.02,-0.02,0.03,-0.16,1.18,0.47,-1.94,-86.09,-8.07,-6.41,-6,-7.82,-9.6,Left Fall while Sitting
35:33.3,552,475,712.5,585,451,1.27,788.46,2.2,82.96,451,788,158.25,788,25041,124482,3152,1,-0.02,0.03,-0.89,1.16,-3.73,-1.6,-86.59,-8.1,-6.49,-6.29,-7.84,-9.7,Left Fall while Sitting
35:33.4,561,477,715.5,585,451,1.27,788.46,2.2,82.96,451,788,158.25,788,25041,155602,3940,1.01,-0.02,0.03,-0.81,-1.29,-1.18,-1.66,-86.58,-8.13,-6.82,-6.33,-7.87,-10.01,Left Fall while Sitting
35:36.6,219,219,328.5,219,450,1.27,785.34,2.2,0,0,786,0,0,0,57517,1573,0.97,-0.29,0.11,-1.39,1.81,-0.85,-17.22,-70.67,-0.74,0.54,0.09,-1.4,-2.31,Right Fall while Sitting
35:36.7,207,213,319.5,219,450,1.27,785.34,2.2,0,0,787,0,0,0,87062,2360,0.99,-0.3,0.11,-2.22,-3.44,-7.85,-17.44,-70.49,-0.91,0.01,-0.6,-1.57,-2.81,Right Fall while Sitting
35:36.8,223,216,324,223,450,1.27,785.34,2.2,0,0,787,0,0,0,116607,3147,0.98,-0.29,0.12,-0.5,0.69,0.87,-16.76,-70.83,-0.9,-0.12,-0.43,-1.54,-2.95,Right Fall while Sitting
35:36.9,276,231,346.5,276,450,1.27,785.34,2.2,0,0,787,0,0,0,146152,3934,0.98,-0.29,0.1,-2,2.76,1.87,-17.15,-70.79,-1.04,-0.05,-0.18,-1.69,-2.88,Right Fall while Sitting
35:37.0,350,255,382.5,350,450,1.27,785.34,2.2,0,0,793,0,0,0,119641,4727,0.94,-0.3,0.11,-0.79,0.78,-0.7,-17.9,-69.81,-1.06,-0.17,-0.17,-1.74,-2.96,Right Fall while Sitting
35:37.1,398,278,417,398,450,1.27,785.34,2.2,0,0,789,0,0,0,152338,5516,0.94,-0.29,0.1,-1.73,2.56,2.18,-17.66,-70.42,-1.18,-0.12,0.12,-1.84,-2.93,Right Fall while Sitting
35:37.2,435,301,451.5,435,450,1.27,785.34,2.2,0,0,792,0,0,0,124242,6308,0.96,-0.29,0.11,-2.97,-0.01,-0.05,-17.52,-70.32,-1.41,-0.31,0.19,-2.06,-3.11,Right Fall while Sitting
35:37.3,457,320,480,457,451,1.27,788.46,2.2,0,0,796,0,0,0,102498,7104,0.96,-0.29,0.1,-2.1,-1.98,-8.02,-17.36,-70.56,-1.56,-0.7,-0.52,-2.2,-3.5,Right Fall while Sitting
35:37.4,486,339,508.5,486,451,1.27,788.46,2.2,79.07,450,789,116.27,789,13518,0,0,0.97,-0.28,0.13,-0.99,-13.74,-26.76,-16.79,-70.44,-1.61,-2.25,-3.07,-2.21,-4.97,Right Fall while Sitting
35:37.5,501,355,532.5,501,451,1.27,788.46,2.2,79.07,450,789,116.27,789,13518,32697,789,0.95,-0.22,0.05,0.2,-8.81,-13.77,-13.72,-74.94,-1.53,-3.33,-4.37,-2.02,-6.19,Right Fall while Sitting
35:37.6,501,368,552,501,451,1.27,788.46,2.2,79.07,450,789,116.27,789,13518,65394,1578,0.98,-0.22,0.06,-7.74,-2.34,-3.83,-13.1,-75.45,-2.26,-3.77,-4.67,-2.69,-6.63,Right Fall while Sitting
35:37.7,545,383,574.5,545,451,1.27,788.46,2.2,79.07,450,791,116.27,789,13518,35715,2369,0.99,-0.23,0.08,-3.38,-0.84,0.31,-13.41,-74.87,-2.53,-4.05,-4.56,-2.97,-6.88,Right Fall while Sitting
35:37.8,595,399,598.5,595,451,1.27,788.46,2.2,79.07,450,790,116.27,789,13518,4455,3159,1,-0.23,0.07,-3.11,-0.97,-4.71,-13.76,-74.68,-2.79,-4.34,-4.96,-3.23,-7.16,Right Fall while Sitting
35:37.9,604,414,621,604,452,1.26,791.59,2.21,79.07,450,788,116.27,789,13518,35575,3947,1.02,-0.19,0.05,-3.22,0.48,-12.28,-11.35,-77.35,-3.06,-4.5,-6.11,-3.39,-7.41,Right Fall while Sitting
35:38.0,591,425,637.5,604,451,1.27,788.46,2.2,79.07,450,788,116.27,789,13518,66695,4735,0.99,-0.17,0.05,-7.35,-5.74,-19.55,-10.37,-78.22,-3.73,-5.27,-7.98,-4,-8.19,Right Fall while Sitting
35:38.1,564,434,651,604,451,1.27,788.46,2.2,79.07,450,788,116.27,789,13518,97815,5523,0.9,-0.13,0.07,-2.48,-8.08,12.76,-8.79,-79.1,-3.93,-6.28,-6.63,-4.12,-9.19,Right Fall while Sitting
35:38.2,541,440,660,604,450,1.27,785.34,2.2,79.07,450,788,116.27,789,13518,128935,6311,1.05,-0.24,0.04,0.5,11.04,32.69,-13.33,-75.47,-3.82,-5.37,-3.28,-4.2,-8.18,Right Fall while Sitting
35:38.3,528,445,667.5,604,450,1.27,785.34,2.2,79.07,450,785,116.27,789,13518,155336,7096,1.06,-0.25,0.07,3.5,1.72,13.35,-13.76,-74.74,-3.41,-5.4,-1.86,-3.83,-8.18,Right Fall while Sitting
35:38.4,523,449,673.5,604,451,1.27,788.46,2.2,81.87,450,788,136.55,788,18644,0,0,0.98,-0.27,0.06,-0.51,5.55,12.37,-15.73,-72.87,-3.41,-5.05,-0.57,-3.9,-7.77,Right Fall while Sitting
35:38.5,486,451,676.5,604,452,1.26,791.59,2.21,81.87,450,789,136.55,788,18644,32697,789,0.98,-0.32,0.08,-2.31,8.24,10.38,-18.34,-70.02,-3.58,-4.43,0.54,-4.17,-7.05,Right Fall while Sitting
35:38.6,456,451,676.5,604,451,1.27,788.46,2.2,81.87,450,787,136.55,788,18644,62242,1576,0.94,-0.32,0.08,0.32,2.16,9.76,-19.62,-68.81,-3.5,-4.41,1.6,-4.14,-6.99,Right Fall while Sitting
35:38.7,454,451,676.5,604,451,1.27,788.46,2.2,81.87,450,789,136.55,788,18644,94939,2365,0.93,-0.34,0.08,-2.99,5.46,11.58,-20.61,-67.81,-3.73,-4.08,2.81,-4.41,-6.62,Right Fall while Sitting
35:38.8,455,451,676.5,604,452,1.26,791.59,2.21,81.87,450,788,136.55,788,18644,126059,3153,0.95,-0.36,0.12,-0.28,4.92,12.34,-21.12,-66.72,-3.71,-3.78,4.14,-4.4,-6.3,Right Fall while Sitting
35:38.9,463,452,678,604,451,1.27,788.46,2.2,81.87,450,793,136.55,788,18644,99548,3946,0.92,-0.37,0.09,1.31,1.44,5.37,-22.11,-66.21,-3.52,-3.84,4.75,-4.26,-6.33,Right Fall while Sitting
35:39.0,486,453,679.5,604,451,1.27,788.46,2.2,81.87,450,790,136.55,788,18644,68288,4736,0.95,-0.41,0.11,-3.73,7.16,10.82,-23.62,-64.51,-3.83,-3.32,5.89,-4.63,-5.77,Right Fall while Sitting
35:39.1,496,455,682.5,604,451,1.27,788.46,2.2,81.87,450,787,136.55,788,18644,97833,5523,0.94,-0.4,0.1,-2.76,5.76,8.83,-23.69,-64.5,-4.05,-2.95,6.86,-4.84,-5.41,Right Fall while Sitting
35:39.2,485,456,684,604,451,1.27,788.46,2.2,81.87,450,794,136.55,788,18644,72909,6317,0.91,-0.42,0.1,0.83,-0.97,5.77,-25.28,-62.95,-3.91,-3.24,7.51,-4.77,-5.63,Right Fall while Sitting
35:39.3,465,456,684,604,451,1.27,788.46,2.2,81.87,450,789,136.55,788,18644,105606,7106,0.91,-0.43,0.1,-0.83,-1.04,5.88,-25.92,-62.33,-3.94,-3.55,8.17,-4.82,-5.9,Right Fall while Sitting
35:39.4,453,456,684,604,451,1.27,788.46,2.2,83.5,451,790,86.22,789,7433,0,0,0.91,-0.41,0.08,-2.53,-4,1.95,-24.7,-63.87,-4.14,-4.14,8.44,-4.96,-6.53,Right Fall while Sitting
35:39.5,458,456,684,604,451,1.27,788.46,2.2,83.5,451,790,86.22,789,7433,4294936036,790,0.91,-0.44,0.12,-4.5,-0.79,4.54,-26.27,-61.77,-4.53,-4.42,8.97,-5.4,-6.71,Right Fall while Sitting
35:39.6,463,456,684,604,450,1.27,785.34,2.2,83.5,451,799,86.22,789,7433,4294919077,1589,0.92,-0.45,0.09,-2.55,-2.26,2.58,-26.86,-61.6,-4.73,-4.84,9.31,-5.61,-7.11,Right Fall while Sitting
35:39.7,484,457,685.5,604,451,1.27,788.46,2.2,83.5,451,800,86.22,789,7433,4294903717,2389,0.95,-0.46,0.08,0.95,2.4,2.72,-26.43,-62.14,-4.57,-4.8,9.66,-5.45,-7.1,Right Fall while Sitting
35:39.8,485,458,687,604,452,1.26,791.59,2.21,83.5,451,790,86.22,789,7433,4294872457,3179,0.91,-0.46,0.08,-0.65,3.45,2.95,-27.32,-61.19,-4.58,-4.66,10.03,-5.49,-6.92,Right Fall while Sitting
35:39.9,498,459,688.5,604,451,1.27,788.46,2.2,83.5,451,790,86.22,789,7433,4294841197,3969,0.91,-0.48,0.09,-1.49,2.21,3.96,-28.15,-60.31,-4.68,-4.64,10.51,-5.61,-6.86,Right Fall while Sitting
35:40.0,506,461,691.5,604,452,1.26,791.59,2.21,83.5,451,787,86.22,789,7433,4294870742,4756,0.9,-0.48,0.11,1.61,-0.11,3.24,-28.53,-59.71,-4.46,-4.85,10.92,-5.42,-7.05,Right Fall while Sitting
35:40.1,489,461,691.5,604,451,1.27,788.46,2.2,83.5,451,791,86.22,789,7433,4294841063,5547,0.9,-0.49,0.1,-1.64,4.49,2.94,-29.02,-59.3,-4.56,-4.6,11.29,-5.54,-6.79,Right Fall while Sitting
35:40.2,491,462,693,604,451,1.27,788.46,2.2,83.5,451,791,86.22,789,7433,4294811384,6338,0.88,-0.49,0.1,-0.5,2.36,0.76,-29.42,-58.88,-4.56,-4.57,11.44,-5.55,-6.74,Right Fall while Sitting
35:40.3,482,463,694.5,604,451,1.27,788.46,2.2,83.5,451,792,86.22,789,7433,4294783288,7130,0.9,-0.49,0.1,-0.76,3.69,-0.53,-28.74,-59.56,-4.58,-4.4,11.47,-5.54,-6.6,Right Fall while Sitting
35:40.4,486,463,694.5,604,451,1.27,788.46,2.2,82.96,451,791,20723.79,792,429475360,0,0,0.89,-0.5,0.13,-1.8,4.35,-2.47,-29.41,-58.58,-4.7,-4.16,11.3,-5.69,-6.34,Right Fall while Sitting
35:40.5,478,464,696,604,451,1.27,788.46,2.2,82.96,451,793,20723.79,792,429475360,4294940785,793,0.89,-0.49,0.12,-1.78,-0.11,-4,-29.07,-58.94,-4.83,-4.38,10.98,-5.8,-6.56,Right Fall while Sitting
35:40.6,492,464,696,604,452,1.26,791.59,2.21,82.96,451,785,20723.79,792,429475360,4294967186,1578,0.89,-0.48,0.12,-3.66,-3.81,-8.42,-28.94,-59.08,-5.14,-4.97,10.2,-6.09,-7.14,Right Fall while Sitting
35:40.7,490,465,697.5,604,451,1.27,788.46,2.2,82.96,451,788,20723.79,792,429475360,31010,2366,0.9,-0.47,0.11,-2.7,-0.97,-1.88,-27.99,-60.25,-5.36,-5.27,10.09,-6.26,-7.47,Right Fall while Sitting
35:40.8,491,465,697.5,604,451,1.27,788.46,2.2,82.96,451,791,20723.79,792,429475360,1331,3157,0.88,-0.48,0.12,-3.9,-0.4,-3.29,-29.12,-58.9,-5.7,-5.51,9.84,-6.63,-7.65,Right Fall while Sitting
35:40.9,483,466,699,604,452,1.26,791.59,2.21,82.96,451,789,20723.79,792,429475360,34028,3946,0.89,-0.48,0.08,-2.47,0.92,0.69,-28.5,-60.02,-5.89,-5.62,9.98,-6.79,-7.8,Right Fall while Sitting
35:41.0,492,466,699,604,451,1.27,788.46,2.2,82.96,451,795,20723.79,792,429475360,10693,4741,0.89,-0.47,0.1,-1.55,2.4,0.02,-27.95,-60.32,-5.99,-5.58,10.06,-6.87,-7.77,Right Fall while Sitting
35:41.1,498,467,700.5,604,451,1.27,788.46,2.2,82.96,451,792,20723.79,792,429475360,4294949893,5533,0.9,-0.47,0.1,-0.59,0.63,-1.08,-28.18,-60.2,-5.99,-5.72,10.03,-6.88,-7.9,Right Fall while Sitting
35:41.2,508,468,702,604,452,1.26,791.59,2.21,82.96,451,788,20723.79,792,429475360,13717,6321,0.9,-0.47,0.08,-2.96,1.78,-3.25,-28.08,-60.51,-6.23,-5.74,9.79,-7.1,-7.93,Right Fall while Sitting
35:41.3,516,469,703.5,604,451,1.27,788.46,2.2,82.96,451,789,20723.79,792,429475360,46414,7110,0.87,-0.47,0.11,-6,-1.69,-4.13,-28.84,-59.28,-6.77,-6.11,9.45,-7.66,-8.24,Right Fall while Sitting
35:41.4,514,470,705,604,451,1.27,788.46,2.2,84.04,451,790,38.92,790,1514,0,0,0.93,-0.47,0.12,-2.98,-7.49,-6.01,-27.41,-60.63,-7.01,-7.05,8.94,-7.83,-9.19,Right Fall while Sitting
35:41.5,501,470,705,604,451,1.27,788.46,2.2,84.04,451,789,38.92,790,1514,32697,789,0.92,-0.47,0.07,-1.48,-9.72,-12.05,-27.48,-61.23,-7.1,-8.21,7.82,-7.92,-10.33,Right Fall while Sitting
35:41.6,491,471,706.5,604,451,1.27,788.46,2.2,84.04,451,788,38.92,790,1514,63817,1577,0.92,-0.46,0.09,-5.63,-0.98,-15.98,-26.89,-61.52,-7.61,-8.51,6.3,-8.38,-10.63,Right Fall while Sitting
35:41.7,503,471,706.5,604,451,1.27,788.46,2.2,84.04,451,788,38.92,790,1514,94937,2365,0.89,-0.41,0.05,-3.51,-3.71,-18.21,-25.49,-63.32,-7.91,-9.08,4.56,-8.61,-11.25,Right Fall while Sitting
35:41.8,497,472,708,604,451,1.27,788.46,2.2,84.04,451,789,38.92,790,1514,127634,3154,0.91,-0.39,0.02,-6.11,-7.52,-11.03,-23.71,-65.27,-8.46,-10.03,3.54,-9.07,-12.24,Right Fall while Sitting
35:41.9,505,473,709.5,604,451,1.27,788.46,2.2,84.04,451,791,38.92,790,1514,97955,3945,0.95,-0.38,0.04,-11.32,-5.63,-8.2,-22.63,-66.24,-9.53,-10.79,2.81,-10.05,-13.01,Right Fall while Sitting
35:42.0,509,473,709.5,604,451,1.27,788.46,2.2,84.04,451,786,38.92,790,1514,125927,4731,0.94,-0.4,0.04,-6.03,-4.37,-13.22,-23.56,-65.31,-10.08,-11.43,1.55,-10.62,-13.59,Right Fall while Sitting
35:42.1,541,474,711,604,451,1.27,788.46,2.2,84.04,451,794,38.92,790,1514,101003,5525,0.94,-0.38,0.01,-5.03,-6.34,-18.28,-22.34,-66.64,-10.53,-12.27,-0.22,-11,-14.45,Right Fall while Sitting
35:42.2,520,475,712.5,604,451,1.27,788.46,2.2,84.04,451,786,38.92,790,1514,128975,6311,0.97,-0.34,0,-7.37,-5.27,-23.57,-19.82,-69.18,-11.21,-13,-2.5,-11.56,-15.25,Right Fall while Sitting
35:42.3,518,476,714,604,451,1.27,788.46,2.2,84.04,451,788,38.92,790,1514,160095,7099,1.02,-0.27,0.02,-4.93,-1.25,-34.31,-15.26,-73.71,-11.65,-13.33,-5.88,-11.8,-15.75,Right Fall while Sitting
35:42.4,535,477,715.5,604,451,1.27,788.46,2.2,82.42,451,788,138.28,788,19120,0,0,1.03,-0.19,0,-2.44,8.33,-38.56,-11.16,-77.84,-11.84,-12.7,-9.62,-11.81,-15.31,Right Fall while Sitting
35:42.5,601,479,718.5,604,450,1.27,785.34,2.2,82.42,451,796,138.28,788,19120,4294945552,796,1.02,-0.14,-0.01,-7.88,-17.69,-33.9,-8.29,-80.67,-12.59,-14.73,-13.03,-12.42,-17.37,Right Fall while Sitting
35:42.6,594,481,721.5,604,451,1.27,788.46,2.2,82.42,451,787,138.28,788,19120,7801,1583,1,-0.09,-0.05,-7.58,3.5,-20.43,-5.64,-82.5,-13.3,-14.58,-14.99,-12.99,-17.3,Right Fall while Sitting
35:42.7,571,482,723,604,451,1.27,788.46,2.2,82.42,451,788,138.28,788,19120,38921,2371,1.01,-0.06,-0.03,-10.08,9.88,-13.15,-4.04,-84.67,-14.26,-13.79,-16.24,-13.85,-16.62,Right Fall while Sitting
35:42.8,578,484,726,604,452,1.26,791.59,2.21,82.42,451,790,138.28,788,19120,7661,3161,1.05,-0.06,-0.04,-7.55,-4.28,-17.27,-3.61,-84.73,-14.96,-14.42,-17.91,-14.51,-17.23,Right Fall while Sitting
35:42.9,566,485,727.5,604,451,1.27,788.46,2.2,82.42,451,784,138.28,788,19120,32493,3945,1.04,-0.02,0.01,-3.71,5.11,-21.31,-1.48,-87.43,-15.28,-14.11,-19.98,-14.73,-17.04,Right Fall while Sitting
35:43.0,540,486,729,604,451,1.27,788.46,2.2,82.42,451,791,138.28,788,19120,2814,4736,1.03,0.03,-0.01,-10.63,-6.41,-12.79,1.22,-86.58,-16.29,-14.95,-21.18,-15.59,-17.81,Right Fall while Sitting
35:43.1,516,486,729,604,451,1.27,788.46,2.2,82.42,451,792,138.28,788,19120,4294942014,5528,1.01,0.03,0.01,-1.56,14.46,-15.53,1.06,-86.7,-16.39,-13.68,-22.68,-15.69,-16.6,Right Fall while Sitting
35:43.2,487,486,729,604,451,1.27,788.46,2.2,82.42,451,790,138.28,788,19120,4294910754,6318,0.94,0.08,0.01,-4.63,3.27,-5.18,4.1,-83.69,-16.8,-13.55,-23.13,-15.96,-16.36,Right Fall while Sitting
35:43.3,461,486,729,604,451,1.27,788.46,2.2,82.42,451,802,138.28,788,19120,4294898598,7120,0.95,0.06,-0.02,-5,1.96,10.57,3.01,-84.68,-17.25,-13.55,-21.98,-16.44,-16.4,Right Fall while Sitting
35:43.4,478,486,729,604,451,1.27,788.46,2.2,82.42,451,790,20724.06,791,429486720,0,0,1.01,0.02,-0.01,-4.45,-1.4,9.81,0.32,-87.47,-17.64,-13.89,-20.92,-16.92,-16.84,Right Fall while Sitting
35:43.5,477,486,729,604,451,1.27,788.46,2.2,82.42,451,789,20724.06,791,429486720,32697,789,1.03,0.02,0,-2.24,-3.44,3.01,0.63,-87.2,-17.81,-14.44,-20.54,-17.07,-17.35,Right Fall while Sitting
35:43.6,494,486,729,604,452,1.26,791.59,2.21,82.42,451,787,20724.06,791,429486720,62242,1576,1.04,0.01,-0.01,-1.11,-3.02,2.5,-0.23,-87.96,-17.86,-14.96,-20.2,-17.16,-17.88,Right Fall while Sitting
35:43.7,491,486,729,604,451,1.27,788.46,2.2,82.42,451,784,20724.06,791,429486720,87074,2360,1.03,0.01,-0.01,-0.57,2.41,0.82,-0.02,-87.78,-17.87,-14.91,-20.04,-17.15,-17.83,Right Fall while Sitting
35:43.8,499,486,729,604,451,1.27,788.46,2.2,82.42,451,789,20724.06,791,429486720,119771,3149,1.02,-0.01,-0.01,1.19,-0.72,-0.27,-0.89,-87.98,-17.69,-15.19,-19.99,-17.02,-18.1,Right Fall while Sitting
35:43.9,478,486,729,604,451,1.27,788.46,2.2,82.42,451,788,20724.06,791,429486720,150891,3937,1.02,0.01,-0.03,0,-0.83,-0.3,-0.11,-86.93,-17.63,-15.48,-19.94,-16.93,-18.34,Right Fall while Sitting
35:44.0,464,486,729,604,451,1.27,788.46,2.2,82.42,451,788,20724.06,791,429486720,182011,4725,1.01,0.01,-0.03,-0.58,-1.43,-0.24,0.06,-86.68,-17.63,-15.83,-19.88,-16.93,-18.66,Right Fall while Sitting
35:44.1,467,485,727.5,604,452,1.26,791.59,2.21,82.42,451,789,20724.06,791,429486720,214708,5514,1.01,0.01,-0.01,0.89,3.64,1.78,-0.28,-87.75,-17.49,-15.66,-19.62,-16.8,-18.54,Right Fall while Sitting
35:44.2,476,485,727.5,604,451,1.27,788.46,2.2,82.42,451,789,20724.06,791,429486720,247405,6303,1.01,0,-0.04,-1.06,-1.13,-0.16,-0.59,-86.12,-17.54,-15.98,-19.56,-16.86,-18.79,Right Fall while Sitting
35:44.3,487,485,727.5,604,451,1.27,788.46,2.2,82.42,451,788,20724.06,791,429486720,278525,7091,1.02,-0.01,-0.03,-1.63,2.07,-0.35,-1.32,-86.53,-17.65,-15.97,-19.51,-16.99,-18.8,Right Fall while Sitting
35:44.4,489,485,727.5,604,451,1.27,788.46,2.2,83.5,451,793,158.75,788,25200,0,0,1.02,0,-0.02,-2.05,1.04,0.06,-0.66,-87.48,-17.8,-16.07,-19.43,-17.11,-18.93,Right Fall while Sitting
35:48.0,193,193,289.5,193,450,1.27,785.34,2.2,0,0,786,0,0,0,59092,1574,1.02,-0.05,-0.27,0.31,-9.12,-3.37,-3.2,-73.2,0.27,-3.46,-0.11,0.13,-6.25,Forward Fall while Sitting
35:48.1,175,184,276,193,450,1.27,785.34,2.2,0,0,788,0,0,0,90212,2362,1,-0.04,-0.28,1.4,-2.94,-2.82,-2.62,-72.5,0.46,-3.95,-0.31,0.33,-6.69,Forward Fall while Sitting
35:48.2,218,195,292.5,218,450,1.27,785.34,2.2,0,0,789,0,0,0,122909,3151,1,-0.03,-0.31,-1.91,-13.38,-2.92,-2.37,-71.02,0.33,-5.44,-0.52,0.22,-8.06,Forward Fall while Sitting
35:48.3,240,206,309,240,450,1.27,785.34,2.2,0,0,790,0,0,0,91649,3941,0.98,-0.03,-0.34,-4.57,-17.02,-7.11,-1.97,-68.98,-0.07,-7.3,-1.14,-0.14,-9.77,Forward Fall while Sitting
35:48.4,252,215,322.5,252,451,1.27,788.46,2.2,0,0,788,0,0,0,122769,4729,0.98,-0.02,-0.36,-5.13,-27.14,-9.05,-1.85,-68.47,-0.52,-10.19,-1.96,-0.57,-12.52,Forward Fall while Sitting
35:48.5,287,227,340.5,287,451,1.27,788.46,2.2,0,0,789,0,0,0,155466,5518,0.96,-0.01,-0.4,0.21,-16.28,-7.02,-0.93,-65.66,-0.44,-11.98,-2.57,-0.46,-14.13,Forward Fall while Sitting
35:48.6,345,244,366,345,450,1.27,785.34,2.2,0,0,791,0,0,0,125787,6309,0.92,-0.01,-0.44,-3.57,-20.21,-3.96,-0.95,-62.92,-0.74,-14.18,-2.88,-0.75,-16.13,Forward Fall while Sitting
35:48.7,372,260,390,372,451,1.27,788.46,2.2,0,0,791,0,0,0,96108,7100,0.92,-0.01,-0.46,-1.98,-18.82,-2.82,-1.02,-61.66,-0.88,-16.24,-3.08,-0.89,-18.05,Forward Fall while Sitting
35:48.8,394,275,412.5,394,451,1.27,788.46,2.2,80.2,450,789,113.49,788,12879,0,0,0.92,0,-0.49,-0.65,-17.17,-0.65,-0.59,-60.6,-0.89,-18.14,-3.07,-0.88,-19.83,Forward Fall while Sitting
35:48.9,438,291,436.5,438,451,1.27,788.46,2.2,80.2,450,788,113.49,788,12879,31120,788,0.91,0.02,-0.53,-5.87,-30.49,-4.33,0.43,-58.07,-1.42,-21.38,-3.42,-1.35,-22.85,Forward Fall while Sitting
35:49.0,467,307,460.5,467,451,1.27,788.46,2.2,80.2,450,789,113.49,788,12879,63817,1577,0.91,0.02,-0.55,0.54,-18.18,-7.2,0.71,-57.17,-1.31,-23.42,-4.07,-1.23,-24.77,Forward Fall while Sitting
35:49.1,484,322,483,484,451,1.27,788.46,2.2,80.2,450,795,113.49,788,12879,40482,2372,0.87,0.02,-0.61,-2.43,-18.27,-5.4,0.64,-53.25,-1.5,-25.43,-4.53,-1.41,-26.54,Forward Fall while Sitting
35:49.2,480,334,501,484,451,1.27,788.46,2.2,80.2,450,791,113.49,788,12879,10803,3163,0.85,0.03,-0.62,1.82,-17.25,-4.98,1.14,-52.36,-1.26,-27.35,-4.94,-1.16,-28.35,Forward Fall while Sitting
35:49.3,494,345,517.5,494,451,1.27,788.46,2.2,80.2,450,789,113.49,788,12879,43500,3952,0.82,0.02,-0.68,-1.3,-7.33,-1.68,0.26,-48.94,-1.33,-28.3,-5.03,-1.27,-29.12,Forward Fall while Sitting
35:49.4,485,354,531,494,451,1.27,788.46,2.2,80.2,450,795,113.49,788,12879,20165,4747,0.84,0.02,-0.65,-3,-7.95,-0.4,0.29,-50.54,-1.57,-29.28,-4.99,-1.5,-30.13,Forward Fall while Sitting
35:49.5,528,365,547.5,528,450,1.27,785.34,2.2,80.2,450,795,113.49,788,12879,4294964126,5542,0.85,0.03,-0.67,-4.24,-9.84,-3.46,0.99,-50.16,-1.95,-30.48,-5.26,-1.83,-31.26,Forward Fall while Sitting
35:49.6,539,375,562.5,539,451,1.27,788.46,2.2,80.2,450,785,113.49,788,12879,23231,6327,0.82,0.02,-0.68,-2.36,-3.65,-3.31,0.59,-48.68,-2.13,-31.04,-5.52,-2.02,-31.75,Forward Fall while Sitting
35:49.7,557,386,579,557,451,1.27,788.46,2.2,80.2,450,790,113.49,788,12879,4294959267,7117,0.81,0.03,-0.7,-2.65,-9.16,-5.39,1.18,-47.33,-2.34,-32.17,-5.98,-2.2,-32.78,Forward Fall while Sitting
35:49.8,537,393,589.5,557,451,1.27,788.46,2.2,81.87,450,796,20724.23,791,429493760,0,0,0.78,0.04,-0.69,-2.82,-6.64,-0.06,1.5,-46.91,-2.56,-33.02,-5.91,-2.4,-33.58,Forward Fall while Sitting
35:49.9,540,401,601.5,557,450,1.27,785.34,2.2,81.87,450,789,20724.23,791,429493760,32697,789,0.82,0.04,-0.72,-0.47,-4.89,-1.89,1.36,-47.36,-2.55,-33.73,-6.02,-2.4,-34.27,Forward Fall while Sitting
35:50.0,547,408,612,557,451,1.27,788.46,2.2,81.87,450,795,20724.23,791,429493760,9362,1584,0.81,0.03,-0.75,0.98,-2.54,-2.81,0.98,-45.51,-2.4,-34.18,-6.22,-2.26,-34.63,Forward Fall while Sitting
35:50.1,523,413,619.5,557,451,1.27,788.46,2.2,81.87,450,789,20724.23,791,429493760,42059,2373,0.79,0.04,-0.73,-1.04,-4.35,-7.66,1.29,-45.71,-2.45,-34.83,-6.92,-2.3,-35.26,Forward Fall while Sitting
35:50.2,517,417,625.5,557,451,1.27,788.46,2.2,81.87,450,792,20724.23,791,429493760,13963,3165,0.75,0.06,-0.74,-2.31,-7.62,-5.15,2.6,-43.74,-2.62,-35.79,-7.36,-2.41,-36.11,Forward Fall while Sitting
35:50.3,513,421,631.5,557,451,1.27,788.46,2.2,81.87,450,789,20724.23,791,429493760,46660,3954,0.76,0.06,-0.75,1.92,-3.32,-0.7,2.44,-43.62,-2.37,-36.33,-7.35,-2.18,-36.62,Forward Fall while Sitting
35:50.4,519,425,637.5,557,451,1.27,788.46,2.2,81.87,450,788,20724.23,791,429493760,77780,4742,0.76,0.04,-0.77,0.08,-2.2,-2.76,1.31,-43.05,-2.31,-36.75,-7.55,-2.16,-37,Forward Fall while Sitting
35:50.5,511,429,643.5,557,451,1.27,788.46,2.2,81.87,450,792,20724.23,791,429493760,49684,5534,0.76,0.04,-0.77,-1.52,2.34,-2.96,1.66,-43.31,-2.4,-36.72,-7.77,-2.24,-36.98,Forward Fall while Sitting
35:50.6,522,432,648,557,452,1.26,791.59,2.21,81.87,450,789,20724.23,791,429493760,82381,6323,0.75,0.04,-0.76,0.88,6.6,-0.28,1.52,-43.07,-2.26,-36.26,-7.72,-2.11,-36.53,Forward Fall while Sitting
35:50.7,519,435,652.5,557,451,1.27,788.46,2.2,81.87,450,792,20724.23,791,429493760,54285,7115,0.79,0.03,-0.75,-2.88,4.17,-3.25,1.25,-44.74,-2.49,-36.04,-7.97,-2.34,-36.39,Forward Fall while Sitting
35:50.8,520,438,657,557,451,1.27,788.46,2.2,82.42,451,792,51.17,790,2617,0,0,0.75,0.05,-0.77,1.98,25.66,0.07,2.26,-42.56,-2.25,-33.72,-7.88,-2.06,-34.07,Forward Fall while Sitting
35:50.9,527,441,661.5,557,451,1.27,788.46,2.2,82.42,451,790,51.17,790,2617,4294936036,790,0.81,0.04,-0.7,-6.48,13.79,6.44,1.31,-47.46,-2.84,-32.54,-7.16,-2.67,-33.14,Forward Fall while Sitting
35:51.0,597,446,669,597,451,1.27,788.46,2.2,82.42,451,791,51.17,790,2617,4294906357,1581,0.84,0.03,-0.69,-2.54,8.56,0.17,0.82,-48.78,-3.04,-31.88,-7.06,-2.88,-32.55,Forward Fall while Sitting
35:51.1,628,452,678,628,452,1.26,791.59,2.21,82.42,451,792,51.17,790,2617,4294878261,2373,0.83,0.04,-0.69,-2.02,9.76,-1.89,1.46,-48.48,-3.18,-31.1,-7.17,-3,-31.8,Forward Fall while Sitting
35:51.2,638,457,685.5,638,451,1.27,788.46,2.2,82.42,451,787,51.17,790,2617,4294907806,3160,0.84,0.03,-0.66,0.5,25.22,4.87,0.95,-49.97,-3.08,-28.78,-6.61,-2.92,-29.63,Forward Fall while Sitting
35:51.3,640,463,694.5,640,452,1.26,791.59,2.21,82.42,451,785,51.17,790,2617,4294934207,3945,0.87,0.01,-0.64,-1.15,36.79,6.5,0.21,-52.24,-3.14,-25.3,-5.88,-3,-26.38,Forward Fall while Sitting
35:51.4,671,469,703.5,671,450,1.27,785.34,2.2,82.42,451,785,51.17,790,2617,4294960608,4730,0.92,0.01,-0.55,-4.55,31.95,0.68,-0.29,-57.72,-3.54,-22.31,-5.73,-3.41,-23.72,Forward Fall while Sitting
35:51.5,690,475,712.5,690,451,1.27,788.46,2.2,82.42,451,785,51.17,790,2617,19713,5515,0.91,0.02,-0.51,1.4,35.91,0.99,0.36,-59.07,-3.34,-18.91,-5.55,-3.19,-20.52,Forward Fall while Sitting
35:51.6,681,480,720,690,450,1.27,785.34,2.2,82.42,451,789,51.17,790,2617,52410,6304,0.94,0.02,-0.45,0.31,33.18,2.04,0.54,-63.08,-3.25,-15.8,-5.27,-3.1,-17.69,Forward Fall while Sitting
35:51.7,666,485,727.5,690,450,1.27,785.34,2.2,82.42,451,786,51.17,790,2617,80382,7090,0.97,-0.01,-0.4,-1.08,38.09,2.8,-0.87,-65.85,-3.3,-12.22,-4.91,-3.21,-14.37,Forward Fall while Sitting
35:51.8,633,489,733.5,690,451,1.27,788.46,2.2,81.87,450,785,103.33,787,10677,0,0,0.98,-0.01,-0.32,-1.62,29.82,0.34,-0.92,-70.41,-3.41,-9.5,-4.8,-3.31,-11.93,Forward Fall while Sitting
35:51.9,540,490,735,690,451,1.27,788.46,2.2,81.87,450,796,103.33,787,10677,4294945552,796,0.98,0,-0.3,2.66,46.03,4.72,-0.81,-71.17,-3.08,-5.01,-4.24,-2.99,-7.65,Forward Fall while Sitting
35:52.0,456,489,733.5,690,451,1.27,788.46,2.2,81.87,450,790,103.33,787,10677,4294914292,1586,1.09,-0.05,-0.15,-12.02,-6.26,5.95,-3.07,-80.12,-4.22,-5.83,-3.57,-4.18,-8.8,Forward Fall while Sitting
35:52.1,443,488,732,690,450,1.27,785.34,2.2,81.87,450,786,103.33,787,10677,4294942264,2372,1,-0.04,-0.24,16,44.19,-2.5,-2.61,-74.92,-2.55,-1.57,-3.74,-2.55,-4.5,Forward Fall while Sitting
35:52.2,416,487,730.5,690,450,1.27,785.34,2.2,81.87,450,789,103.33,787,10677,7665,3161,1.01,-0.07,-0.21,6.33,36.92,5.74,-4.39,-76.22,-1.86,1.92,-3.09,-1.96,-1.2,Forward Fall while Sitting
35:52.3,436,485,727.5,690,451,1.27,788.46,2.2,81.87,450,787,103.33,787,10677,37210,3948,1,-0.08,-0.14,-0.41,15.96,7.89,-5.01,-79.47,-1.85,3.3,-2.23,-1.98,-0.01,Forward Fall while Sitting
35:52.4,471,485,727.5,690,451,1.27,788.46,2.2,81.87,450,791,103.33,787,10677,7531,4739,1.03,-0.06,-0.06,-4.7,21.08,5.45,-3.95,-83.52,-2.26,5.21,-1.6,-2.33,1.66,Forward Fall while Sitting
35:52.5,455,484,726,690,451,1.27,788.46,2.2,81.87,450,790,103.33,787,10677,4294943567,5529,1.02,-0.07,-0.03,-8.02,7.95,0.7,-4.69,-83.91,-3.01,5.81,-1.46,-3.08,2.22,Forward Fall while Sitting
35:52.6,451,484,726,690,451,1.27,788.46,2.2,81.87,450,784,103.33,787,10677,1103,6313,1,-0.08,-0.03,-8.41,8.02,-1.58,-4.98,-83.79,-3.78,6.4,-1.53,-3.83,2.79,Forward Fall while Sitting
35:52.7,472,483,724.5,690,450,1.27,785.34,2.2,81.87,450,793,103.33,787,10677,4294941888,7106,0.98,-0.06,0,-7.04,0.8,-0.7,-4.02,-84.98,-4.43,6.28,-1.52,-4.42,2.63,Forward Fall while Sitting
35:52.8,463,483,724.5,690,450,1.27,785.34,2.2,80.2,450,789,26.98,789,727,0,0,1.01,-0.09,-0.01,-5.88,-1.92,1.91,-5.45,-83.49,-4.95,5.89,-1.26,-4.97,2.32,Forward Fall while Sitting
35:52.9,445,482,723,690,451,1.27,788.46,2.2,80.2,450,790,26.98,789,727,4294936036,790,1.01,-0.1,-0.03,-2.42,-2.79,1.63,-6.11,-82.58,-5.14,5.42,-1.02,-5.18,1.9,Forward Fall while Sitting
35:53.0,449,482,723,690,452,1.26,791.59,2.21,80.2,450,788,26.98,789,727,4294967156,1578,1.03,-0.07,0,-2.87,1.71,0.6,-4.5,-84.49,-5.37,5.39,-0.88,-5.34,1.79,Forward Fall while Sitting
35:53.1,491,482,723,690,450,1.27,785.34,2.2,80.2,450,794,26.98,789,727,4294942232,2372,1.03,-0.08,0,-2.5,2.36,1.66,-5.16,-83.83,-5.56,5.42,-0.64,-5.55,1.85,Forward Fall while Sitting
35:53.2,523,482,723,690,450,1.27,785.34,2.2,80.2,450,790,26.98,789,727,4294910972,3162,1.03,-0.09,-0.04,0.68,-3.37,-1.6,-5.45,-83.03,-5.44,4.89,-0.72,-5.44,1.38,Forward Fall while Sitting
35:53.3,546,484,726,690,451,1.27,788.46,2.2,80.2,450,792,26.98,789,727,4294882876,3954,1.02,-0.1,-0.03,-0.4,0.76,-3.69,-6.3,-82.44,-5.42,4.77,-1.01,-5.46,1.28,Forward Fall while Sitting
35:53.4,549,485,727.5,690,450,1.27,785.34,2.2,80.2,450,788,26.98,789,727,4294913996,4742,0.98,-0.08,-0.04,-1.72,3.24,-2.8,-5.28,-83.22,-5.54,4.89,-1.21,-5.53,1.37,Forward Fall while Sitting
35:53.5,563,486,729,690,450,1.27,785.34,2.2,80.2,450,783,26.98,789,727,4294937261,5525,1.02,-0.09,-0.03,-0.4,-0.95,0.31,-5.78,-82.96,-5.52,4.6,-1.1,-5.53,1.1,Forward Fall while Sitting
35:53.6,547,487,730.5,690,450,1.27,785.34,2.2,80.2,450,788,26.98,789,727,1085,6313,1.02,-0.08,-0.04,-0.35,-0.88,-0.4,-4.8,-83.72,-5.5,4.31,-1.06,-5.48,0.79,Forward Fall while Sitting
35:53.7,528,488,732,690,450,1.27,785.34,2.2,80.2,450,784,26.98,789,727,25917,7097,1.01,-0.08,-0.04,-1.79,1.56,-0.63,-4.93,-83.61,-5.63,4.27,-1.04,-5.6,0.75,Forward Fall while Sitting
35:53.8,514,488,732,690,450,1.27,785.34,2.2,79.07,450,785,72.33,788,5230,0,0,1.03,-0.1,-0.01,-3.18,5.5,-1.49,-6.18,-82.78,-5.88,4.61,-1.11,-5.89,1.11,Forward Fall while Sitting
35:53.9,512,489,733.5,690,449,1.28,782.23,2.19,79.07,450,787,72.33,788,5230,29545,787,0.99,-0.08,-0.04,-2.89,-0.47,-2.44,-5.06,-83.41,-6.11,4.36,-1.28,-6.07,0.85,Forward Fall while Sitting
35:59.6,296,296,444,296,449,1.28,782.23,2.19,0,0,782,0,0,0,44965,1565,1.01,-0.06,-0.02,-6.94,0.99,-4.07,-4.12,-84.76,-1.55,-0.26,-0.98,-1.65,-3.64,Walking
35:59.7,255,275,412.5,296,449,1.28,782.23,2.19,0,0,786,0,0,0,72937,2351,1.01,-0.07,-0.01,-1.32,-2.66,-2.66,-4.62,-84.35,-1.62,-0.72,-1.16,-1.74,-4.07,Walking
35:59.8,192,247,370.5,296,449,1.28,782.23,2.19,0,0,788,0,0,0,104057,3139,1.02,-0.07,-0.03,-1.3,0.28,-1.11,-4.56,-84.12,-1.69,-0.89,-1.19,-1.81,-4.22,Walking
35:59.9,165,227,340.5,296,449,1.28,782.23,2.19,0,0,783,0,0,0,127322,3922,1.02,-0.07,-0.07,-3.33,5.44,1.81,-4.44,-83,-1.96,-0.56,-0.94,-2.06,-3.85,Walking
36:00.0,212,224,336,296,449,1.28,782.23,2.19,0,0,787,0,0,0,156867,4709,1.02,-0.06,0,-2.64,2.52,-2.38,-4.19,-84.8,-2.17,-0.5,-1.1,-2.25,-3.88,Walking
36:00.1,272,232,348,296,449,1.28,782.23,2.19,0,0,787,0,0,0,186412,5496,1.02,-0.06,-0.04,-1.05,-3.11,-3.34,-4.21,-84.27,-2.22,-1,-1.35,-2.3,-4.34,Walking
36:00.2,335,246,369,335,449,1.28,782.23,2.19,0,0,788,0,0,0,217532,6284,1.02,-0.07,-0.03,-2.97,4.89,-2.7,-4.43,-84.31,-2.45,-0.72,-1.54,-2.53,-4.06,Walking
36:00.3,430,269,403.5,430,449,1.28,782.23,2.19,0,0,786,0,0,0,245504,7070,1.03,-0.06,-0.02,-4.79,0.48,-1.51,-4.05,-84.74,-2.87,-0.87,-1.61,-2.92,-4.23,Walking
36:00.4,444,289,433.5,444,449,1.28,782.23,2.19,71.29,449,788,166.32,785,27661,0,0,1.03,-0.08,0.01,1.37,5.7,-3.84,-5.26,-83.72,-2.68,-0.51,-1.91,-2.78,-3.84,Walking
36:00.5,430,303,454.5,444,450,1.27,785.34,2.2,71.29,449,785,166.32,785,27661,26401,785,1.02,-0.06,0.01,5.83,5.66,-2.32,-4.09,-84.84,-2.05,-0.15,-2.06,-2.13,-3.53,Walking
36:00.6,415,313,469.5,444,450,1.27,785.34,2.2,71.29,449,787,166.32,785,27661,55946,1572,1.02,-0.06,-0.03,4.41,-1.11,-2.72,-3.78,-84.78,-1.55,-0.46,-2.25,-1.64,-3.83,Walking
36:00.7,406,321,481.5,444,451,1.27,788.46,2.2,71.29,449,792,166.32,785,27661,27850,2364,1.03,-0.05,-0.06,2.21,3.31,-1.91,-3.49,-84.18,-1.28,-0.33,-2.36,-1.37,-3.68,Walking
36:00.8,374,325,487.5,444,451,1.27,788.46,2.2,71.29,449,789,166.32,785,27661,60547,3153,1.02,-0.06,-0.03,-2.17,3.21,-4.3,-3.67,-84.83,-1.44,-0.21,-2.71,-1.53,-3.59,Walking
36:00.9,386,329,493.5,444,451,1.27,788.46,2.2,71.29,449,789,166.32,785,27661,93244,3942,1,-0.05,-0.03,-1.6,-3.6,-1.63,-3.29,-85.14,-1.54,-0.77,-2.8,-1.61,-4.14,Walking
36:01.0,421,335,502.5,444,452,1.26,791.59,2.21,71.29,449,790,166.32,785,27661,61984,4732,1.01,-0.05,0.02,-4.43,-1.89,-3.79,-3.57,-85.26,-1.93,-1.16,-3.1,-1.99,-4.52,Walking
36:01.1,443,342,513,444,451,1.27,788.46,2.2,71.29,449,790,166.32,785,27661,30724,5522,1.02,-0.03,0,0.31,3.63,-0.11,-2.41,-86.59,-1.84,-0.99,-3.03,-1.87,-4.42,Walking
36:01.2,473,349,523.5,473,451,1.27,788.46,2.2,71.29,449,792,166.32,785,27661,2628,6314,1,-0.05,-0.03,-0.21,-3.99,-0.28,-3.23,-85.4,-1.81,-1.59,-2.98,-1.86,-4.95,Walking
36:01.3,473,356,534,473,452,1.26,791.59,2.21,71.29,449,793,166.32,785,27661,4294943413,7107,1.01,-0.05,-0.02,5.1,0.89,-0.22,-3.31,-85.52,-1.24,-1.71,-2.92,-1.32,-5.06,Walking
36:01.4,483,363,544.5,483,451,1.27,788.46,2.2,82.42,451,785,15.84,789,250,0,0,1.02,-0.04,0.02,2.96,4.44,-0.31,-2.83,-85.94,-0.89,-1.47,-2.87,-0.97,-4.85,Walking
36:01.5,543,372,558,543,450,1.27,785.34,2.2,82.42,451,785,15.84,789,250,26401,785,1,-0.03,-0.04,0.08,-0.87,1.63,-2.12,-85.48,-0.83,-1.76,-2.63,-0.88,-5.1,Walking
36:01.6,588,382,573,588,450,1.27,785.34,2.2,82.42,451,788,15.84,789,250,57521,1573,1.02,-0.05,-0.03,3.27,-1.91,-1.3,-3.65,-84.87,-0.46,-2.14,-2.68,-0.58,-5.45,Walking
36:01.7,607,392,588,607,451,1.27,788.46,2.2,82.42,451,794,15.84,789,250,32597,2367,1.02,-0.06,0,5.48,-2.18,-1.12,-4.09,-84.9,0.14,-2.55,-2.71,-0.03,-5.85,Walking
36:01.8,554,399,598.5,607,452,1.26,791.59,2.21,82.42,451,789,15.84,789,250,65294,3156,1.02,-0.05,0.02,6.63,0.02,0.89,-3.42,-85.45,0.86,-2.75,-2.54,0.69,-6.06,Walking
36:01.9,534,405,607.5,607,451,1.27,788.46,2.2,82.42,451,793,15.84,789,250,38783,3949,1.03,-0.04,-0.02,7.99,2.59,-1.92,-2.74,-86.1,1.7,-2.69,-2.66,1.52,-6.03,Walking
