Datetime, ECGR , AvgECG , ampECG , MAX , GSRR , Resistance , GSR(kohm) , SCL , GSRRMS , GSRMAV , EMGR , EMGRMS , EMGMAV , EMGVAR , EMGSSI , IEMG , AccX , AccY, AccZ , GyroX , GyroY , GyroZ , Aroll , Apitch , Groll , Gpitch, Gy , Combroll , Combpitch,Features
44:14.5,584,584,876,584,346,1.96,511.08,1.69,0,0,173,0,0,0,60205,347,0.97,-0.14,0.06,0.92,2.91,-0.4,-8.68,-79.6,0.24,0.18,-0.32,-0.12,-3.01,Standing
44:14.6,637,610,915,637,346,1.96,511.08,1.69,0,0,173,0,0,0,90134,520,0.99,-0.14,0.08,1.79,1.11,5.11,-8.61,-79.15,0.53,0.07,0.4,0.16,-3.1,Standing
44:14.8,680,633,949.5,680,346,1.96,511.08,1.69,0,0,173,0,0,0,120063,693,1,-0.15,0.06,0.38,3.65,2.97,-9.26,-79.09,0.64,0.27,0.85,0.25,-2.9,Standing
44:14.9,577,619,928.5,680,347,1.95,513.31,1.7,0,0,173,0,0,0,149992,866,1.01,-0.16,0.06,-2.08,1.34,0.77,-9.79,-78.62,0.46,0.19,1.04,0.05,-2.96,Standing
44:15.0,509,597,895.5,680,346,1.96,511.08,1.69,0,0,172,0,0,0,179576,1038,1.02,-0.17,0.07,-3.31,1.56,-2.27,-9.74,-78.52,0.12,0.14,0.86,-0.27,-3.01,Standing
44:15.1,417,567,850.5,680,347,1.95,513.31,1.7,0,0,172,0,0,0,209160,1210,0.99,-0.15,0.07,-1.82,3.07,-5.48,-9.39,-78.73,-0.03,0.27,0.3,-0.41,-2.89,Standing
44:15.3,424,546,819,680,348,1.94,515.56,1.7,0,0,172,0,0,0,238744,1382,0.99,-0.14,0.07,-3.76,-1.39,-0.8,-8.72,-79.29,-0.42,-0.15,0.3,-0.76,-3.31,Standing
44:15.4,736,570,855,736,348,1.94,515.56,1.7,0,0,173,0,0,0,268673,1555,1,-0.14,0.07,-2.73,0.18,2.38,-8.82,-79.3,-0.69,-0.37,0.69,-1.02,-3.53,Standing
44:15.5,513,564,846,736,348,1.94,515.56,1.7,20724.04,346,174,172.9,172,29893,0,0,1.01,-0.16,0.07,-0.62,3.44,0.09,-9.45,-78.79,-0.7,-0.19,0.8,-1.05,-3.34,Standing
44:15.6,603,568,852,736,348,1.94,515.56,1.7,20724.04,346,172,172.9,172,29893,29584,172,1,-0.16,0.06,-1.11,0.45,-2.56,-9.6,-78.69,-0.77,-0.39,0.57,-1.12,-3.52,Standing
44:15.7,479,559,838.5,736,349,1.93,517.8,1.71,20724.04,346,170,172.9,172,29893,58484,342,1.01,-0.17,0.06,-3.26,-2.34,2.01,-10.17,-78.32,-1.1,-0.92,0.92,-1.47,-4.02,Standing
44:15.9,368,543,814.5,736,349,1.93,517.8,1.71,20724.04,346,170,172.9,172,29893,87384,512,1.01,-0.17,0.07,0.5,2.99,-1.79,-9.91,-78.3,-0.97,-0.8,0.8,-1.33,-3.9,Standing
44:16.0,485,539,808.5,736,349,1.93,517.8,1.71,20724.04,346,171,172.9,172,29893,116625,683,0.99,-0.16,0.08,2.6,5.13,-2.06,-9.83,-78.19,-0.57,-0.41,0.64,-0.94,-3.52,Standing
44:16.1,601,543,814.5,736,349,1.93,517.8,1.71,20724.04,346,174,172.9,172,29893,146901,857,0.98,-0.16,0.09,1.47,4.93,0.26,-9.92,-77.59,-0.32,-0.04,0.77,-0.7,-3.15,Standing
44:16.2,488,540,810,736,350,1.92,520.06,1.71,20724.04,346,170,172.9,172,29893,175801,1027,1,-0.16,0.09,0.22,0.18,1.79,-9.88,-77.67,-0.22,-0.27,1.09,-0.61,-3.37,Standing
44:16.4,387,530,795,736,350,1.92,520.06,1.71,20724.04,346,173,172.9,172,29893,205730,1200,1.01,-0.18,0.09,-0.05,-0.48,0.27,-10.47,-77.31,-0.16,-0.58,1.22,-0.57,-3.65,Standing
44:16.5,489,528,792,736,351,1.91,522.32,1.72,20724.04,346,174,172.9,172,29893,236006,1374,0.99,-0.16,0.07,-1.49,1.42,-3.43,-9.99,-78.18,-0.27,-0.65,0.9,-0.66,-3.75,Standing
44:16.6,594,531,796.5,736,351,1.91,522.32,1.72,20724.04,346,174,172.9,172,29893,266282,1548,1,-0.16,0.07,-1.76,1.49,2.31,-9.5,-78.69,-0.42,-0.72,1.29,-0.79,-3.84,Standing
44:16.7,484,529,793.5,736,352,1.91,524.59,1.72,20724.09,349,173,172.11,172,29620,0,0,1,-0.18,0.09,-1.68,-0.76,1.97,-10.78,-76.99,-0.56,-1.06,1.63,-0.97,-4.09,Standing
44:16.9,399,522,783,736,352,1.91,524.59,1.72,20724.09,349,173,172.11,172,29620,29929,173,0.99,-0.18,0.07,0.41,-0.12,-1.91,-10.74,-77.4,-0.44,-1.32,1.49,-0.85,-4.37,Standing
44:17.0,498,521,781.5,736,352,1.91,524.59,1.72,20724.09,349,172,172.11,172,29620,59513,345,1.01,-0.17,0.07,-3.27,-0.11,0.78,-10.11,-78.13,-0.78,-1.59,1.68,-1.15,-4.65,Standing
44:17.1,627,526,789,736,350,1.92,520.06,1.71,20724.09,349,172,172.11,172,29620,89097,517,1,-0.18,0.05,-2.38,0.33,1.38,-10.88,-77.71,-1.01,-1.8,1.95,-1.4,-4.83,Standing
44:17.2,445,522,783,736,350,1.92,520.06,1.71,20724.09,349,170,172.11,172,29620,117997,687,1,-0.19,0.07,-4.61,-1.21,-1.05,-11.09,-77.24,-1.51,-2.2,1.92,-1.9,-5.2,Standing
44:17.4,371,516,774,736,350,1.92,520.06,1.71,20724.09,349,170,172.11,172,29620,146897,857,1,-0.16,0.07,-1.34,3.36,-2.11,-9.76,-78.45,-1.61,-2.03,1.76,-1.94,-5.08,Standing
44:17.5,490,515,772.5,736,351,1.91,522.32,1.72,20724.09,349,170,172.11,172,29620,175797,1027,1,-0.17,0.06,-3.33,-2.08,2.43,-10.28,-78.14,-1.96,-2.54,2.16,-2.29,-5.56,Standing
44:17.6,584,518,777,736,350,1.92,520.06,1.71,20724.09,349,168,172.11,172,29620,204021,1195,0.99,-0.18,0.07,-0.18,0.56,-1.02,-10.95,-77.35,-1.91,-2.72,2.13,-2.27,-5.7,Standing
44:17.7,420,514,771,736,350,1.92,520.06,1.71,20724.09,349,169,172.11,172,29620,232582,1364,1,-0.2,0.08,-2.18,2.12,-0.36,-11.81,-76.3,-2.12,-2.7,2.18,-2.5,-5.65,Standing
44:17.9,419,511,766.5,736,350,1.92,520.06,1.71,20724.09,349,166,172.11,172,29620,260138,1530,1,-0.19,0.06,-2.37,-0.46,-1.34,-11.13,-77.38,-2.34,-3.01,2.12,-2.69,-5.98,Standing
44:18.0,569,513,769.5,736,350,1.92,520.06,1.71,20724.11,350,169,169.91,169,28868,0,0,1.01,-0.2,0.07,-3.31,1.37,-0.27,-11.66,-76.66,-2.68,-3.09,2.18,-3.04,-6.03,Standing
44:18.1,593,515,772.5,736,350,1.92,520.06,1.71,20724.11,350,169,169.91,169,28868,28561,169,0.99,-0.19,0.07,-0.91,1.14,-4.54,-11.6,-76.64,-2.73,-3.19,1.71,-3.08,-6.13,Standing
44:18.2,422,512,768,736,350,1.92,520.06,1.71,20724.11,350,168,169.91,169,28868,56785,337,0.98,-0.19,0.06,-2.24,1.33,-4.51,-11.25,-77.26,-2.94,-3.28,1.25,-3.27,-6.24,Standing
44:18.4,402,509,763.5,736,350,1.92,520.06,1.71,20724.11,350,166,169.91,169,28868,84341,503,0.97,-0.18,0.04,-6.18,-0.27,2.73,-10.78,-77.89,-3.64,-3.56,1.69,-3.92,-6.54,Standing
44:18.5,531,509,763.5,736,350,1.92,520.06,1.71,20724.11,350,166,169.91,169,28868,111897,669,1.01,-0.18,0.08,-3.21,3.69,1.31,-10.79,-77.3,-3.97,-3.35,1.95,-4.24,-6.31,Standing
44:18.6,608,512,768,736,350,1.92,520.06,1.71,20724.11,350,168,169.91,169,28868,140121,837,1.02,-0.2,0.1,-2.99,2.75,-2.56,-11.65,-76.12,-4.27,-3.26,1.73,-4.57,-6.17,Standing
44:18.7,585,514,771,736,350,1.92,520.06,1.71,20724.11,350,167,169.91,169,28868,168010,1004,0.99,-0.19,0.07,-2.5,-1.6,-4.27,-11.42,-76.8,-4.52,-3.71,1.29,-4.79,-6.63,Standing
44:18.9,431,512,768,736,351,1.91,522.32,1.72,20724.11,350,166,169.91,169,28868,195566,1170,0.98,-0.18,0.06,-0.6,0.15,1.39,-10.85,-77.64,-4.52,-3.94,1.56,-4.78,-6.89,Standing
44:19.0,585,514,771,736,350,1.92,520.06,1.71,20724.11,350,168,169.91,169,28868,223790,1338,1,-0.2,0.07,-3.12,0.59,1.14,-11.62,-76.72,-4.85,-4.12,1.81,-5.12,-7.02,Standing
44:19.1,556,515,772.5,736,350,1.92,520.06,1.71,20724.11,350,167,169.91,169,28868,251679,1505,1,-0.19,0.05,-0.49,0.53,-2.18,-11.59,-76.98,-4.84,-4.3,1.63,-5.11,-7.21,Standing
44:19.2,374,511,766.5,736,351,1.91,522.32,1.72,20724.1,350,164,166.9,166,27856,0,0,0.99,-0.2,0.07,-2.48,-1.27,0.32,-11.95,-76.33,-5.08,-4.71,1.77,-5.35,-7.57,Standing
44:19.4,433,509,763.5,736,351,1.91,522.32,1.72,20724.1,350,164,166.9,166,27856,26896,164,1,-0.2,0.06,-1.97,-1.2,-0.96,-11.69,-76.83,-5.25,-5.11,1.75,-5.51,-7.98,Standing
44:19.5,583,511,766.5,736,351,1.91,522.32,1.72,20724.1,350,167,166.9,166,27856,54785,331,1,-0.18,0.03,1.02,3.52,2.05,-10.83,-78.05,-5.05,-4.92,2.1,-5.29,-7.84,Standing
44:19.6,574,513,769.5,736,350,1.92,520.06,1.71,20724.1,350,167,166.9,166,27856,82674,498,1,-0.21,0.08,-1.35,3.19,2.95,-12.42,-75.77,-5.15,-4.77,2.57,-5.44,-7.61,Standing
44:19.7,386,510,765,736,351,1.91,522.32,1.72,20724.1,350,163,166.9,166,27856,109243,661,0.99,-0.22,0.08,-2.27,-1.66,-0.61,-13.19,-74.94,-5.37,-5.23,2.59,-5.68,-8.02,Standing
44:19.9,456,509,763.5,736,351,1.91,522.32,1.72,20724.1,350,164,166.9,166,27856,136139,825,1,-0.21,0.06,-0.09,-0.81,-2.67,-12.2,-76.32,-5.31,-5.58,2.36,-5.58,-8.41,Standing
44:20.0,596,510,765,736,351,1.91,522.32,1.72,20724.1,350,164,166.9,166,27856,163035,989,0.98,-0.22,0.04,-1.76,-1.96,1.78,-13.03,-75.72,-5.46,-6.07,2.68,-5.76,-8.86,Standing
44:20.1,486,510,765,736,351,1.91,522.32,1.72,20724.1,350,163,166.9,166,27856,189604,1152,1.01,-0.23,0.05,-0.6,0.72,1.4,-13.2,-75.5,-5.46,-6.23,2.95,-5.77,-9,Standing
44:20.3,388,507,760.5,736,352,1.91,524.59,1.72,20724.1,350,163,166.9,166,27856,216173,1315,1,-0.23,0.05,-5.6,-1.03,-2.81,-13.53,-75.2,-6.09,-6.61,2.7,-6.39,-9.35,Standing
44:20.4,660,510,765,736,352,1.91,524.59,1.72,20724.1,350,163,166.9,166,27856,242742,1478,0.99,-0.21,0.05,0.15,3.67,-2.72,-12.64,-76.08,-6,-6.4,2.46,-6.27,-9.19,Standing
44:20.5,610,512,768,736,352,1.91,524.59,1.72,20724.12,351,166,164.4,164,27028,0,0,1,-0.21,0.04,-1.92,0.94,-0.47,-12.51,-76.22,-6.17,-6.53,2.5,-6.42,-9.32,Standing
44:20.6,516,513,769.5,736,351,1.91,522.32,1.72,20724.12,351,165,164.4,164,27028,27225,165,0.99,-0.23,0.05,-4.18,-0.74,0.06,-13.4,-75.26,-6.62,-6.87,2.6,-6.89,-9.61,Standing
44:20.7,392,510,765,736,352,1.91,524.59,1.72,20724.12,351,162,164.4,164,27028,53469,327,0.99,-0.23,0.06,-0.76,3.65,-2.49,-13.38,-75.16,-6.64,-6.67,2.39,-6.91,-9.41,Standing
44:20.9,461,509,763.5,736,352,1.91,524.59,1.72,20724.12,351,163,164.4,164,27028,80038,490,0.99,-0.21,0.05,-1.54,2.05,0.04,-12.66,-75.95,-6.77,-6.66,2.49,-7,-9.43,Standing
44:21.0,580,511,766.5,736,352,1.91,524.59,1.72,20724.12,351,163,164.4,164,27028,106607,653,1.01,-0.22,0.06,-1.21,-0.43,1.09,-12.91,-75.68,-6.85,-6.97,2.73,-7.09,-9.71,Standing
44:21.1,485,510,765,736,352,1.91,524.59,1.72,20724.12,351,163,164.4,164,27028,133176,816,1,-0.24,0.07,0.04,5.75,-3.93,-14,-74.5,-6.77,-6.5,2.34,-7.06,-9.22,Standing
44:21.2,386,508,762,736,352,1.91,524.59,1.72,20724.12,351,162,164.4,164,27028,159420,978,0.99,-0.22,0.06,-3.75,-0.07,-4.18,-13.15,-75.33,-7.17,-6.76,1.91,-7.41,-9.5,Standing
44:21.4,479,507,760.5,736,353,1.9,526.87,1.73,20724.12,351,166,164.4,164,27028,186976,1144,0.99,-0.21,0.06,-2.03,0.53,-0.6,-12.28,-76.23,-7.36,-6.94,1.94,-7.55,-9.71,Standing
44:21.5,571,508,762,736,352,1.91,524.59,1.72,20724.12,351,163,164.4,164,27028,213545,1307,1,-0.22,0.06,-3.03,1.56,-1.99,-12.81,-75.64,-7.67,-7,1.79,-7.87,-9.74,Standing
44:21.6,409,507,760.5,736,353,1.9,526.87,1.73,20724.12,351,162,164.4,164,27028,239789,1469,0.99,-0.21,0.06,-3.34,1.65,-1.7,-12.29,-76.16,-8.01,-7.04,1.67,-8.18,-9.8,Standing
44:21.7,406,505,757.5,736,353,1.9,526.87,1.73,20724.13,352,163,163.2,163,26634,0,0,0.98,-0.21,0.07,-0.19,4.06,-1.08,-12.51,-75.77,-7.97,-6.78,1.64,-8.15,-9.54,Standing
44:21.9,499,505,757.5,736,353,1.9,526.87,1.73,20724.13,352,162,163.2,163,26634,26244,162,0.99,-0.21,0.06,-3.31,-0.76,0.7,-12.55,-75.94,-8.31,-7.13,1.82,-8.48,-9.88,Standing
44:22.0,593,506,759,736,352,1.91,524.59,1.72,20724.13,352,162,163.2,163,26634,52488,324,1,-0.22,0.05,-0.9,1.16,1.08,-12.82,-75.8,-8.35,-7.23,2.06,-8.53,-9.97,Standing
44:22.1,443,505,757.5,736,352,1.91,524.59,1.72,20724.13,352,161,163.2,163,26634,78409,485,1,-0.22,0.06,-3.19,-1.21,-0.77,-12.94,-75.57,-8.68,-7.63,2.06,-8.85,-10.35,Standing
44:22.2,413,504,756,736,353,1.9,526.87,1.73,20724.13,352,162,163.2,163,26634,104653,647,0.98,-0.23,0.06,-3,0.94,0.62,-13.84,-74.65,-8.98,-7.77,2.23,-9.18,-10.44,Standing
44:22.4,562,505,757.5,736,353,1.9,526.87,1.73,20724.13,352,162,163.2,163,26634,130897,809,0.99,-0.23,0.06,0.21,3.27,-1.96,-13.81,-74.81,-8.89,-7.61,2.09,-9.08,-10.29,Standing
44:22.5,846,510,765,846,353,1.9,526.87,1.73,20724.13,352,162,163.2,163,26634,157141,971,1.01,-0.22,0.06,-3.6,3.05,0.45,-12.96,-75.63,-9.27,-7.47,2.24,-9.41,-10.2,Standing
44:22.6,401,508,762,846,353,1.9,526.87,1.73,20724.13,352,164,163.2,163,26634,184037,1135,0.98,-0.22,0.07,-0.38,0.96,-3.34,-13.3,-75.11,-9.24,-7.6,1.92,-9.41,-10.3,Standing
44:22.7,445,507,760.5,846,353,1.9,526.87,1.73,20724.13,352,161,163.2,163,26634,209958,1296,0.99,-0.22,0.09,-2.9,-2.44,-1.01,-12.89,-75.08,-9.54,-8.16,1.9,-9.67,-10.84,Standing
44:22.9,584,508,762,846,352,1.91,524.59,1.72,20724.13,352,162,163.2,163,26634,236202,1458,0.98,-0.22,0.05,-1.74,2.12,-0.47,-13.47,-75.17,-9.69,-8.15,1.94,-9.84,-10.83,Standing
44:23.0,496,508,762,846,351,1.91,522.32,1.72,20724.14,352,160,161.8,161,26179,0,0,0.99,-0.23,0.07,-0.06,1.24,1.05,-13.42,-75.02,-9.62,-8.24,2.17,-9.78,-10.91,Standing
44:23.1,377,506,759,846,351,1.91,522.32,1.72,20724.14,352,160,161.8,161,26179,25600,160,1.01,-0.22,0.07,-0.26,1.45,-1.4,-13.04,-75.35,-9.59,-8.31,2.09,-9.73,-10.99,Standing
44:23.2,464,506,759,846,351,1.91,522.32,1.72,20724.14,352,160,161.8,161,26179,51200,320,0.98,-0.24,0.05,1.37,4.26,-1.25,-14.14,-74.5,-9.35,-8.03,2.03,-9.54,-10.69,Standing
44:23.4,608,507,760.5,846,351,1.91,522.32,1.72,20724.14,352,161,161.8,161,26179,77121,481,0.99,-0.23,0.07,-3.12,-0.31,-1.6,-13.61,-74.85,-9.67,-8.32,1.93,-9.82,-10.98,Standing
44:23.5,512,507,760.5,846,350,1.92,520.06,1.71,20724.14,352,160,161.8,161,26179,102721,641,0.99,-0.22,0.07,-3.5,2.23,-1.6,-13.26,-75.12,-10.03,-8.29,1.83,-10.16,-10.96,Standing
44:23.6,380,506,759,846,350,1.92,520.06,1.71,20724.14,352,160,161.8,161,26179,128321,801,0.99,-0.22,0.07,-1.46,2.96,-1.55,-13.19,-75.18,-10.15,-8.17,1.73,-10.27,-10.85,Standing
44:23.8,513,506,759,846,350,1.92,520.06,1.71,20724.14,352,160,161.8,161,26179,153921,961,1,-0.22,0.07,-2.31,0,0.05,-12.93,-75.39,-10.36,-8.42,1.84,-10.47,-11.1,Standing
44:23.9,606,507,760.5,846,350,1.92,520.06,1.71,20724.14,352,160,161.8,161,26179,179521,1121,1,-0.22,0.07,-2.37,0.46,-1.24,-13.08,-75.33,-10.59,-8.61,1.78,-10.69,-11.28,Standing
44:24.0,425,506,759,846,350,1.92,520.06,1.71,20724.14,352,159,161.8,161,26179,204802,1280,0.98,-0.22,0.08,-1.08,1.15,-3.86,-13.42,-74.7,-10.66,-8.72,1.4,-10.77,-11.36,Standing
44:24.1,530,506,759,846,350,1.92,520.06,1.71,20724.14,352,159,161.8,161,26179,230083,1439,0.99,-0.21,0.09,-2.4,1.57,-1.29,-12.48,-75.52,-10.89,-8.77,1.34,-10.95,-11.44,Standing
44:24.2,588,507,760.5,846,350,1.92,520.06,1.71,20724.1,350,163,160.2,160,25664,0,0,0.99,-0.21,0.07,-1.25,2.56,-1.05,-12.72,-75.58,-10.98,-8.7,1.3,-11.05,-11.38,Standing
44:24.4,539,508,762,846,350,1.92,520.06,1.71,20724.1,350,159,160.2,160,25664,25281,159,0.99,-0.22,0.08,-2.1,-0.41,-1.35,-12.81,-75.44,-11.17,-9.01,1.23,-11.24,-11.66,Standing
44:24.5,399,506,759,846,351,1.91,522.32,1.72,20724.1,350,161,160.2,160,25664,51202,320,0.99,-0.22,0.08,-2.19,0.92,-0.85,-13.09,-75.18,-11.37,-9.14,1.22,-11.44,-11.78,Standing
44:24.7,496,506,759,846,351,1.91,522.32,1.72,20724.1,350,162,160.2,160,25664,77446,482,1,-0.2,0.06,-3.05,3.4,-3.24,-12.04,-76.39,-11.69,-8.97,0.92,-11.7,-11.66,Standing
44:24.8,603,507,760.5,846,351,1.91,522.32,1.72,20724.1,350,159,160.2,160,25664,102727,641,0.97,-0.21,0.12,-2.63,8.75,-0.73,-12.82,-74.36,-11.95,-8.12,0.92,-11.98,-10.77,Standing
44:24.9,440,506,759,846,352,1.91,524.59,1.72,20724.1,350,158,160.2,160,25664,127691,799,0.99,-0.21,0.11,1.74,0.74,-4.69,-12.25,-75.1,-11.66,-8.28,0.43,-11.68,-10.95,Standing
44:25.0,436,506,759,846,352,1.91,524.59,1.72,20724.1,350,158,160.2,160,25664,152655,957,0.96,-0.22,0.09,5.44,5.42,-3.15,-13.23,-74.79,-10.91,-7.85,0.14,-11,-10.53,Standing
44:25.1,564,506,759,846,352,1.91,524.59,1.72,20724.1,350,159,160.2,160,25664,177936,1116,0.98,-0.21,0.09,2.63,4.37,4.39,-12.58,-75.37,-10.5,-7.56,0.79,-10.59,-10.27,Standing
44:25.3,535,507,760.5,846,353,1.9,526.87,1.73,20724.1,350,159,160.2,160,25664,203217,1275,1.02,-0.22,0.12,-3.88,-5.04,10.39,-12.71,-74.46,-10.92,-8.44,2.2,-10.99,-11.08,Standing
44:25.4,398,505,757.5,846,353,1.9,526.87,1.73,20724.1,350,158,160.2,160,25664,228181,1433,1.01,-0.25,0.07,-2.21,-13.85,1.63,-14.56,-73.83,-11.13,-10.44,2.5,-11.27,-12.97,Standing
44:25.5,532,506,759,846,352,1.91,524.59,1.72,20724.13,351,158,159.1,159,25313,0,0,1,-0.23,0.1,1.12,6.02,-17.01,-13.48,-74.37,-10.92,-9.94,0.48,-11.02,-12.51,Standing
44:25.6,617,507,760.5,846,353,1.9,526.87,1.73,20724.13,351,159,159.1,159,25313,25281,159,0.95,-0.17,0.05,1.38,-1.63,-6.6,-10.62,-77.98,-10.68,-10.39,-0.25,-10.68,-13.09,Standing
44:25.8,397,506,759,846,353,1.9,526.87,1.73,20724.13,351,157,159.1,159,25313,49930,316,1,-0.2,0.09,-5.01,-2.53,10.37,-11.76,-76.07,-11.24,-10.96,1.15,-11.26,-13.57,Standing
44:25.9,406,505,757.5,846,354,1.89,529.15,1.73,20724.13,351,158,159.1,159,25313,74894,474,0.99,-0.24,0.08,0.67,-6.25,0.22,-14.16,-74.11,-11.08,-11.99,1.28,-11.21,-14.48,Standing
44:26.0,557,505,757.5,846,354,1.89,529.15,1.73,20724.13,351,158,159.1,159,25313,99858,632,1.02,-0.21,0.08,2.45,1.86,-5.86,-12.35,-75.76,-10.71,-12.01,0.65,-10.77,-14.56,Standing
44:26.1,533,505,757.5,846,354,1.89,529.15,1.73,20724.13,351,158,159.1,159,25313,124822,790,0.98,-0.21,0.09,-2.13,-2.01,-0.67,-12.72,-75.27,-10.91,-12.51,0.66,-10.98,-15.03,Standing
44:26.3,393,504,756,846,354,1.89,529.15,1.73,20724.13,351,157,159.1,159,25313,149471,947,0.99,-0.23,0.09,1.32,-0.4,-3.49,-13.44,-74.5,-10.67,-12.82,0.32,-10.78,-15.28,Standing
44:26.4,503,504,756,846,354,1.89,529.15,1.73,20724.13,351,157,159.1,159,25313,174120,1104,0.99,-0.2,0.06,-0.63,1.73,-0.07,-11.95,-76.49,-10.68,-12.85,0.41,-10.73,-15.4,Standing
44:26.5,590,505,757.5,846,354,1.89,529.15,1.73,20724.13,351,157,159.1,159,25313,198769,1261,0.96,-0.21,0.05,-5.9,-3.53,-2.83,-12.68,-76.01,-11.35,-13.55,0.16,-11.4,-16.05,Standing
44:26.6,395,504,756,846,355,1.88,531.44,1.74,20724.13,351,156,159.1,159,25313,223105,1417,1,-0.21,0.06,-0.99,4.06,0.44,-12.71,-75.77,-11.4,-13.29,0.31,-11.46,-15.79,Standing
44:26.8,460,504,756,846,355,1.88,531.44,1.74,20724.16,354,159,157.6,157,24837,0,0,0.95,-0.21,0.03,6.01,-4.76,-0.18,-12.89,-75.95,-10.58,-14.13,0.39,-10.68,-16.61,Standing
44:26.9,569,504,756,846,355,1.88,531.44,1.74,20724.16,354,157,157.6,157,24837,24649,157,1.02,-0.2,0.06,-3.27,2.14,0.9,-11.76,-76.74,-10.92,-14.12,0.6,-10.96,-16.62,Standing
44:27.0,485,503,754.5,846,355,1.88,531.44,1.74,20724.16,354,159,157.6,157,24837,49930,316,0.99,-0.21,0.04,-1.63,-0.85,2.46,-12.61,-76.17,-11.06,-14.47,1.01,-11.12,-16.94,Standing
44:27.1,396,501,751.5,846,355,1.88,531.44,1.74,20724.16,354,159,157.6,157,24837,75211,475,0.98,-0.21,0.06,2.22,9.97,-8.21,-12.81,-75.7,-10.71,-13.47,0.07,-10.79,-15.96,Standing
44:27.3,535,499,748.5,846,356,1.87,533.73,1.74,20724.16,354,159,157.6,157,24837,100492,634,0.97,-0.2,0.06,3.07,9.78,7.37,-12.27,-76.15,-10.25,-12.49,1.1,-10.33,-15.03,Standing
44:27.4,717,501,751.5,846,355,1.88,531.44,1.74,20724.16,354,159,157.6,157,24837,125773,793,1.01,-0.23,0.11,1.76,4.56,2.02,-13.36,-74.26,-9.96,-12.17,1.45,-10.1,-14.65,Standing
44:27.5,376,499,748.5,846,356,1.87,533.73,1.74,20724.16,354,157,157.6,157,24837,150422,950,1.01,-0.24,0.08,-5.45,-2.04,2.99,-13.82,-74.49,-10.57,-12.67,1.92,-10.7,-15.15,Standing
44:27.6,451,500,750,846,357,1.87,536.04,1.74,20724.16,354,158,157.6,157,24837,175386,1108,0.99,-0.25,0.09,-8.62,-3.97,-5.61,-14.63,-73.48,-11.59,-13.43,1.31,-11.72,-15.83,Standing
44:27.8,603,502,753,846,356,1.87,533.73,1.74,20724.16,354,159,157.6,157,24837,200667,1267,0.98,-0.23,0.09,-5.7,2.17,-5.69,-13.68,-74.42,-12.24,-13.41,0.69,-12.3,-15.85,Standing
44:27.9,426,498,747,846,356,1.87,533.73,1.74,20724.16,354,154,157.6,157,24837,224383,1421,0.97,-0.21,0.08,-5.33,1.88,-4.93,-12.74,-75.29,-12.84,-13.42,0.17,-12.84,-15.9,Standing
44:28.0,391,497,745.5,846,357,1.87,536.04,1.74,20724.2,355,154,157.51,157,24808,0,0,1,-0.21,0.1,-7.31,-0.99,-2.18,-12.16,-75.47,-13.69,-13.8,0,-13.63,-16.27,Standing
44:28.1,540,497,745.5,846,356,1.87,533.73,1.74,20724.2,355,157,157.51,157,24808,24649,157,1.01,-0.22,0.09,-2.62,1.44,-3.93,-13.02,-74.9,-13.94,-13.87,-0.4,-13.91,-16.31,Standing
44:28.3,554,497,745.5,846,356,1.87,533.73,1.74,20724.2,355,157,157.51,157,24808,49298,314,0.97,-0.21,0.09,-3.6,2.34,-6.44,-12.65,-75.15,-14.33,-13.83,-1.1,-14.26,-16.28,Standing
44:28.4,393,498,747,846,356,1.87,533.73,1.74,20724.2,355,156,157.51,157,24808,73634,470,0.97,-0.19,0.09,-2.56,0.48,-7.04,-11.39,-76.36,-14.58,-14.02,-1.89,-14.45,-16.51,Standing
44:28.5,522,498,747,846,357,1.87,536.04,1.74,20724.2,355,158,157.51,157,24808,98598,628,0.98,-0.17,0.1,-5.63,0.94,-2.34,-10.3,-77.23,-15.22,-14.15,-2.09,-15.02,-16.67,Standing
44:28.6,597,498,747,846,356,1.87,533.73,1.74,20724.2,355,157,157.51,157,24808,123247,785,1.01,-0.19,0.06,-10.97,-0.35,-2.18,-11.01,-77.52,-16.53,-14.45,-2.26,-16.31,-16.97,Standing
44:28.8,416,497,745.5,846,357,1.87,536.04,1.74,20724.2,355,156,157.51,157,24808,147583,941,0.99,-0.18,0.07,-4.5,1.01,-8.58,-11.1,-77.07,-17.03,-14.57,-3.25,-16.79,-17.07,Standing
44:28.9,489,498,747,846,357,1.87,536.04,1.74,20724.2,355,154,157.51,157,24808,171299,1095,1,-0.17,0.09,-7.45,3.88,-0.81,-10,-77.64,-17.9,-14.34,-3.25,-17.58,-16.87,Standing
44:29.0,634,500,750,846,356,1.87,533.73,1.74,20724.2,355,154,157.51,157,24808,195015,1249,0.99,-0.17,0.09,-6.38,4.4,-3.82,-10.17,-77.58,-18.63,-14.03,-3.63,-18.29,-16.58,Standing
44:29.2,427,498,747,846,357,1.87,536.04,1.74,20724.2,355,154,157.51,157,24808,218731,1403,1.02,-0.16,0.09,-7.69,1.82,-2.95,-9.57,-78,-19.53,-14.06,-3.91,-19.13,-16.61,Standing
44:29.3,438,498,747,846,357,1.87,536.04,1.74,20724.21,356,153,155.61,155,24213,0,0,1,-0.16,0.08,-1.05,0.58,-3.2,-9.38,-78.49,-19.59,-14.23,-4.21,-19.18,-16.8,Standing
44:29.4,572,499,748.5,846,357,1.87,536.04,1.74,20724.21,356,157,155.61,155,24213,24649,157,1,-0.16,0.08,-4.1,-2.63,-3.63,-9.7,-78.26,-20.04,-14.82,-4.57,-19.62,-17.36,Standing
44:29.5,568,500,750,846,357,1.87,536.04,1.74,20724.21,356,156,155.61,155,24213,48985,313,1,-0.16,0.06,-3.37,0.03,-4.21,-9.44,-78.88,-20.39,-15.07,-5,-19.95,-17.62,Standing
44:29.7,388,498,747,846,357,1.87,536.04,1.74,20724.21,356,156,155.61,155,24213,73321,469,0.99,-0.14,0.08,-2.27,4.18,-2.33,-8.5,-79.38,-20.6,-14.79,-5.19,-20.12,-17.38,Standing
44:29.8,563,499,748.5,846,359,1.85,540.66,1.75,20724.21,356,156,155.61,155,24213,97657,625,0.98,-0.14,0.09,-2.81,0.64,1.23,-8.41,-79.11,-20.89,-14.96,-4.94,-20.39,-17.53,Standing
44:29.9,608,501,751.5,846,359,1.85,540.66,1.75,20724.21,356,157,155.61,155,24213,122306,782,1.03,-0.15,0.09,-2.57,-0.53,2.19,-8.86,-78.71,-21.14,-15.28,-4.56,-20.65,-17.82,Standing
44:30.0,400,500,750,846,358,1.86,538.35,1.75,20724.21,356,155,155.61,155,24213,146331,937,1.03,-0.16,0.08,0.08,4.55,0.22,-9.47,-78.58,-21.06,-14.96,-4.43,-20.6,-17.51,Standing
44:30.2,406,498,747,846,358,1.86,538.35,1.75,20724.21,356,155,155.61,155,24213,170356,1092,1,-0.17,0.07,-1.12,-1.16,-2.89,-9.9,-78.18,-21.13,-15.36,-4.69,-20.68,-17.87,Standing
44:30.3,560,500,750,846,358,1.86,538.35,1.75,20724.21,356,156,155.61,155,24213,194692,1248,0.99,-0.16,0.07,-6.24,-4.02,-1.85,-9.75,-78.38,-21.85,-16.12,-4.83,-21.37,-18.61,Standing
44:30.4,440,500,750,846,358,1.86,538.35,1.75,20724.21,356,155,155.61,155,24213,218717,1403,0.99,-0.15,0.09,-0.69,6.98,-3.8,-9.05,-78.57,-21.87,-15.49,-5.21,-21.36,-18.02,Standing
44:30.5,387,498,747,846,358,1.86,538.35,1.75,20724.23,357,155,155.8,155,24273,0,0,0.99,-0.14,0.09,-3.96,0.6,0.34,-8.71,-78.67,-22.3,-15.67,-5.07,-21.75,-18.19,Standing
44:30.7,528,498,747,846,358,1.86,538.35,1.75,20724.23,357,155,155.8,155,24273,24025,155,1,-0.16,0.08,-1.66,-0.57,1.21,-9.53,-78.25,-22.43,-15.99,-4.82,-21.92,-18.48,Standing
44:30.8,619,500,750,846,358,1.86,538.35,1.75,20724.23,357,155,155.8,155,24273,48050,310,1.01,-0.16,0.08,-1.21,2.72,-2.38,-9.74,-78.07,-22.51,-15.9,-5.02,-22,-18.38,Standing
44:30.9,680,502,753,846,358,1.86,538.35,1.75,20724.23,357,154,155.8,155,24273,71766,464,1.01,-0.16,0.08,-2.13,1.1,-1,-9.33,-78.69,-22.71,-16.01,-5.05,-22.18,-18.52,Standing
44:31.0,461,502,753,846,358,1.86,538.35,1.75,20724.23,357,155,155.8,155,24273,95791,619,1.02,-0.16,0.06,-0.56,2.06,-3.45,-9.34,-79.04,-22.71,-16,-5.38,-22.18,-18.52,Standing
44:31.2,619,502,753,846,359,1.85,540.66,1.75,20724.23,357,155,155.8,155,24273,119816,774,0.99,-0.16,0.07,-5.18,1.66,-1.78,-9.61,-78.44,-23.29,-16.05,-5.5,-22.75,-18.54,Standing
44:31.3,497,501,751.5,846,361,1.83,545.32,1.76,20724.23,357,150,155.8,155,24273,142316,924,0.98,-0.16,0.07,-4.72,-0.59,-3.92,-9.84,-78.24,-23.82,-16.37,-5.9,-23.26,-18.85,Standing
44:31.4,427,501,751.5,846,359,1.85,540.66,1.75,20724.23,357,151,155.8,155,24273,165117,1075,1,-0.13,0.08,-5.66,-2.08,-5.24,-7.81,-79.95,-24.46,-16.89,-6.46,-23.8,-19.41,Standing
44:31.5,569,501,751.5,846,360,1.84,542.99,1.76,20724.23,357,155,155.8,155,24273,189142,1230,1.02,-0.14,0.08,-2.15,1.98,1.49,-8.48,-79.39,-24.66,-16.89,-6.17,-24.02,-19.39,Standing
44:31.7,520,500,750,846,360,1.84,542.99,1.76,20724.23,357,154,155.8,155,24273,212858,1384,1.01,-0.15,0.09,-0.2,0.56,-2.72,-9.24,-78.45,-24.62,-17.07,-6.41,-24,-19.53,Standing
44:31.8,381,500,750,846,358,1.86,538.35,1.75,20724.25,358,154,153.81,153,23656,0,0,1,-0.15,0.07,1.25,-0.59,-1.5,-8.8,-79.18,-24.39,-17.39,-6.5,-23.77,-19.86,Standing
44:31.9,488,501,751.5,846,358,1.86,538.35,1.75,20724.25,358,154,153.81,153,23656,23716,154,0.99,-0.14,0.06,0.21,-3.31,-3.01,-8.78,-79.51,-24.29,-18.06,-6.78,-23.67,-20.52,Standing
44:32.0,598,501,751.5,846,359,1.85,540.66,1.75,20724.25,358,152,153.81,153,23656,46820,306,1,-0.13,0.07,-2.38,0.51,-3.07,-8.07,-79.99,-24.52,-18.25,-7.07,-23.87,-20.72,Standing
44:32.2,411,499,748.5,846,359,1.85,540.66,1.75,20724.25,358,153,153.81,153,23656,70229,459,1.01,-0.14,0.08,-1.78,5.6,-1.47,-8.23,-79.5,-24.68,-17.8,-7.15,-24.02,-20.27,Standing
44:32.3,421,500,750,846,360,1.84,542.99,1.76,20724.25,358,151,153.81,153,23656,93030,610,0.99,-0.13,0.07,-2.43,-1.75,-0.73,-8.24,-79.77,-24.91,-18.27,-7.15,-24.25,-20.73,Standing
44:32.4,578,501,751.5,846,360,1.84,542.99,1.76,20724.25,358,154,153.81,153,23656,116746,764,1.01,-0.13,0.08,-3,0.22,-0.4,-8.07,-79.8,-25.22,-18.5,-7.1,-24.53,-20.95,Standing
44:32.5,505,500,750,846,359,1.85,540.66,1.75,20724.25,358,153,153.81,153,23656,140155,917,0.99,-0.14,0.07,-1.7,-2.65,-0.83,-8.57,-79.56,-25.36,-19.08,-7.1,-24.69,-21.5,Standing
44:32.7,398,499,748.5,846,360,1.84,542.99,1.76,20724.25,358,153,153.81,153,23656,163564,1070,1.01,-0.13,0.07,-0.96,0.85,0.63,-7.72,-80.34,-25.41,-19.23,-6.92,-24.71,-21.67,Standing
44:32.8,522,501,751.5,846,360,1.84,542.99,1.76,20724.25,358,151,153.81,153,23656,186365,1221,1,-0.15,0.05,-4.14,1.66,1.37,-9.25,-79.23,-25.86,-19.27,-6.65,-25.2,-21.67,Standing
44:32.9,656,501,751.5,846,361,1.83,545.32,1.76,20724.25,358,156,153.81,153,23656,210701,1377,1.01,-0.14,0.06,-1.37,0.69,-3.69,-8.62,-79.69,-25.97,-19.43,-7.01,-25.27,-21.84,Standing
44:33.1,401,498,747,846,361,1.83,545.32,1.76,20724.26,359,153,153.01,153,23410,0,0,0.99,-0.14,0.04,0.65,4.02,2.8,-8.76,-79.87,-25.81,-19.18,-6.56,-25.13,-21.61,Standing
44:33.2,426,498,747,846,361,1.83,545.32,1.76,20724.26,359,153,153.01,153,23410,23409,153,1.01,-0.14,0.09,0.27,1.7,-3.66,-8.69,-78.99,-25.71,-19.22,-6.92,-25.03,-21.61,Standing
44:33.3,560,499,748.5,846,360,1.84,542.99,1.76,20724.26,359,154,153.01,153,23410,47125,307,1,-0.13,0.07,-2.38,-0.37,-0.94,-8.1,-79.84,-25.94,-19.52,-6.94,-25.23,-21.93,Standing
44:33.4,494,500,750,846,360,1.84,542.99,1.76,20724.26,359,153,153.01,153,23410,70534,460,0.98,-0.15,0.05,-5.92,-0.53,-0.56,-9.39,-79.21,-26.62,-19.83,-6.91,-25.93,-22.21,Standing
44:33.6,405,498,747,846,361,1.83,545.32,1.76,20724.26,359,153,153.01,153,23410,93943,613,1.02,-0.14,0.08,-1.66,8.56,-0.76,-8.54,-79.3,-26.75,-19.01,-6.91,-26.03,-21.42,Standing
44:33.7,533,498,747,846,361,1.83,545.32,1.76,20724.26,359,153,153.01,153,23410,117352,766,1.02,-0.15,0.11,-3.4,5.74,-1.85,-8.85,-78.18,-27.11,-18.54,-7.04,-26.38,-20.93,Standing
44:33.8,571,500,750,846,360,1.84,542.99,1.76,20724.26,359,153,153.01,153,23410,140761,919,1,-0.15,0.09,-3.54,-0.01,-3.2,-9.23,-78.38,-27.49,-18.79,-7.35,-26.76,-21.18,Standing
44:33.9,384,499,748.5,846,361,1.83,545.32,1.76,20724.26,359,152,153.01,153,23410,163865,1071,0.99,-0.14,0.09,-0.78,-1.13,-2.62,-8.75,-78.85,-27.51,-19.19,-7.58,-26.76,-21.58,Standing
44:34.1,494,498,747,846,361,1.83,545.32,1.76,20724.26,359,153,153.01,153,23410,187274,1224,1,-0.15,0.08,-4.4,-0.91,0.53,-8.82,-79.03,-28,-19.56,-7.41,-27.23,-21.94,Standing
44:34.2,620,501,751.5,846,360,1.84,542.99,1.76,20724.26,359,150,153.01,153,23410,209774,1374,1.01,-0.14,0.08,-2.73,-1.79,-1.77,-8.51,-79.29,-28.27,-20.03,-7.54,-27.48,-22.4,Standing
44:34.3,632,503,754.5,846,361,1.83,545.32,1.76,20724.28,360,152,152.6,152,23286,0,0,1,-0.15,0.08,-2.24,-0.58,-1.46,-9.03,-78.68,-28.48,-20.36,-7.62,-27.7,-22.69,Standing
44:34.4,429,502,753,846,361,1.83,545.32,1.76,20724.28,360,149,152.6,152,23286,22201,149,0.99,-0.14,0.06,-2.08,-2.05,-0.51,-8.74,-79.57,-28.67,-20.87,-7.58,-27.88,-23.21,Standing
44:34.6,595,502,753,846,361,1.83,545.32,1.76,20724.28,360,153,152.6,152,23286,45610,302,1.01,-0.15,0.07,-2.72,-0.75,0.97,-9.16,-78.97,-28.94,-21.21,-7.36,-28.15,-23.52,Standing
44:34.7,513,503,754.5,846,361,1.83,545.32,1.76,20724.28,360,149,152.6,152,23286,67811,451,1.01,-0.15,0.07,-2.63,1.57,-1.34,-9.22,-78.91,-29.2,-21.27,-7.43,-28.4,-23.57,Standing
44:34.8,377,502,753,846,361,1.83,545.32,1.76,20724.28,360,151,152.6,152,23286,90612,602,0.99,-0.15,0.07,-2.16,0.08,-1.83,-8.98,-79.04,-29.4,-21.51,-7.56,-28.59,-23.81,Standing
44:34.9,504,502,753,846,361,1.83,545.32,1.76,20724.28,360,149,152.6,152,23286,112813,751,1,-0.14,0.07,-2.66,-0.5,2.77,-8.78,-79.23,-29.67,-21.82,-7.11,-28.83,-24.12,Standing
44:35.1,577,499,748.5,846,361,1.83,545.32,1.76,20724.28,360,152,152.6,152,23286,135917,903,1.01,-0.17,0.05,-2.92,-1.81,3.66,-10.27,-78.25,-29.97,-22.3,-6.55,-29.18,-24.54,Standing
44:35.2,396,499,748.5,846,361,1.83,545.32,1.76,20724.28,360,152,152.6,152,23286,159021,1055,1.02,-0.17,0.06,-1.75,-0.1,-1.79,-9.94,-78.42,-30.12,-22.57,-6.68,-29.31,-24.8,Standing
44:35.3,480,499,748.5,846,361,1.83,545.32,1.76,20724.28,360,153,152.6,152,23286,182430,1208,1,-0.17,0.05,-2.09,2.03,-1.3,-10.25,-78.27,-30.31,-22.56,-6.74,-29.5,-24.79,Standing
44:35.4,595,500,750,846,361,1.83,545.32,1.76,20724.28,360,153,152.6,152,23286,205839,1361,1.01,-0.17,0.07,-1.27,-0.73,-0.91,-10.14,-78.12,-30.4,-22.91,-6.76,-29.59,-25.12,Standing
44:35.6,399,499,748.5,846,361,1.83,545.32,1.76,20724.29,361,151,151.21,151,22863,0,0,1.01,-0.15,0.06,-0.98,1.06,-4.18,-9.21,-79.14,-30.45,-23.02,-7.18,-29.6,-25.27,Standing
44:35.7,428,499,748.5,846,361,1.83,545.32,1.76,20724.29,361,152,151.21,151,22863,23104,152,1,-0.16,0.04,0.53,2.74,1.46,-9.44,-79.2,-30.31,-22.93,-6.9,-29.48,-25.18,Standing
44:35.8,590,500,750,846,361,1.83,545.32,1.76,20724.29,361,153,151.21,151,22863,46513,305,1,-0.18,0.04,-1.6,-1.3,1.08,-10.68,-78.01,-30.44,-23.35,-6.66,-29.65,-25.53,Standing
44:35.9,745,502,753,846,362,1.83,547.66,1.77,20724.29,361,152,151.21,151,22863,69617,457,1,-0.17,0.06,-0.17,4.62,-3.87,-10.45,-78,-30.39,-23.02,-7.05,-29.59,-25.22,Standing
44:36.1,379,500,750,846,362,1.83,547.66,1.77,20724.29,361,152,151.21,151,22863,92721,609,1.01,-0.15,0.07,-3.28,1.04,-2.53,-9.05,-79.15,-30.74,-23.14,-7.27,-29.87,-25.38,Standing
44:36.2,513,502,753,846,362,1.83,547.66,1.77,20724.29,361,152,151.21,151,22863,115825,761,1.01,-0.16,0.06,-2.42,-1.58,-1.26,-9.46,-78.86,-30.97,-23.59,-7.32,-30.11,-25.8,Standing
44:36.3,590,503,754.5,846,361,1.83,545.32,1.76,20724.29,361,152,151.21,151,22863,138929,913,0.99,-0.15,0.05,-1.2,1.48,-1.74,-9.12,-79.42,-31.05,-23.66,-7.44,-30.17,-25.89,Standing
44:36.4,382,500,750,846,362,1.83,547.66,1.77,20724.29,361,151,151.21,151,22863,161730,1064,0.99,-0.15,0.04,0.63,2.92,0.24,-9.5,-79.15,-30.9,-23.54,-7.31,-30.04,-25.77,Standing
44:36.6,432,500,750,846,362,1.83,547.66,1.77,20724.29,361,152,151.21,151,22863,184834,1216,1,-0.17,0.06,-1.72,1.21,0.43,-10.01,-78.32,-31.05,-23.64,-7.16,-30.2,-25.83,Standing
44:36.7,584,501,751.5,846,362,1.83,547.66,1.77,20724.29,361,153,151.21,151,22863,208243,1369,1.01,-0.16,0.06,-1.13,-0.56,-1.13,-9.74,-78.59,-31.12,-23.96,-7.2,-30.26,-26.1,Standing
44:41.5,556,556,834,556,365,1.8,554.71,1.78,0,0,149,0,0,0,44701,299,0.98,-0.18,0.11,2.66,11.34,-3.99,-11.02,-76.23,0.92,1.34,-1,0.44,-1.76,Left Fall while Standing
44:41.6,611,583,874.5,611,365,1.8,554.71,1.78,0,0,150,0,0,0,67201,449,1.01,-0.17,0.11,2.38,10.08,-11.99,-10.02,-77.01,1.28,2.33,-2.36,0.83,-0.84,Left Fall while Standing
44:41.7,591,586,879,611,365,1.8,554.71,1.78,0,0,150,0,0,0,89701,599,1,-0.11,0.14,5.81,15.02,-17.73,-6.81,-78.12,2.05,3.92,-4.43,1.7,0.64,Left Fall while Standing
44:41.8,516,568,852,611,364,1.81,552.35,1.78,0,0,148,0,0,0,111605,747,0.99,-0.09,0.17,10.53,11.22,-21.08,-5.67,-77.35,3.42,5.05,-6.93,3.05,1.76,Left Fall while Standing
44:41.9,435,541,811.5,611,365,1.8,554.71,1.78,0,0,147,0,0,0,133214,894,0.98,-0.06,0.22,1.82,8.39,-12.55,-4.12,-75.5,3.71,5.83,-8.36,3.39,2.58,Left Fall while Standing
44:42.1,392,516,774,611,365,1.8,554.71,1.78,0,0,147,0,0,0,154823,1041,0.99,-0.03,0.21,-1.08,3.37,-11.49,-2.53,-76.35,3.64,6,-9.67,3.4,2.71,Left Fall while Standing
44:42.2,420,503,754.5,611,365,1.8,554.71,1.78,0,0,148,0,0,0,176727,1189,0.99,0,0.24,-2.11,4.85,-13.2,-0.83,-75.08,3.45,6.35,-11.18,3.28,3.09,Left Fall while Standing
44:42.3,490,501,751.5,611,365,1.8,554.71,1.78,0,0,147,0,0,0,198336,1336,0.96,0.02,0.24,4.54,4.34,-19.01,0.56,-74.2,4.08,6.64,-13.42,3.94,3.4,Left Fall while Standing
44:42.4,553,507,760.5,611,365,1.8,554.71,1.78,46.4,365,148,148.4,148,22023,0,0,0.94,0.08,0.25,3.37,13.27,-19.28,3.87,-72.8,4.57,8.02,-15.7,4.54,4.79,Left Fall while Standing
44:42.6,572,513,769.5,611,364,1.81,552.35,1.78,46.4,365,148,148.4,148,22023,21904,148,0.95,0.12,0.24,7.75,12.93,-18.18,6.47,-72.44,5.6,9.38,-17.85,5.63,6.1,Left Fall while Standing
44:42.7,543,516,774,611,364,1.81,552.35,1.78,46.4,365,147,148.4,148,22023,43513,295,0.96,0.15,0.28,10.37,10.8,-20.02,8.13,-70.17,6.94,10.46,-20.22,6.99,7.23,Left Fall while Standing
44:42.8,404,506,759,611,364,1.81,552.35,1.78,46.4,365,145,148.4,148,22023,64538,440,0.94,0.21,0.29,8.95,10.27,-21.05,11.67,-67.65,8.13,11.49,-22.75,8.27,8.33,Left Fall while Standing
44:42.9,701,521,781.5,701,364,1.81,552.35,1.78,46.4,365,146,148.4,148,22023,85854,586,0.91,0.25,0.3,5.2,8.69,-19.18,13.99,-65.43,8.84,12.32,-25.03,9.05,9.21,Left Fall while Standing
44:43.1,404,513,769.5,701,364,1.81,552.35,1.78,46.4,365,146,148.4,148,22023,107170,732,0.89,0.29,0.31,5.5,3.62,-20.66,16.43,-63.08,9.59,12.52,-27.49,9.87,9.5,Left Fall while Standing
44:43.2,512,513,769.5,701,364,1.81,552.35,1.78,46.4,365,148,148.4,148,22023,129074,880,0.85,0.32,0.28,2.21,1.69,-18.79,19.21,-61.6,9.94,12.49,-29.72,10.31,9.52,Left Fall while Standing
44:43.3,437,508,762,701,364,1.81,552.35,1.78,46.4,365,147,148.4,148,22023,150683,1027,0.89,0.37,0.3,3.42,2.08,-16.37,20.99,-60.15,10.43,12.5,-31.66,10.85,9.59,Left Fall while Standing
44:43.4,318,497,745.5,701,364,1.81,552.35,1.78,46.4,365,145,148.4,148,22023,171708,1172,0.86,0.38,0.31,1.13,5.71,-12.23,21.98,-58.63,10.64,12.96,-33.07,11.09,10.09,Left Fall while Standing
44:43.5,421,493,739.5,701,365,1.8,554.71,1.78,46.4,365,147,148.4,148,22023,193317,1319,0.84,0.41,0.31,0.09,4.85,-10.67,24.13,-56.81,10.72,13.31,-34.31,11.26,10.51,Left Fall while Standing
44:43.7,571,497,745.5,701,364,1.81,552.35,1.78,38.68,364,147,146.6,146,21491,0,0,0.82,0.43,0.34,0.94,6.91,-13.37,25.14,-54.88,10.91,13.92,-35.87,11.48,11.17,Left Fall while Standing
44:43.8,524,498,747,701,364,1.81,552.35,1.78,38.68,364,147,146.6,146,21491,21609,147,0.8,0.45,0.34,-0.66,10.49,-18.67,26.95,-53.09,10.9,14.97,-38.09,11.54,12.25,Left Fall while Standing
44:43.9,383,493,739.5,701,364,1.81,552.35,1.78,38.68,364,146,146.6,146,21491,42925,293,0.77,0.49,0.35,3.31,9.48,-19.67,29.67,-50.05,11.38,15.91,-40.45,12.11,13.27,Left Fall while Standing
44:44.0,607,498,747,701,365,1.8,554.71,1.78,38.68,364,147,146.6,146,21491,64534,440,0.73,0.52,0.35,4.59,-0.28,-13,32.3,-47.62,12.02,15.62,-41.97,12.83,13.09,Left Fall while Standing
44:44.2,524,499,748.5,701,364,1.81,552.35,1.78,38.68,364,146,146.6,146,21491,85850,586,0.75,0.55,0.33,-0.08,-0.99,-7.02,33.37,-47.88,12.08,15.25,-42.75,12.93,12.73,Left Fall while Standing
44:44.3,565,502,753,701,363,1.82,550,1.77,38.68,364,147,146.6,146,21491,107459,733,0.74,0.55,0.34,-2.01,2.89,-5.7,33.38,-47.17,11.9,15.36,-43.36,12.76,12.86,Left Fall while Standing
44:44.4,404,498,747,701,363,1.82,550,1.77,38.68,364,145,146.6,146,21491,128484,878,0.72,0.56,0.36,-0.76,-1.44,-4.53,34.54,-45.51,11.87,14.93,-43.83,12.78,12.52,Left Fall while Standing
44:44.5,401,494,741,701,363,1.82,550,1.77,38.68,364,146,146.6,146,21491,149800,1024,0.74,0.57,0.34,2.89,0.96,-7.68,34.57,-46.5,12.31,14.8,-44.69,13.2,12.35,Left Fall while Standing
44:44.7,526,495,742.5,701,363,1.82,550,1.77,38.68,364,147,146.6,146,21491,171409,1171,0.7,0.58,0.33,7.02,1.92,-13.27,36.36,-44.81,13.25,14.79,-46.25,14.18,12.41,Left Fall while Standing
44:44.8,604,499,748.5,701,363,1.82,550,1.77,38.68,364,148,146.6,146,21491,193313,1319,0.68,0.61,0.3,1.24,-1.2,-4.47,38.71,-43.52,13.48,14.4,-46.71,14.49,12.08,Left Fall while Standing
44:44.9,433,497,745.5,701,363,1.82,550,1.77,32.56,363,146,146.5,146,21461,0,0,0.71,0.6,0.32,2.12,-3.76,-1.94,37.31,-44.47,13.81,13.69,-46.85,14.75,11.36,Left Fall while Standing
44:45.0,435,495,742.5,701,363,1.82,550,1.77,32.56,363,147,146.5,146,21461,21609,147,0.71,0.63,0.31,5.27,-5.32,-7.7,38.41,-43.93,14.54,12.77,-47.71,15.49,10.51,Left Fall while Standing
44:45.2,841,506,759,841,363,1.82,550,1.77,32.56,363,147,146.5,146,21461,43218,294,0.69,0.63,0.29,1.47,-1.3,-7.02,39.6,-43.03,14.79,12.36,-48.48,15.78,10.15,Left Fall while Standing
44:45.3,592,508,762,841,362,1.83,547.66,1.77,32.56,363,149,146.5,146,21461,65419,443,0.67,0.65,0.28,0.52,-3.06,-1.86,41.3,-41.88,14.92,11.73,-48.62,15.98,9.59,Left Fall while Standing
44:45.4,534,509,763.5,841,362,1.83,547.66,1.77,32.56,363,148,146.5,146,21461,87323,591,0.68,0.66,0.24,4.38,-4.83,-8.15,41.56,-42.81,15.53,10.89,-49.53,16.58,8.74,Left Fall while Standing
44:45.5,445,507,760.5,841,362,1.83,547.66,1.77,32.56,363,146,146.5,146,21461,108639,737,0.72,0.65,0.2,1.8,1.88,-4.34,40.4,-45.09,15.83,10.87,-49.97,16.81,8.63,Left Fall while Standing
44:45.7,528,508,762,841,362,1.83,547.66,1.77,32.56,363,147,146.5,146,21461,130248,884,0.7,0.67,0.25,-1.71,3.37,-4.6,41.61,-42.51,15.69,11.04,-50.45,16.72,8.9,Left Fall while Standing
44:45.8,629,511,766.5,841,362,1.83,547.66,1.77,32.56,363,148,146.5,146,21461,152152,1032,0.66,0.68,0.24,-1.29,-1.02,-4.81,43.35,-41.11,15.6,10.66,-50.95,16.71,8.59,Left Fall while Standing
44:45.9,521,511,766.5,841,361,1.83,545.32,1.76,32.56,363,148,146.5,146,21461,174056,1180,0.67,0.68,0.23,-0.05,0.62,-3.87,43.38,-41.19,15.66,10.49,-51.33,16.77,8.42,Left Fall while Standing
44:46.0,363,508,762,841,362,1.83,547.66,1.77,32.56,363,147,146.5,146,21461,195665,1327,0.65,0.68,0.26,0.32,6.35,-7.78,43.89,-40.03,15.77,11.03,-52.2,16.89,8.99,Left Fall while Standing
44:46.2,408,505,757.5,841,362,1.83,547.66,1.77,6.63,362,150,147.7,147,21815,0,0,0.64,0.7,0.25,-0.95,2.45,-5.61,44.87,-39.3,15.72,11.08,-52.79,16.89,9.07,Left Fall while Standing
44:46.3,512,505,757.5,841,363,1.82,550,1.77,6.63,362,147,147.7,147,21815,21609,147,0.63,0.7,0.22,1.3,1.01,-5.96,45.91,-39.04,15.95,10.96,-53.44,17.15,8.96,Left Fall while Standing
44:46.4,611,508,762,841,363,1.82,550,1.77,6.63,362,149,147.7,147,21815,43810,296,0.6,0.7,0.23,-3.76,1.17,1.73,46.82,-37.53,15.56,10.86,-53.12,16.81,8.92,Left Fall while Standing
44:46.5,526,508,762,841,362,1.83,547.66,1.77,6.63,362,152,147.7,147,21815,66914,448,0.66,0.71,0.24,-1.89,-3.42,7.02,44.84,-39.54,15.39,10.18,-52.15,16.57,8.2,Left Fall while Standing
44:46.7,362,505,757.5,841,363,1.82,550,1.77,6.63,362,147,147.7,147,21815,88523,595,0.67,0.69,0.25,-0.14,-0.91,-5.77,43.41,-40.67,15.45,9.82,-52.77,16.56,7.8,Left Fall while Standing
44:46.8,422,503,754.5,841,363,1.82,550,1.77,6.63,362,148,147.7,147,21815,110427,743,0.62,0.69,0.25,0.28,0.72,-5.98,45.32,-38.61,15.55,9.67,-53.42,16.74,7.73,Left Fall while Standing
44:46.9,636,506,759,841,364,1.81,552.35,1.78,6.63,362,151,147.7,147,21815,133228,894,0.65,0.7,0.23,0.25,-0.81,-3.17,45.03,-39.67,15.65,9.32,-53.71,16.83,7.36,Left Fall while Standing
44:47.0,571,507,760.5,841,363,1.82,550,1.77,6.63,362,153,147.7,147,21815,156637,1047,0.64,0.7,0.23,1.31,-1.8,-2.57,45.43,-39.11,15.88,8.84,-53.93,17.07,6.92,Left Fall while Standing
44:47.2,478,507,760.5,841,363,1.82,550,1.77,6.63,362,149,147.7,147,21815,178838,1196,0.62,0.72,0.2,-1.98,-1.6,-2.46,47.23,-38.15,15.71,8.4,-54.14,16.97,6.53,Left Fall while Standing
44:47.3,378,504,756,841,363,1.82,550,1.77,6.63,362,148,147.7,147,21815,200742,1344,0.62,0.7,0.23,-0.82,-1.87,2.53,46.11,-38.49,15.67,7.92,-53.73,16.89,6.06,Left Fall while Standing
44:47.4,496,504,756,841,364,1.81,552.35,1.78,27.73,363,150,149.41,149,22323,0,0,0.66,0.7,0.22,-1.72,-2.98,2.79,44.7,-40.29,15.53,7.3,-53.29,16.7,5.4,Left Fall while Standing
44:47.5,828,510,765,841,364,1.81,552.35,1.78,27.73,363,150,149.41,149,22323,22500,150,0.66,0.7,0.21,-0.92,-3.19,-4.11,44.58,-40.57,15.49,6.66,-53.69,16.65,4.77,Left Fall while Standing
44:47.6,541,511,766.5,841,363,1.82,550,1.77,27.73,363,151,149.41,149,22323,45301,301,0.65,0.7,0.2,0.01,-1.73,-3.37,45.51,-39.85,15.56,6.2,-54.01,16.76,4.36,Left Fall while Standing
44:47.8,390,508,762,841,364,1.81,552.35,1.78,27.73,363,149,149.41,149,22323,67502,450,0.63,0.7,0.2,-1.33,1.67,-2.77,45.91,-39.36,15.46,6.16,-54.26,16.68,4.34,Left Fall while Standing
44:47.9,347,505,757.5,841,364,1.81,552.35,1.78,27.73,363,149,149.41,149,22323,89703,599,0.63,0.72,0.21,-3.85,1.63,-1.45,46.6,-38.67,15.05,6.11,-54.34,16.31,4.32,Left Fall while Standing
44:48.0,471,505,757.5,841,364,1.81,552.35,1.78,27.73,363,149,149.41,149,22323,111904,748,0.62,0.71,0.2,-4.35,2.45,1.41,46.77,-38.63,14.58,6.17,-54.07,15.87,4.38,Left Fall while Standing
44:48.1,606,507,760.5,841,364,1.81,552.35,1.78,27.73,363,150,149.41,149,22323,134404,898,0.64,0.7,0.21,-3.85,0.73,7.15,45.78,-39.45,14.17,6.01,-53.08,15.44,4.19,Left Fall while Standing
44:48.3,544,507,760.5,841,364,1.81,552.35,1.78,27.73,363,150,149.41,149,22323,156904,1048,0.67,0.69,0.2,-6.73,-2.11,11.84,43.94,-41.56,13.4,5.5,-51.51,14.62,3.61,Left Fall while Standing
44:48.4,379,505,757.5,841,364,1.81,552.35,1.78,27.73,363,149,149.41,149,22323,179105,1197,0.67,0.66,0.21,-7.36,-1.92,14.56,42.45,-42.61,12.56,5.01,-49.6,13.75,3.1,Left Fall while Standing
44:48.5,453,504,756,841,364,1.81,552.35,1.78,27.73,363,149,149.41,149,22323,201306,1346,0.73,0.65,0.23,-11.92,-1.01,14.79,39.7,-45.03,11.14,4.63,-47.65,12.28,2.65,Left Fall while Standing
44:48.6,620,506,759,841,365,1.8,554.71,1.78,37.74,364,149,149.5,149,22349,0,0,0.76,0.6,0.25,-1.66,-0.76,9.75,36.42,-47.64,11,4.29,-46.36,12.02,2.22,Left Fall while Standing
44:48.8,580,507,760.5,841,364,1.81,552.35,1.78,37.74,364,151,149.5,149,22349,22801,151,0.75,0.59,0.23,-3.88,-2.53,9.65,36.44,-48.26,10.59,3.73,-45.05,11.62,1.65,Left Fall while Standing
44:48.9,511,507,760.5,841,364,1.81,552.35,1.78,37.74,364,149,149.5,149,22349,45002,300,0.78,0.57,0.22,-6.04,-2.26,13.79,34.54,-50.25,9.91,3.2,-43.25,10.89,1.06,Left Fall while Standing
44:49.0,400,506,759,841,365,1.8,554.71,1.78,37.74,364,149,149.5,149,22349,67203,449,0.79,0.53,0.23,-4.67,-7.53,17.79,32.36,-52.03,9.4,2.03,-40.96,10.32,-0.13,Left Fall while Standing
44:49.1,465,505,757.5,841,365,1.8,554.71,1.78,37.74,364,148,149.5,149,22349,89107,597,0.81,0.49,0.19,-3.96,-5.71,23.79,29.86,-55.41,8.98,1.07,-37.91,9.82,-1.19,Left Fall while Standing
44:49.3,611,507,760.5,841,365,1.8,554.71,1.78,37.74,364,150,149.5,149,22349,111607,747,0.83,0.46,0.18,-8.74,-5.19,31.69,28.18,-57.3,7.96,0.17,-33.85,8.77,-2.13,Left Fall while Standing
44:49.4,532,507,760.5,841,365,1.8,554.71,1.78,37.74,364,150,149.5,149,22349,134107,897,0.92,0.4,0.22,-9.92,-6.1,31.02,22.27,-61.99,6.8,-0.83,-29.91,7.42,-3.28,Left Fall while Standing
44:49.5,363,505,757.5,841,365,1.8,554.71,1.78,37.74,364,148,149.5,149,22349,156011,1045,0.88,0.32,0.16,-1.45,-4.15,25.82,19.3,-66.06,6.69,-1.6,-26.58,7.19,-4.18,Left Fall while Standing
44:49.6,387,503,754.5,841,365,1.8,554.71,1.78,37.74,364,149,149.5,149,22349,178212,1194,0.94,0.24,0.08,-13.88,-0.72,41.15,13.51,-73.49,5.02,-1.94,-21.34,5.36,-4.8,Left Fall while Standing
44:49.8,515,503,754.5,841,365,1.8,554.71,1.78,37.74,364,149,149.5,149,22349,200413,1343,1,0.14,0.21,-29.97,-7.69,37.53,6.94,-74.66,1.38,-3.14,-16.59,1.6,-6,Left Fall while Standing
44:49.9,544,504,756,841,364,1.81,552.35,1.78,43.98,364,150,149.3,149,22290,0,0,1.03,0.07,0.16,-4.21,5.91,9.53,3,-78.89,0.92,-2.66,-15.31,1.01,-5.71,Left Fall while Standing
44:50.0,383,502,753,841,365,1.8,554.71,1.78,43.98,364,148,149.3,149,22290,21904,148,0.97,0.06,0.18,-6.56,24.25,-0.51,3,-77.27,0.18,0.1,-15.27,0.29,-2.99,Left Fall while Standing
44:50.1,297,499,748.5,841,366,1.8,557.08,1.79,43.98,364,147,149.3,149,22290,43513,295,0.96,0.06,0.3,-21.17,-0.2,22.24,3,-70.92,-2.38,-0.17,-12.42,-2.16,-3,Left Fall while Standing
44:50.3,369,497,745.5,841,366,1.8,557.08,1.79,43.98,364,147,149.3,149,22290,65122,442,1,-0.01,0.23,-8.11,-12.19,35.2,-0.91,-75.45,-3.31,-1.93,-7.95,-3.22,-4.87,Left Fall while Standing
44:50.4,538,498,747,841,365,1.8,554.71,1.78,43.98,364,148,149.3,149,22290,87026,590,0.98,-0.14,0.23,-11.33,0.08,21.22,-8.47,-73.08,-4.65,-2.17,-5.22,-4.8,-5.01,Left Fall while Standing
44:50.5,645,500,750,841,376,1.72,581.14,1.84,43.98,364,150,149.3,149,22290,109526,740,0.93,-0.13,0.17,-10.85,-6.76,13.37,-8.33,-75.61,-5.94,-3.27,-3.46,-6.03,-6.16,Left Fall while Standing
44:50.6,419,499,748.5,841,358,1.86,538.35,1.75,43.98,364,147,149.3,149,22290,131135,887,1.09,-0.17,0.11,-4.98,0.03,12.11,-9.26,-78.02,-6.49,-3.51,-1.84,-6.6,-6.49,Left Fall while Standing
44:50.8,430,498,747,841,363,1.82,550,1.77,43.98,364,147,149.3,149,22290,152744,1034,1.03,-0.23,0.13,-7.77,-0.92,0.21,-13.2,-74.04,-7.39,-3.88,-1.72,-7.62,-6.68,Left Fall while Standing
44:50.9,705,501,751.5,841,365,1.8,554.71,1.78,43.98,364,149,149.3,149,22290,174945,1183,0.94,-0.19,0.19,-10.27,0.79,0.87,-11.75,-72.34,-8.6,-4.03,-1.51,-8.73,-6.76,Left Fall while Standing
44:51.0,597,502,753,841,365,1.8,554.71,1.78,43.98,364,149,149.3,149,22290,197146,1332,0.99,-0.21,0.19,-6.25,-5.2,3.63,-12.2,-72.7,-9.31,-4.93,-0.96,-9.43,-7.64,Left Fall while Standing
44:51.1,448,501,751.5,841,366,1.8,557.08,1.79,50.35,365,149,148.1,148,21933,0,0,0.98,-0.24,0.18,3.04,2.55,-0.96,-14.23,-71.31,-8.87,-4.86,-0.98,-9.08,-7.52,Left Fall while Standing
44:51.3,460,501,751.5,841,367,1.79,559.45,1.79,50.35,365,150,148.1,148,21933,22500,150,0.98,-0.23,0.11,3.15,1.92,-5.79,-13.78,-73.81,-8.41,-4.87,-1.6,-8.62,-7.63,Left Fall while Standing
44:51.4,542,501,751.5,841,367,1.79,559.45,1.79,50.35,365,150,148.1,148,21933,45000,300,1.01,-0.22,0.16,-9.48,2.21,-2.17,-12.71,-73.4,-9.52,-4.84,-1.77,-9.65,-7.59,Left Fall while Standing
44:51.5,634,503,754.5,841,367,1.79,559.45,1.79,50.35,365,151,148.1,148,21933,67801,451,1,-0.2,0.19,-5.9,1.51,-6.34,-11.82,-72.92,-10.19,-4.9,-2.47,-10.26,-7.62,Left Fall while Standing
44:51.6,478,502,753,841,368,1.78,561.83,1.8,50.35,365,150,148.1,148,21933,90301,601,0.97,-0.17,0.17,-4.72,-1.22,-4.44,-10.12,-74.54,-10.71,-5.31,-2.92,-10.69,-8.08,Left Fall while Standing
44:51.8,424,501,751.5,841,368,1.78,561.83,1.8,50.35,365,150,148.1,148,21933,112801,751,0.96,-0.18,0.18,2.7,3.58,-0.02,-10.87,-73.71,-10.3,-5.11,-2.82,-10.33,-7.85,Left Fall while Standing
44:51.9,538,502,753,841,368,1.78,561.83,1.8,50.35,365,151,148.1,148,21933,135602,902,0.95,-0.18,0.18,-0.76,0,1.79,-11.36,-73.28,-10.33,-5.36,-2.5,-10.37,-8.08,Left Fall while Standing
44:55.3,410,410,615,410,370,1.76,566.62,1.81,0,0,152,0,0,0,46513,305,1.01,-0.25,0.1,-6.86,3.66,-0.05,-14.26,-73.61,-1.13,-1.3,0.34,-1.66,-4.19,Right Fall while Standing
44:55.4,455,432,648,455,370,1.76,566.62,1.81,0,0,153,0,0,0,69922,458,0.93,-0.23,0.15,-3.87,-2.15,4.52,-14.14,-72.22,-1.54,-1.81,1,-2.04,-4.63,Right Fall while Standing
44:55.5,528,464,696,528,370,1.76,566.62,1.81,0,0,153,0,0,0,93331,611,0.95,-0.25,0.08,-4.82,-9.78,20.76,-15.07,-73.12,-2.06,-3.26,3.65,-2.58,-6.06,Right Fall while Standing
44:55.6,604,499,748.5,604,368,1.78,561.83,1.8,0,0,154,0,0,0,117047,765,0.96,-0.32,0.09,-0.18,-16.31,27.22,-18.9,-69.33,-2.02,-5.51,7.09,-2.69,-8.06,Right Fall while Standing
44:55.8,808,561,841.5,808,370,1.76,566.62,1.81,0,0,155,0,0,0,141072,920,0.95,-0.38,0.05,2.32,-9.5,13.63,-22.12,-66.7,-1.66,-6.93,8.87,-2.48,-9.32,Right Fall while Standing
44:55.9,406,535,802.5,808,369,1.77,564.22,1.8,0,0,152,0,0,0,164176,1072,0.92,-0.39,0.01,-0.37,-1.55,18.95,-23.25,-65.74,-1.64,-7.36,11.29,-2.5,-9.7,Right Fall while Standing
44:56.0,383,513,769.5,808,374,1.74,576.27,1.83,0,0,151,0,0,0,186977,1223,0.98,-0.44,-0.02,-2.08,7.79,21.94,-24.77,-64.2,-1.83,-6.66,14.07,-2.74,-8.96,Right Fall while Standing
44:56.1,450,505,757.5,808,369,1.77,564.22,1.8,0,0,153,0,0,0,210386,1376,0.89,-0.48,0.07,3.28,11.24,22.45,-28.67,-60.04,-1.35,-5.51,16.95,-2.44,-7.69,Right Fall while Standing
44:56.3,509,505,757.5,808,371,1.76,569.02,1.81,76.84,370,152,152.8,152,23348,0,0,0.79,-0.57,0.15,-3.3,7.08,18.89,-35.74,-51.9,-1.69,-4.89,19.37,-3.05,-6.77,Right Fall while Standing
44:56.4,604,515,772.5,808,371,1.76,569.02,1.81,76.84,370,154,152.8,152,23348,23716,154,0.86,-0.58,0.1,-3.1,-2.15,21.37,-34.72,-53.76,-2,-5.41,22.14,-3.31,-7.34,Right Fall while Standing
44:56.5,516,515,772.5,808,370,1.76,566.62,1.81,76.84,370,152,152.8,152,23348,46820,306,0.83,-0.61,0.07,-4.87,-3.37,15.17,-36.98,-51.76,-2.54,-6.08,24.13,-3.92,-7.9,Right Fall while Standing
44:56.6,413,507,760.5,808,370,1.76,566.62,1.81,76.84,370,152,152.8,152,23348,69924,458,0.8,-0.63,0.09,-1.5,-6.06,12.3,-38.44,-50.11,-2.66,-7.08,25.77,-4.09,-8.81,Right Fall while Standing
44:56.8,518,508,762,808,371,1.76,569.02,1.81,76.84,370,153,152.8,152,23348,93333,611,0.8,-0.66,0.02,-6.77,-3.58,17.78,-40.24,-48.75,-3.44,-7.78,28.09,-4.91,-9.42,Right Fall while Standing
44:56.9,660,518,777,808,370,1.76,566.62,1.81,76.84,370,154,152.8,152,23348,117049,765,0.77,-0.67,0.03,-8.51,3.31,10.38,-41.4,-47.53,-4.43,-7.62,29.49,-5.91,-9.21,Right Fall while Standing
44:57.0,480,516,774,808,370,1.76,566.62,1.81,76.84,370,152,152.8,152,23348,140153,917,0.72,-0.7,0.04,-3.82,2.21,8.94,-44.55,-44.34,-4.84,-7.59,30.7,-6.42,-9.06,Right Fall while Standing
44:57.1,380,507,760.5,808,370,1.76,566.62,1.81,76.84,370,152,152.8,152,23348,163257,1069,0.68,-0.72,0.06,-3.59,3.17,11.53,-46.83,-41.95,-5.21,-7.45,32.23,-6.88,-8.83,Right Fall while Standing
44:57.3,543,509,763.5,808,372,1.75,571.43,1.82,76.84,370,156,152.8,152,23348,187593,1225,0.71,-0.75,0.03,-8.47,-6.45,11.91,-47.07,-41.86,-6.2,-8.5,33.82,-7.84,-9.84,Right Fall while Standing
44:57.4,633,516,774,808,373,1.74,573.85,1.82,76.84,370,158,152.8,152,23348,212557,1383,0.7,-0.78,-0.01,-6.66,-12.44,9.08,-48.42,-40.57,-6.97,-10.32,35.06,-8.63,-11.53,Right Fall while Standing
44:57.5,464,513,769.5,808,373,1.74,573.85,1.82,81.06,371,156,153.91,153,23688,0,0,0.67,-0.78,-0.02,-4.93,-5.25,4.32,-49.95,-39.04,-7.51,-11.21,35.69,-9.21,-12.33,Right Fall while Standing
44:57.6,410,508,762,808,374,1.74,576.27,1.83,81.06,371,155,153.91,153,23688,24025,155,0.65,-0.79,-0.06,-2.37,-2.16,5.19,-51.12,-37.69,-7.73,-11.73,36.44,-9.47,-12.77,Right Fall while Standing
44:57.8,496,508,762,808,373,1.74,573.85,1.82,81.06,371,156,153.91,153,23688,48361,311,0.64,-0.81,-0.03,-2.34,6.6,6.4,-51.97,-36.98,-7.96,-11.16,37.34,-9.72,-12.19,Right Fall while Standing
44:57.9,570,510,765,808,373,1.74,573.85,1.82,81.06,371,159,153.91,153,23688,73642,470,0.63,-0.8,0,9.42,15.37,8.01,-52.14,-36.86,-6.71,-9.49,38.44,-8.53,-10.58,Right Fall while Standing
44:58.0,424,507,760.5,808,373,1.74,573.85,1.82,81.06,371,155,153.91,153,23688,97667,625,0.63,-0.82,0.04,9.32,1.73,7.08,-53.27,-35.63,-5.47,-9.52,39.42,-7.39,-10.57,Right Fall while Standing
44:58.1,326,499,748.5,808,373,1.74,573.85,1.82,81.06,371,153,153.91,153,23688,121076,778,0.62,-0.81,0.02,1.31,2.57,5.59,-53.37,-35.62,-5.24,-9.45,40.22,-7.17,-10.5,Right Fall while Standing
44:58.3,467,498,747,808,372,1.75,571.43,1.82,81.06,371,154,153.91,153,23688,144792,932,0.6,-0.82,0.03,1.34,5.56,5.96,-54.58,-34.37,-5,-9.01,41.06,-6.99,-10.02,Right Fall while Standing
44:58.4,558,500,750,808,372,1.75,571.43,1.82,81.06,371,155,153.91,153,23688,168817,1087,0.55,-0.84,0.09,2.27,8.82,6.02,-56.88,-31.64,-4.65,-8.16,41.91,-6.74,-9.1,Right Fall while Standing
44:58.5,529,501,751.5,808,372,1.75,571.43,1.82,81.06,371,155,153.91,153,23688,192842,1242,0.55,-0.86,0.1,3.57,4.4,10.07,-57.33,-31.13,-4.13,-7.86,43.26,-6.26,-8.79,Right Fall while Standing
44:58.6,685,508,762,808,373,1.74,573.85,1.82,81.06,371,154,153.91,153,23688,216558,1396,0.57,-0.86,0.1,-4.22,-2.19,1.15,-56.6,-31.86,-4.59,-8.38,43.51,-6.67,-9.32,Right Fall while Standing
44:58.8,468,506,759,808,373,1.74,573.85,1.82,88.93,372,155,155.11,155,24057,0,0,0.56,-0.85,0.07,-3.89,-0.94,4.02,-56.8,-31.94,-5,-8.74,44.1,-7.08,-9.67,Right Fall while Standing
44:58.9,563,508,762,808,372,1.75,571.43,1.82,88.93,372,154,155.11,155,24057,23716,154,0.53,-0.87,0.06,-2.4,0.98,3.48,-58.96,-29.83,-5.23,-8.87,44.63,-7.38,-9.71,Right Fall while Standing
44:59.0,540,509,763.5,808,371,1.76,569.02,1.81,88.93,372,153,155.11,155,24057,47125,307,0.55,-0.87,0.05,-5.09,-0.2,0.05,-58.07,-30.79,-5.8,-9.15,44.74,-7.89,-10.01,Right Fall while Standing
44:59.1,426,507,760.5,808,370,1.76,566.62,1.81,88.93,372,150,155.11,155,24057,69625,457,0.53,-0.89,0.04,-8.73,-0.26,1.01,-59.73,-29.17,-6.81,-9.43,44.96,-8.93,-10.22,Right Fall while Standing
44:59.2,415,504,756,808,371,1.76,569.02,1.81,88.93,372,151,155.11,155,24057,92426,608,0.48,-0.87,0.06,-5.17,-5.54,-0.13,-61.37,-27.36,-7.39,-10.37,45.04,-9.55,-11.05,Right Fall while Standing
44:59.4,519,504,756,808,370,1.76,566.62,1.81,88.93,372,151,155.11,155,24057,115227,759,0.53,-0.89,0.04,-2.44,0.82,-1.04,-59.59,-29.32,-7.62,-10.52,45.01,-9.7,-11.27,Right Fall while Standing
44:59.5,512,504,756,808,369,1.77,564.22,1.8,88.93,372,151,155.11,155,24057,138028,910,0.52,-0.88,0.06,-0.44,4.15,-0.49,-59.9,-28.89,-7.61,-10.25,45.05,-9.7,-10.99,Right Fall while Standing
44:59.6,409,502,753,808,370,1.76,566.62,1.81,88.93,372,150,155.11,155,24057,160528,1060,0.52,-0.88,0.04,-2.76,-0.73,-0.6,-60.11,-28.81,-7.88,-10.59,45.07,-9.97,-11.32,Right Fall while Standing
44:59.8,488,501,751.5,808,371,1.76,569.02,1.81,88.93,372,151,155.11,155,24057,183329,1211,0.55,-0.89,0.03,-4.77,-0.21,-3.63,-58.73,-30.21,-8.41,-10.87,44.72,-10.43,-11.64,Right Fall while Standing
44:59.9,574,503,754.5,808,371,1.76,569.02,1.81,88.93,372,153,155.11,155,24057,206738,1364,0.52,-0.88,0.02,-1.34,6.19,-7.35,-60.12,-28.85,-8.51,-10.34,43.89,-10.58,-11.08,Right Fall while Standing
45:00.0,486,503,754.5,808,371,1.76,569.02,1.81,79.2,370,152,151.6,151,22983,0,0,0.52,-0.82,0.06,3.56,14.25,1.2,-57.87,-30.91,-8,-8.82,44.14,-10,-9.7,Right Fall while Standing
45:00.1,427,501,751.5,808,371,1.76,569.02,1.81,79.2,370,152,151.6,151,22983,23104,152,0.54,-0.89,0.03,-9.27,7.19,0.55,-59.34,-29.62,-9.09,-8.17,44.3,-11.1,-9.03,Right Fall while Standing
45:00.3,499,501,751.5,808,372,1.75,571.43,1.82,79.2,370,151,151.6,151,22983,45905,303,0.53,-0.9,0.06,-3.75,3.23,-5.59,-59.76,-29,-9.48,-8.02,43.71,-11.5,-8.86,Right Fall while Standing
45:00.4,868,510,765,868,371,1.76,569.02,1.81,79.2,370,151,151.6,151,22983,68706,454,0.52,-0.86,0.03,-3.87,6.52,-1.06,-59.48,-29.46,-9.9,-7.45,43.67,-11.88,-8.33,Right Fall while Standing
45:00.5,520,510,765,868,370,1.76,566.62,1.81,79.2,370,150,151.6,151,22983,91206,604,0.51,-0.88,0.08,-22.22,5.77,9.86,-60.01,-28.64,-12.61,-6.98,45.01,-14.5,-7.85,Right Fall while Standing
45:00.6,414,508,762,868,371,1.76,569.02,1.81,79.2,370,150,151.6,151,22983,113706,754,0.5,-0.9,0.01,13.81,1.49,-9.85,-61.26,-27.73,-10.81,-7.05,43.87,-12.83,-7.87,Right Fall while Standing
45:00.8,561,509,763.5,868,372,1.75,571.43,1.82,79.2,370,153,151.6,151,22983,137115,907,0.51,-0.87,0.04,-2.75,8.16,1.5,-60.16,-28.72,-11.08,-6.28,44.16,-13.05,-7.17,Right Fall while Standing
45:00.9,669,512,768,868,373,1.74,573.85,1.82,79.2,370,153,151.6,151,22983,160524,1060,0.52,-0.9,0.06,-0.24,0.6,-1.69,-60.35,-28.45,-11.04,-6.45,44.05,-13.02,-7.33,Right Fall while Standing
45:01.0,453,511,766.5,868,372,1.75,571.43,1.82,79.2,370,153,151.6,151,22983,183933,1213,0.49,-0.89,0.04,-3.88,-2.26,-2.14,-61.88,-26.99,-11.46,-6.98,43.88,-13.47,-7.78,Right Fall while Standing
45:01.1,410,509,763.5,868,373,1.74,573.85,1.82,79.2,370,154,151.6,151,22983,207649,1367,0.52,-0.88,0.07,1.34,0.89,-5.38,-60.02,-28.69,-11.22,-7.12,43.3,-13.17,-7.99,Right Fall while Standing
45:01.2,512,509,763.5,868,373,1.74,573.85,1.82,84.64,371,154,152.11,152,23135,0,0,0.5,-0.86,0.03,-2.92,2.91,-5.27,-60.42,-28.5,-11.51,-7.01,42.75,-13.46,-7.87,Right Fall while Standing
45:01.4,629,511,766.5,868,374,1.74,576.27,1.83,84.64,371,157,152.11,152,23135,24649,157,0.52,-0.86,0.07,-6.12,10.43,-0.12,-59.26,-29.4,-12.2,-5.96,42.83,-14.09,-6.9,Right Fall while Standing
45:01.5,458,510,765,868,374,1.74,576.27,1.83,84.64,371,156,152.11,152,23135,48985,313,0.52,-0.89,0.07,6.85,0.45,-4.15,-60.15,-28.58,-11.27,-6.15,42.41,-13.22,-7.05,Right Fall while Standing
45:01.6,342,507,760.5,868,373,1.74,573.85,1.82,84.64,371,153,152.11,152,23135,72394,466,0.53,-0.86,0.09,-3.14,11.66,-2.73,-58.37,-30.16,-11.59,-4.96,42.17,-13.46,-5.97,Right Fall while Standing
45:01.8,470,506,759,868,373,1.74,573.85,1.82,84.64,371,156,152.11,152,23135,96730,622,0.54,-0.82,0.09,8.16,3,-18.29,-56.61,-31.81,-10.49,-4.83,39.96,-12.33,-5.91,Right Fall while Standing
45:01.9,598,508,762,868,374,1.74,576.27,1.83,84.64,371,157,152.11,152,23135,121379,779,0.54,-0.82,0.11,3.08,9.77,-12.56,-56.48,-31.7,-10.04,-3.86,38.49,-11.89,-4.97,Right Fall while Standing
45:02.0,468,507,760.5,868,374,1.74,576.27,1.83,84.64,371,156,152.11,152,23135,145715,935,0.61,-0.83,0.18,24.58,5.08,-21.53,-53.01,-34.28,-6.89,-3.48,35.9,-8.74,-4.71,Right Fall while Standing
45:02.1,385,505,757.5,868,373,1.74,573.85,1.82,84.64,371,154,152.11,152,23135,169431,1089,0.65,-0.81,0.19,13.8,0.31,-17.66,-50.42,-36.63,-5.1,-3.69,33.79,-6.91,-5,Right Fall while Standing
45:02.3,453,504,756,868,370,1.76,566.62,1.81,84.64,371,154,152.11,152,23135,193147,1243,0.66,-0.79,0.22,-4.42,-7.02,-10.4,-49.24,-37.32,-5.58,-4.81,32.59,-7.33,-6.11,Right Fall while Standing
45:02.4,550,505,757.5,868,369,1.77,564.22,1.8,84.64,371,155,152.11,152,23135,217172,1398,0.69,-0.78,0.21,-1.59,-8.2,-7.95,-47.83,-38.97,-5.71,-6.1,31.69,-7.39,-7.41,Right Fall while Standing
45:02.5,467,504,756,868,369,1.77,564.22,1.8,86.83,372,157,155.51,155,24181,0,0,0.67,-0.75,0.18,-1.15,-5.98,-13.39,-47.74,-39.52,-5.78,-7.09,30.12,-7.46,-8.39,Right Fall while Standing
45:02.6,455,503,754.5,868,369,1.77,564.22,1.8,86.83,372,157,155.51,155,24181,24649,157,0.73,-0.74,0.16,-4.37,-6.91,-10.92,-45.06,-42.58,-6.26,-8.19,28.87,-7.81,-9.57,Right Fall while Standing
45:02.8,521,504,756,868,366,1.8,557.08,1.79,86.83,372,157,155.51,155,24181,49298,314,0.74,-0.71,0.11,-4.73,-2.43,-11.05,-43.96,-44.35,-6.78,-8.75,27.58,-8.26,-10.17,Right Fall while Standing
45:02.9,586,505,757.5,868,364,1.81,552.35,1.78,86.83,372,160,155.51,155,24181,74898,474,0.74,-0.69,0.15,4.05,14.15,-17.74,-42.94,-44.77,-6.2,-7.23,25.46,-7.67,-8.73,Right Fall while Standing
45:03.0,446,504,756,868,363,1.82,550,1.77,86.83,372,155,155.51,155,24181,98923,629,0.72,-0.65,0.11,-12.11,3.57,-14.4,-41.96,-46.33,-7.65,-7.03,23.76,-9.02,-8.6,Right Fall while Standing
45:03.1,364,502,753,868,360,1.84,542.99,1.76,86.83,372,153,155.51,155,24181,122332,782,0.63,-0.66,0.28,-1.68,19.54,-14.89,-44.74,-39.34,-7.79,-4.84,22,-9.26,-6.22,Right Fall while Standing
45:03.3,537,502,753,868,359,1.85,540.66,1.75,86.83,372,156,155.51,155,24181,146668,938,0.79,-0.62,0.15,-17.6,-0.87,-10.24,-38.39,-49.27,-9.91,-5.2,20.82,-11.05,-6.96,Right Fall while Standing
45:03.4,594,504,756,868,359,1.85,540.66,1.75,86.83,372,158,155.51,155,24181,171632,1096,0.78,-0.61,0.13,-4.11,-0.94,-16.91,-38.35,-49.69,-10.36,-5.57,18.79,-11.48,-7.33,Right Fall while Standing
45:03.5,470,503,754.5,868,360,1.84,542.99,1.76,86.83,372,157,155.51,155,24181,196281,1253,0.8,-0.56,0.1,-5.92,4.18,-13.09,-35.57,-52.8,-11.04,-5.29,17.24,-12.02,-7.19,Right Fall while Standing
45:03.6,537,504,756,868,360,1.84,542.99,1.76,86.83,372,158,155.51,155,24181,221245,1411,0.87,-0.58,0.07,-0.4,7.08,-6.53,-34.09,-54.61,-11.02,-4.66,16.52,-11.94,-6.66,Right Fall while Standing
45:03.8,773,508,762,868,360,1.84,542.99,1.76,20724.3,362,163,157.42,157,24780,0,0,0.86,-0.56,0.15,-2.18,0.46,-5.82,-33.59,-54.16,-11.22,-4.85,15.89,-12.11,-6.82,Right Fall while Standing
45:03.9,562,508,762,868,361,1.83,545.32,1.76,20724.3,362,161,157.42,157,24780,25921,161,0.86,-0.56,0.11,-1.46,-6.11,-14.95,-33.44,-54.84,-11.33,-5.87,14.12,-12.22,-7.83,Right Fall while Standing
45:04.0,452,508,762,868,362,1.83,547.66,1.77,20724.3,362,162,157.42,157,24780,52165,323,0.87,-0.56,0.1,-6.89,-8.82,-19.32,-33.2,-55.22,-12.13,-7.23,11.79,-12.97,-9.15,Right Fall while Standing
45:04.1,613,509,763.5,868,363,1.82,550,1.77,20724.3,362,162,157.42,157,24780,78409,485,0.91,-0.52,0.08,-9.07,-0.71,-15.07,-29.92,-58.68,-13.2,-7.57,9.99,-13.87,-9.62,Right Fall while Standing
45:04.3,640,511,766.5,868,363,1.82,550,1.77,20724.3,362,162,157.42,157,24780,104653,647,0.91,-0.46,0.05,2.02,10.43,-18.89,-27.4,-61.42,-12.88,-6.51,7.71,-13.46,-8.71,Right Fall while Standing
45:04.4,438,510,765,868,364,1.81,552.35,1.78,20724.3,362,162,157.42,157,24780,130897,809,0.9,-0.43,0.1,-2.08,13.35,-9.16,-25.96,-62.3,-13.07,-5.09,6.66,-13.58,-7.38,Right Fall while Standing
45:04.5,504,510,765,868,365,1.8,554.71,1.78,20724.3,362,166,157.42,157,24780,158453,975,0.9,-0.39,0.11,2.8,8.5,-9.59,-23.87,-64.1,-12.64,-4.27,5.55,-13.09,-6.67,Right Fall while Standing
45:04.6,645,512,768,868,366,1.8,557.08,1.79,20724.3,362,168,157.42,157,24780,186677,1143,0.93,-0.42,0.16,-6.44,9.91,1.81,-24.41,-62.77,-13.38,-3.28,5.88,-13.82,-5.66,Right Fall while Standing
45:04.8,543,512,768,868,366,1.8,557.08,1.79,20724.3,362,167,157.42,157,24780,214566,1310,0.92,-0.43,0.18,-7.43,1.47,-6.81,-24.9,-61.95,-14.24,-3.35,5.13,-14.66,-5.69,Right Fall while Standing
45:04.9,600,513,769.5,868,366,1.8,557.08,1.79,20724.3,362,166,157.42,157,24780,242122,1476,0.93,-0.42,0.14,-7.15,-0.57,-7.85,-24.47,-63.21,-15.07,-3.67,4.24,-15.44,-6.06,Right Fall while Standing
45:05.0,485,513,769.5,868,366,1.8,557.08,1.79,39.65,364,166,164.22,164,26966,0,0,0.92,-0.39,0.16,-9.95,4.08,-10.53,-23.34,-63.62,-16.23,-3.42,3.03,-16.52,-5.82,Right Fall while Standing
45:05.1,594,514,771,868,367,1.79,559.45,1.79,39.65,364,167,164.22,164,26966,27889,167,0.92,-0.38,0.15,0.6,7.73,-16.4,-22.87,-64.29,-16.09,-2.7,1.08,-16.36,-5.16,Right Fall while Standing
45:05.3,493,514,771,868,368,1.78,561.83,1.8,39.65,364,167,164.22,164,26966,55778,334,0.92,-0.32,0.14,-1.72,10.25,-12.08,-19.7,-67.5,-16.23,-1.67,-0.33,-16.37,-4.3,Right Fall while Standing
45:05.4,385,512,768,868,369,1.77,564.22,1.8,39.65,364,167,164.22,164,26966,83667,501,0.95,-0.32,0.2,-5.34,8.25,-6.58,-18.65,-66.85,-16.83,-0.89,-1.06,-16.9,-3.53,Right Fall while Standing
45:05.5,511,512,768,868,370,1.76,566.62,1.81,39.65,364,169,164.22,164,26966,112228,670,0.94,-0.33,0.2,-6.01,4.05,-6.18,-19.62,-66.1,-17.51,-0.63,-1.73,-17.59,-3.25,Right Fall while Standing
45:05.6,635,513,769.5,868,370,1.76,566.62,1.81,39.65,364,169,164.22,164,26966,140789,839,0.94,-0.32,0.23,-3.47,-0.44,-9.02,-18.82,-65.76,-17.88,-0.94,-2.77,-17.91,-3.53,Right Fall while Standing
45:05.8,460,513,769.5,868,369,1.77,564.22,1.8,39.65,364,166,164.22,164,26966,168345,1005,0.94,-0.29,0.18,-4.82,-0.11,-5.15,-17.22,-68.53,-18.41,-1.2,-3.31,-18.36,-3.9,Right Fall while Standing
45:09.0,556,556,834,556,365,1.8,554.71,1.78,0,0,171,0,0,0,58825,343,0.95,-0.21,0.31,-2.35,-11.47,-6.79,-12.4,-66.81,0.6,1.43,-2.2,0.08,-1.3,Forward Fall while Standing
45:09.1,627,591,886.5,627,367,1.79,559.45,1.79,0,0,174,0,0,0,89101,517,0.95,-0.16,0.3,-4.37,-1.08,-7.24,-9.68,-68.98,0.14,1.06,-2.98,-0.25,-1.74,Forward Fall while Standing
45:09.2,678,620,930,678,366,1.8,557.08,1.79,0,0,177,0,0,0,120430,694,0.92,-0.16,0.3,-2.4,3.92,-4.55,-10.17,-67.92,-0.09,1.29,-3.45,-0.49,-1.48,Forward Fall while Standing
45:09.3,583,611,916.5,678,366,1.8,557.08,1.79,0,0,176,0,0,0,151406,870,0.92,-0.17,0.35,-4,-0.47,-3.79,-10.48,-65.61,-0.51,0.99,-3.81,-0.91,-1.67,Forward Fall while Standing
45:09.5,431,575,862.5,678,366,1.8,557.08,1.79,0,0,171,0,0,0,180647,1041,0.89,-0.17,0.3,-1.51,-15.24,-2.62,-10.68,-67.17,-0.63,-1.13,-4.04,-1.03,-3.77,Forward Fall while Standing
45:09.6,519,565,847.5,678,366,1.8,557.08,1.79,0,0,173,0,0,0,210576,1214,0.94,-0.19,0.25,-7.31,-24.49,-0.28,-11.37,-69.98,-1.46,-4.41,-3.98,-1.86,-7.04,Forward Fall while Standing
45:09.7,508,557,835.5,678,366,1.8,557.08,1.79,0,0,175,0,0,0,241201,1389,0.95,-0.18,0.19,-8.63,-43.44,3.35,-11.05,-73.12,-2.45,-9.96,-3.47,-2.79,-12.48,Forward Fall while Standing
45:09.8,629,566,849,678,367,1.79,559.45,1.79,0,0,178,0,0,0,272885,1567,0.99,-0.2,0.1,-2.1,-66.91,5.7,-12,-75.51,-2.64,-18.5,-2.67,-3.01,-20.78,Forward Fall while Standing
45:10.0,570,566,849,678,364,1.81,552.35,1.78,53.02,365,175,174.22,174,30350,0,0,1.04,-0.21,-0.02,-10.24,-41.55,0.7,-12.21,-76.75,-3.84,-23.9,-2.48,-4.17,-26.02,Forward Fall while Standing
45:10.1,525,562,843,678,363,1.82,550,1.77,53.02,365,166,174.22,174,30350,27556,166,0.99,-0.2,-0.1,-9.02,-27.45,-1.85,-11.93,-75.73,-4.91,-27.61,-2.62,-5.19,-29.54,Forward Fall while Standing
45:10.2,338,542,813,678,360,1.84,542.99,1.76,53.02,365,165,174.22,174,30350,54781,331,0.99,-0.19,-0.16,-14.16,-26.32,-2.54,-11.38,-74.34,-6.61,-31.15,-2.83,-6.8,-32.88,Forward Fall while Standing
45:10.3,450,534,801,678,357,1.87,536.04,1.74,53.02,365,160,174.22,174,30350,80381,491,0.99,-0.22,-0.3,-16.85,-43.97,1.76,-12.55,-67.81,-8.66,-36.95,-2.51,-8.81,-38.18,Forward Fall while Standing
45:10.5,460,528,792,678,355,1.88,531.44,1.74,53.02,365,160,174.22,174,30350,105981,651,0.95,-0.22,-0.42,-15.34,-49.24,1.89,-12.37,-62.02,-10.51,-43.35,-2.18,-10.58,-44.1,Forward Fall while Standing
45:10.6,366,517,775.5,678,355,1.88,531.44,1.74,53.02,365,161,174.22,174,30350,131902,812,0.95,-0.2,-0.5,-7.66,-37.58,0.19,-11.33,-58.57,-11.4,-48.34,-2.05,-11.4,-48.75,Forward Fall while Standing
45:10.7,514,516,774,678,355,1.88,531.44,1.74,53.02,365,162,174.22,174,30350,158146,974,0.86,-0.2,-0.54,-11.4,-35.58,2.15,-11.53,-54.78,-12.77,-53.07,-1.69,-12.72,-53.14,Forward Fall while Standing
45:10.8,574,520,780,678,353,1.9,526.87,1.73,53.02,365,153,174.22,174,30350,181555,1127,0.42,-0.22,-0.23,-3.03,-31.68,2.03,-25.33,-51.1,-13.08,-57.35,-1.33,-13.57,-57.1,Forward Fall while Standing
45:11.0,256,504,756,678,348,1.94,515.56,1.7,53.02,365,146,174.22,174,30350,202871,1273,0.8,-0.19,-0.7,-7.64,-38.05,0.95,-10.73,-46.32,-13.97,-62.4,-1.11,-13.84,-61.75,Forward Fall while Standing
45:11.1,687,515,772.5,687,348,1.94,515.56,1.7,53.02,365,151,174.22,174,30350,225672,1424,0.73,-0.2,-0.75,-3.84,-38.04,-0.08,-11.55,-41.61,-14.39,-67.44,-1.02,-14.27,-66.41,Forward Fall while Standing
45:11.2,631,521,781.5,687,348,1.94,515.56,1.7,20724.17,354,156,158.11,158,24999,0,0,0.84,-0.16,-0.93,-5.27,-41.96,4.3,-7.8,-40.01,-14.97,-72.94,-0.38,-14.69,-71.62,Forward Fall while Standing
45:11.3,433,516,774,687,335,2.05,486.92,1.64,20724.17,354,150,158.11,158,24999,22500,150,0.63,-0.2,-0.9,-4.16,-30.46,-2.46,-10.8,-32.8,-15.43,-77.03,-0.59,-15.24,-75.26,Forward Fall while Standing
45:11.5,306,506,759,687,342,1.99,502.2,1.67,20724.17,354,144,158.11,158,24999,43236,294,0.62,-0.19,-0.92,0.66,-13.02,1.51,-10.16,-31.9,-15.27,-78.92,-0.3,-15.07,-77.04,Forward Fall while Standing
45:11.6,518,507,760.5,687,342,1.99,502.2,1.67,20724.17,354,145,158.11,158,24999,64261,439,0.57,-0.19,-0.92,-0.85,4.95,-1.3,-10.7,-29.79,-15.31,-78.55,-0.37,-15.13,-76.6,Forward Fall while Standing
45:11.7,704,515,772.5,704,343,1.98,504.41,1.68,20724.17,354,150,158.11,158,24999,86761,589,0.56,-0.2,-0.9,-6.34,-12.73,-1.19,-11.35,-29.43,-16.04,-80.4,-0.42,-15.85,-78.36,Forward Fall while Standing
45:11.8,466,513,769.5,704,345,1.97,508.85,1.69,20724.17,354,150,158.11,158,24999,109261,739,0.51,-0.19,-0.93,-3.36,-15.55,1.23,-10.78,-26.79,-16.39,-82.61,-0.16,-16.17,-80.38,Forward Fall while Standing
45:12.0,612,517,775.5,704,346,1.96,511.08,1.69,20724.17,354,151,158.11,158,24999,132062,890,0.49,-0.19,-0.93,-3.56,-18.44,5.05,-10.67,-25.75,-16.77,-85.19,0.57,-16.53,-82.81,Forward Fall while Standing
45:12.1,619,521,781.5,704,345,1.97,508.85,1.69,20724.17,354,151,158.11,158,24999,154863,1041,0.46,-0.19,-0.96,-2,-24.15,2.94,-10.47,-23.57,-16.95,-88.51,1.05,-16.69,-85.91,Forward Fall while Standing
45:12.2,408,517,775.5,704,345,1.97,508.85,1.69,20724.17,354,144,158.11,158,24999,175599,1185,0.44,-0.19,-1.02,0.05,-13.4,-0.29,-10.48,-21.29,-16.88,-90.45,1.11,-16.62,-87.68,Forward Fall while Standing
45:12.3,568,519,778.5,704,345,1.97,508.85,1.69,20724.17,354,148,158.11,158,24999,197503,1333,0.39,-0.2,-0.98,0.98,-6.63,-0.31,-11.57,-19.54,-16.68,-91.54,1.17,-16.48,-88.66,Forward Fall while Standing
45:12.5,682,524,786,704,346,1.96,511.08,1.69,20723.99,343,154,148.73,148,22120,0,0,0.34,-0.21,-1,-0.02,-18.59,2.78,-11.89,-16.98,-16.61,-94.11,1.62,-16.42,-91.02,Forward Fall while Standing
45:12.6,458,522,783,704,347,1.95,513.31,1.7,20723.99,343,152,148.73,148,22120,23104,152,0.3,-0.22,-1,4.25,-16.1,5.75,-12.52,-14.6,-16.01,-96.39,2.44,-15.87,-93.12,Forward Fall while Standing
45:12.7,767,530,795,767,348,1.94,515.56,1.7,20723.99,343,152,148.73,148,22120,46208,304,0.29,-0.23,-1.04,4.66,-8.82,7.37,-12.74,-13.6,-15.35,-97.75,3.47,-15.25,-94.39,Forward Fall while Standing
45:12.8,639,533,799.5,767,347,1.95,513.31,1.7,20723.99,343,154,148.73,148,22120,69924,458,0.27,-0.25,-1.04,0.61,-19.5,5.17,-13.94,-12.39,-15.2,-100.46,4.22,-15.15,-96.94,Forward Fall while Standing
45:13.0,468,531,796.5,767,347,1.95,513.31,1.7,20723.99,343,148,148.73,148,22120,91828,606,0.23,-0.25,-1.07,-3.82,-18.09,2,-13.67,-10.27,-15.61,-102.99,4.57,-15.54,-99.29,Forward Fall while Standing
45:13.1,363,526,789,767,345,1.97,508.85,1.69,20723.99,343,148,148.73,148,22120,113732,754,0.19,-0.27,-1.07,-2.78,-8.11,-0.46,-14.3,-8.3,-15.89,-104.27,4.61,-15.83,-100.43,Forward Fall while Standing
45:13.2,559,527,790.5,767,344,1.97,506.63,1.68,20723.99,343,152,148.73,148,22120,136836,906,0.2,-0.26,-1.11,-6.5,-14.59,-1.46,-13.52,-8.43,-16.64,-106.36,4.53,-16.52,-102.44,Forward Fall while Standing
45:13.3,527,527,790.5,767,344,1.97,506.63,1.68,20723.99,343,153,148.73,148,22120,160245,1059,0.3,0.03,-1.65,-6.2,-1.09,0.16,0.46,-8.78,-17.36,-106.75,4.65,-16.65,-102.83,Forward Fall while Standing
45:13.5,484,526,789,767,347,1.95,513.31,1.7,20723.99,343,155,148.73,148,22120,184270,1214,0.13,-0.23,-1.09,-2.24,-6.52,0.91,-12.59,-5.21,-17.57,-107.82,4.86,-17.37,-103.72,Forward Fall while Standing
45:13.6,945,537,805.5,945,349,1.93,517.8,1.71,20723.99,343,158,148.73,148,22120,209234,1372,0.08,-0.23,-1.06,-4.69,-9.88,-0.5,-12.56,-2.45,-18.09,-109.32,4.9,-17.87,-105.05,Forward Fall while Standing
45:13.7,656,540,810,945,351,1.91,522.32,1.72,20724.05,346,160,153.24,153,23482,0,0,0.07,-0.23,-1.08,-2.1,-7,-2.31,-12.51,-1.89,-18.29,-110.46,4.71,-18.05,-106.11,Forward Fall while Standing
45:13.9,469,538,807,945,352,1.91,524.59,1.72,20724.05,346,162,153.24,153,23482,26244,162,0.03,-0.22,-1.04,-2.63,-2.86,0.93,-12.58,0.02,-18.55,-111.07,4.92,-18.31,-106.62,Forward Fall while Standing
45:14.0,616,540,810,945,355,1.88,531.44,1.74,20724.05,346,165,153.24,153,23482,53469,327,0.02,-0.22,-1.07,0.92,-7.08,0.6,-12.14,0.71,-18.36,-112.21,5.1,-18.11,-107.7,Forward Fall while Standing
45:14.1,644,543,814.5,945,355,1.88,531.44,1.74,20724.05,346,166,153.24,153,23482,81025,493,0.04,-0.22,-1.07,1.21,-10.6,2.27,-12.42,-0.32,-18.14,-113.79,5.48,-17.91,-109.25,Forward Fall while Standing
45:14.2,485,541,811.5,945,358,1.86,538.35,1.75,20724.05,346,164,153.24,153,23482,107921,657,0.01,-0.23,-1.06,-3.04,-8.88,-0.14,-13.03,0.81,-18.45,-115.17,5.57,-18.24,-110.53,Forward Fall while Standing
45:14.4,370,537,805.5,945,357,1.87,536.04,1.74,20724.05,346,162,153.24,153,23482,134165,819,-0.02,-0.24,-1.07,-2.8,-4.61,-2.28,-13.07,2.47,-18.73,-116,5.38,-18.51,-111.26,Forward Fall while Standing
45:14.5,511,537,805.5,945,356,1.87,533.73,1.74,20724.05,346,167,153.24,153,23482,162054,986,-0.05,-0.23,-1.06,-3.93,-2.23,-3.9,-12.61,4.33,-19.16,-116.53,4.99,-18.9,-111.7,Forward Fall while Standing
45:14.6,343,533,799.5,945,356,1.87,533.73,1.74,20724.05,346,164,153.24,153,23482,188950,1150,-0.03,-0.22,-1.06,-2.53,5.37,-3.66,-12.4,3.17,-19.41,-116.11,4.62,-19.13,-111.34,Forward Fall while Standing
45:14.7,408,530,795,945,357,1.87,536.04,1.74,20724.05,346,168,153.24,153,23482,217174,1318,-0.02,-0.22,-1.04,-1.48,4.92,-5.14,-12.39,2.58,-19.52,-115.74,4.08,-19.24,-111.01,Forward Fall while Standing
45:14.9,629,532,798,945,358,1.86,538.35,1.75,20724.05,346,169,153.24,153,23482,245735,1487,-0.02,-0.21,-1.09,-4.49,5.08,-2.76,-11.69,2.85,-20.02,-115.35,3.83,-19.69,-110.62,Forward Fall while Standing
45:15.0,455,530,795,945,358,1.86,538.35,1.75,20724.2,356,166,165.31,165,27328,0,0,-0.01,-0.22,-1.04,-2.08,8.35,-0.85,-12.4,2.1,-20.21,-114.56,3.82,-19.9,-109.89,Forward Fall while Standing
45:15.1,466,529,793.5,945,360,1.84,542.99,1.76,20724.2,356,173,165.31,165,27328,29929,173,0,-0.22,-1.06,1.71,5.86,-0.14,-12.52,1.41,-19.92,-114.07,3.9,-19.63,-109.45,Forward Fall while Standing
45:15.2,535,529,793.5,945,360,1.84,542.99,1.76,20724.2,356,170,165.31,165,27328,58829,343,0.05,-0.23,-1.08,0.83,11.18,2.01,-12.66,-0.91,-19.75,-112.92,4.25,-19.47,-108.44,Forward Fall while Standing
45:15.4,549,530,795,945,359,1.85,540.66,1.75,20724.2,356,172,165.31,165,27328,88413,515,0.08,-0.23,-1.07,-6.34,20.08,-5.91,-12.81,-2.49,-20.48,-110.64,3.61,-20.17,-106.31,Forward Fall while Standing
45:15.5,396,527,790.5,945,360,1.84,542.99,1.76,20724.2,356,170,165.31,165,27328,117313,685,0.11,-0.22,-1.05,-4.79,26.37,-7.47,-12.08,-4.06,-21.01,-107.57,2.77,-20.65,-103.43,Forward Fall while Standing
45:15.6,529,527,790.5,945,362,1.83,547.66,1.77,20724.2,356,173,165.31,165,27328,147242,858,0.15,-0.21,-1.05,-3.41,26.13,-5.21,-11.58,-6.37,-21.37,-104.5,2.21,-20.98,-100.58,Forward Fall while Standing
45:15.7,663,530,795,945,362,1.83,547.66,1.77,20724.2,356,177,165.31,165,27328,178571,1035,0.21,-0.2,-1.04,-3.24,17.05,-3.5,-11.3,-9.6,-21.71,-102.61,1.86,-21.29,-98.89,Forward Fall while Standing
45:15.9,417,528,792,945,363,1.82,550,1.77,20724.2,356,174,165.31,165,27328,208847,1209,0.25,-0.2,-1.04,-1.68,12.72,-1.31,-11.15,-11.81,-21.85,-101.25,1.8,-21.42,-97.67,Forward Fall while Standing
45:16.0,544,528,792,945,366,1.8,557.08,1.79,20724.2,356,181,165.31,165,27328,241608,1390,0.3,-0.2,-1.05,-1.93,18.38,-4.6,-11.03,-14.2,-22.03,-99.18,1.32,-21.59,-95.78,Forward Fall while Standing
45:16.1,628,530,795,945,366,1.8,557.08,1.79,20724.2,356,180,165.31,165,27328,274008,1570,0.34,-0.19,-1.04,-4.23,27.68,-7.62,-10.62,-16.28,-22.49,-95.95,0.46,-22.01,-92.76,Forward Fall while Standing
45:16.3,342,526,789,945,365,1.8,554.71,1.78,13.96,362,171,174.14,174,30323,0,0,0.41,-0.19,-1.02,-6.67,39.08,-10.44,-10.5,-19.83,-23.25,-91.31,-0.75,-22.74,-88.45,Forward Fall while Standing
45:16.4,257,522,783,945,363,1.82,550,1.77,13.96,362,171,174.14,174,30323,29241,171,0.49,-0.19,-1.02,-5.63,52.66,-17.33,-9.97,-23.86,-23.89,-84.93,-2.83,-23.33,-82.48,Forward Fall while Standing
45:16.5,468,521,781.5,945,362,1.83,547.66,1.77,13.96,362,174,174.14,174,30323,59517,345,0.55,-0.14,-0.88,-0.53,69.48,-15.11,-8.16,-30.19,-23.89,-76.42,-4.64,-23.26,-74.58,Forward Fall while Standing
45:16.6,363,518,777,945,359,1.85,540.66,1.75,13.96,362,158,174.14,174,30323,84481,503,0.74,-0.13,-0.83,1.68,67.57,-6.16,-7.11,-39.59,-23.61,-68.23,-5.31,-22.95,-67.08,Forward Fall while Standing
45:16.8,36,511,766.5,945,351,1.91,522.32,1.72,13.96,362,143,174.14,174,30323,104930,646,0.81,-0.13,-0.71,1.34,55.34,-5.21,-7.63,-46.58,-23.37,-61.51,-5.86,-22.74,-60.91,Forward Fall while Standing
45:16.9,175,505,757.5,945,346,1.96,511.08,1.69,13.96,362,139,174.14,174,30323,124251,785,0.87,-0.11,-0.65,7.5,58.27,-8.57,-6.18,-51.2,-22.36,-54.47,-6.84,-21.71,-54.34,Forward Fall while Standing
45:17.0,430,504,756,945,343,1.98,504.41,1.68,13.96,362,140,174.14,174,30323,143851,925,0.92,-0.12,-0.5,6.14,52.76,-10.17,-6.87,-59.14,-21.52,-48.08,-8.02,-20.93,-48.52,Forward Fall while Standing
45:17.1,429,503,754.5,945,343,1.98,504.41,1.68,13.96,362,137,174.14,174,30323,162620,1062,0.92,-0.11,-0.36,-1.81,43.94,-10.04,-7.1,-66.07,-21.67,-42.83,-9.18,-21.09,-43.76,Forward Fall while Standing
45:17.3,493,503,754.5,945,343,1.98,504.41,1.68,13.96,362,140,174.14,174,30323,182220,1202,0.94,-0.08,-0.27,-6.87,44.47,-0.16,-5.11,-72.06,-22.47,-37.48,-9.1,-21.77,-38.87,Forward Fall while Standing
45:17.4,701,506,759,945,344,1.97,506.63,1.68,13.96,362,145,174.14,174,30323,203245,1347,1.16,-0.04,-0.36,-3.11,54.27,11.76,-2.35,-70.87,-22.79,-30.95,-7.53,-21.97,-32.55,Forward Fall while Standing
45:17.5,890,511,766.5,945,346,1.96,511.08,1.69,20724.1,350,150,150.25,149,22573,0,0,1.01,-0.15,-0.02,19.58,56.76,3,-9.22,-79.72,-20.27,-24.11,-7.05,-19.83,-26.33,Forward Fall while Standing
45:17.6,651,513,769.5,945,351,1.91,522.32,1.72,20724.1,350,158,150.25,149,22573,24964,158,1.01,-0.2,0.09,-20.38,30.58,-12.55,-11.43,-76.55,-22.77,-20.5,-8.53,-22.31,-22.75,Forward Fall while Standing
45:17.8,848,518,777,945,355,1.88,531.44,1.74,20724.1,350,169,150.25,149,22573,53525,327,0.96,-0.1,0.11,-16.22,-30.89,0.88,-6.7,-79.56,-24.76,-24.68,-8.32,-24.03,-26.88,Forward Fall while Standing
45:17.9,903,523,784.5,945,360,1.84,542.99,1.76,20724.1,350,174,150.25,149,22573,83801,501,1.01,-0.11,0.02,-5.67,-31.84,20.61,-6.72,-82.19,-25.4,-28.94,-5.63,-24.65,-31.07,Forward Fall while Standing
45:18.0,694,526,789,945,366,1.8,557.08,1.79,20724.1,350,181,150.25,149,22573,116562,682,1.04,-0.17,-0.11,5.6,-14.86,13.08,-9.89,-77.23,-24.62,-31.07,-3.88,-24.03,-32.92,Forward Fall while Standing
45:18.1,712,528,792,945,369,1.77,564.22,1.8,20724.1,350,187,150.25,149,22573,85995,869,0.99,-0.2,-0.14,-3.57,0.08,-9.08,-11.91,-74.41,-25,-31.31,-4.92,-24.48,-33.04,Forward Fall while Standing
45:18.3,693,531,796.5,945,369,1.77,564.22,1.8,20724.1,350,188,150.25,149,22573,55803,1057,1.01,-0.22,-0.17,-2.23,4.16,8.57,-12.73,-72.95,-25.21,-31.04,-3.74,-24.71,-32.72,Forward Fall while Standing
45:18.4,404,529,793.5,945,371,1.76,569.02,1.81,20724.1,350,191,150.25,149,22573,26748,1248,1,-0.22,-0.1,-10.27,9.95,-7.95,-12.97,-74.86,-26.44,-30.04,-4.65,-25.9,-31.83,Forward Fall while Standing
45:18.5,401,527,790.5,945,372,1.75,571.43,1.82,20724.1,350,192,150.25,149,22573,4294965372,1440,1.02,-0.19,-0.11,-9.3,5.27,-6.05,-11.09,-76.35,-27.55,-29.62,-5.31,-26.89,-31.49,Forward Fall while Standing
45:18.6,550,527,790.5,945,371,1.76,569.02,1.81,20724.1,350,198,150.25,149,22573,4294939040,1638,1.03,-0.19,-0.09,-14.25,-6.92,0.5,-11.14,-76.69,-29.29,-30.76,-5.15,-28.56,-32.59,Forward Fall while Standing
45:18.8,299,525,787.5,945,372,1.75,571.43,1.82,51.41,365,195,20724.17,183,429491136,0,0,1.03,-0.17,-0.12,-6.56,-5.88,-7.8,-9.58,-77.24,-30.04,-31.75,-6.03,-29.22,-33.57,Forward Fall while Standing
45:18.9,319,522,783,945,371,1.76,569.02,1.81,51.41,365,196,20724.17,183,429491136,4294940176,196,0.98,-0.15,-0.13,-2.17,-1.35,-1.91,-9.41,-76.69,-30.25,-32.17,-6.18,-29.41,-33.95,Forward Fall while Standing
45:19.0,531,522,783,945,370,1.76,566.62,1.81,51.41,365,199,20724.17,183,429491136,4294914241,395,1.01,-0.17,-0.14,-1.53,5.02,2.3,-10.19,-75.94,-30.37,-31.79,-5.78,-29.56,-33.55,Forward Fall while Standing
45:19.1,274,519,778.5,945,370,1.76,566.62,1.81,51.41,365,196,20724.17,183,429491136,4294887121,591,1.01,-0.19,-0.13,-3.63,11.24,-1.71,-11.06,-75.74,-30.76,-30.61,-5.9,-29.97,-32.42,Forward Fall while Standing
45:25.2,573,573,859.5,573,349,1.93,517.8,1.71,0,0,184,0,0,0,4294903936,368,0.99,-0.12,0.09,-1.11,-1.53,-0.83,-7.71,-79.72,-0.13,-0.62,0,-0.43,-3.79,Sitting
45:25.3,621,597,895.5,621,348,1.94,515.56,1.7,0,0,185,0,0,0,4294872625,553,1,-0.13,0.08,0.76,4.47,0.25,-8.11,-79.45,0.03,-0.32,0.13,-0.29,-3.49,Sitting
45:25.4,511,568,852,621,348,1.94,515.56,1.7,0,0,182,0,0,0,4294840213,735,1.01,-0.13,0.13,4.08,4.53,-1.98,-7.8,-78.23,0.6,-0.01,-0.02,0.27,-3.14,Sitting
45:25.6,408,528,792,621,348,1.94,515.56,1.7,0,0,182,0,0,0,4294807801,917,1,-0.12,0.15,14.24,2.95,-8.09,-7.63,-77.47,2.42,0.11,-0.91,2.02,-2.99,Sitting
45:25.7,363,495,742.5,621,348,1.94,515.56,1.7,0,0,181,0,0,0,4294840562,1098,1.01,-0.12,0.12,5.06,-6.83,-4.27,-7.04,-78.95,3.11,-0.98,-1.34,2.71,-4.1,Sitting
45:25.8,453,488,732,621,349,1.93,517.8,1.71,0,0,182,0,0,0,4294808150,1280,0.99,-0.08,0.11,13.68,-6.03,-6,-5.33,-80.5,4.88,-1.97,-1.99,4.47,-5.11,Sitting
45:25.9,579,501,751.5,621,349,1.93,517.8,1.71,0,0,183,0,0,0,4294776103,1463,0.99,-0.07,0.07,16.2,6.53,-6.76,-4.81,-82.61,6.92,-1.42,-2.72,6.46,-4.67,Sitting
45:26.1,628,517,775.5,628,349,1.93,517.8,1.71,0,0,183,0,0,0,4294744056,1646,0.98,-0.08,0.08,1.34,2.45,3.18,-5.01,-81.96,7.16,-1.36,-2.23,6.67,-4.59,Sitting
45:26.2,585,524,786,628,350,1.92,520.06,1.71,20724.08,348,185,20723.69,183,429471264,0,0,1,-0.07,0.13,-0.53,5.86,2.2,-4.47,-80.26,7.16,-0.88,-1.85,6.7,-4.06,Sitting
45:26.3,394,511,766.5,628,351,1.91,522.32,1.72,20724.08,348,180,20723.69,183,429471264,32400,180,1,-0.08,0.14,-0.11,7.83,0.72,-5.24,-78.99,7.22,-0.15,-1.67,6.72,-3.31,Sitting
45:26.4,491,509,763.5,628,352,1.91,524.59,1.72,20724.08,348,181,20723.69,183,429471264,65161,361,1.01,-0.09,0.15,-2.6,-0.55,0.01,-5.7,-78.68,6.96,-0.47,-1.56,6.45,-3.6,Sitting
45:26.6,629,519,778.5,629,352,1.91,524.59,1.72,20724.08,348,185,20723.69,183,429471264,33850,546,1,-0.08,0.14,0.72,-0.99,-3.48,-5.11,-79.15,7.12,-0.85,-1.9,6.63,-3.98,Sitting
45:26.7,474,516,774,629,352,1.91,524.59,1.72,20724.08,348,186,20723.69,183,429471264,2910,732,1,-0.08,0.12,-2.08,-1.58,-2.63,-4.99,-80.08,6.93,-1.3,-2.13,6.46,-4.45,Sitting
45:26.8,405,508,762,629,355,1.88,531.44,1.74,20724.08,348,188,20723.69,183,429471264,4294940014,920,1,-0.07,0.1,0.36,-0.18,-2.67,-4.74,-81.17,7.05,-1.58,-2.37,6.58,-4.76,Sitting
45:26.9,604,514,771,629,356,1.87,533.73,1.74,20724.08,348,186,20723.69,183,429471264,4294909074,1106,0.99,-0.07,0.11,-3.22,0.64,2.11,-4.86,-80.66,6.71,-1.75,-2,6.25,-4.91,Sitting
45:27.1,544,516,774,629,356,1.87,533.73,1.74,20724.08,348,188,20723.69,183,429471264,4294878882,1294,1.01,-0.07,0.12,-1.53,0.46,2.98,-4.48,-80.37,6.59,-1.94,-1.53,6.15,-5.08,Sitting
45:27.2,416,510,765,629,358,1.86,538.35,1.75,20724.08,348,187,20723.69,183,429471264,4294848315,1481,1,-0.1,0.12,-1.5,0.74,0.12,-6.24,-79.47,6.47,-2.1,-1.41,5.96,-5.2,Sitting
45:27.3,583,514,771,629,358,1.86,538.35,1.75,20724.08,348,189,20723.69,183,429471264,4294818500,1670,1.01,-0.09,0.11,-7.48,-5.5,2.48,-5.85,-80.31,5.6,-3.05,-1,5.14,-6.14,Sitting
45:27.4,467,512,768,629,358,1.86,538.35,1.75,20724.18,354,190,20723.87,186,429478912,0,0,0.99,-0.09,0.1,-0.62,1.69,1.76,-5.94,-80.75,5.59,-3.09,-0.68,5.13,-6.19,Sitting
45:27.6,334,503,754.5,629,358,1.86,538.35,1.75,20724.18,354,188,20723.87,186,429478912,4294937104,188,1,-0.1,0.12,0.02,3.53,0.32,-6.53,-79.46,5.66,-2.89,-0.54,5.17,-5.96,Sitting
45:27.7,447,500,750,629,357,1.87,536.04,1.74,20724.18,354,185,20723.87,186,429478912,4294905793,373,1.01,-0.11,0.12,-0.56,1.3,0.25,-6.88,-79.12,5.66,-2.98,-0.41,5.16,-6.03,Sitting
45:27.8,553,502,753,629,355,1.88,531.44,1.74,20724.18,354,186,20723.87,186,429478912,4294874853,559,0.99,-0.12,0.11,-3.24,-4,-1.02,-7.35,-79.2,5.32,-3.74,-0.44,4.81,-6.76,Sitting
45:27.9,356,496,744,629,356,1.87,533.73,1.74,20724.18,354,185,20723.87,186,429478912,4294843542,744,1.01,-0.11,0.1,-1.81,2.66,-2.14,-6.89,-80.12,5.16,-3.66,-0.61,4.68,-6.72,Sitting
45:28.1,483,495,742.5,629,356,1.87,533.73,1.74,20724.18,354,186,20723.87,186,429478912,4294812602,930,1,-0.11,0.11,-4.74,2.24,-2.56,-7.06,-79.28,4.63,-3.63,-0.83,4.16,-6.66,Sitting
45:28.2,571,498,747,629,354,1.89,529.15,1.73,20724.18,354,185,20723.87,186,429478912,4294781291,1115,1.01,-0.11,0.12,-1.79,0.45,-1.68,-6.52,-79.52,4.48,-3.83,-0.95,4.04,-6.85,Sitting
45:28.3,382,494,741,629,355,1.88,531.44,1.74,20724.18,354,185,20723.87,186,429478912,4294749980,1300,1.01,-0.11,0.12,-1.73,-0.47,0.7,-6.77,-79.23,4.33,-4.14,-0.76,3.89,-7.14,Sitting
45:28.4,536,495,742.5,629,356,1.87,533.73,1.74,20724.18,354,187,20723.87,186,429478912,4294719413,1487,1.01,-0.1,0.09,-0.25,-0.11,-0.82,-6.42,-80.61,4.37,-4.41,-0.76,3.94,-7.45,Sitting
45:28.6,797,506,759,797,354,1.89,529.15,1.73,20724.18,354,186,20723.87,186,429478912,4294688473,1673,1,-0.11,0.09,-3.07,0.39,-1.38,-6.83,-80.49,4.05,-4.61,-0.84,3.62,-7.65,Sitting
45:28.7,373,502,753,797,355,1.88,531.44,1.74,20724.19,355,187,20723.56,186,429465792,0,0,1.01,-0.12,0.11,-2.5,3.35,0.16,-7.2,-79.41,3.81,-4.44,-0.72,3.37,-7.44,Sitting
45:28.8,459,500,750,797,355,1.88,531.44,1.74,20724.19,355,186,20723.56,186,429465792,4294936356,186,1,-0.11,0.1,-2.2,1.29,-1.96,-6.81,-79.91,3.6,-4.53,-0.87,3.19,-7.55,Sitting
45:29.0,644,505,757.5,797,355,1.88,531.44,1.74,20724.19,355,190,20723.56,186,429465792,4294906920,376,1,-0.11,0.11,-2.02,0.9,-1.18,-6.85,-79.44,3.42,-4.67,-0.92,3.01,-7.66,Sitting
45:29.1,424,502,753,797,356,1.87,533.73,1.74,20724.19,355,186,20723.56,186,429465792,4294875980,562,1,-0.11,0.12,-1.63,-1.63,0.5,-7.03,-78.89,3.28,-5.13,-0.75,2.87,-8.08,Sitting
45:29.2,458,501,751.5,797,358,1.86,538.35,1.75,20724.19,355,188,20723.56,186,429465792,4294845788,750,1,-0.11,0.1,2.45,-2.25,0.5,-7.1,-79.91,3.66,-5.67,-0.59,3.23,-8.64,Sitting
45:29.3,622,504,756,797,357,1.87,536.04,1.74,20724.19,355,191,20723.56,186,429465792,4294816733,941,1,-0.13,0.08,0.36,0.14,0.1,-7.76,-79.97,3.78,-5.9,-0.47,3.32,-8.87,Sitting
45:29.5,451,503,754.5,797,358,1.86,538.35,1.75,20724.19,355,187,20723.56,186,429465792,4294786166,1128,1,-0.13,0.08,-2.86,0.85,-0.12,-8,-79.57,3.49,-6.05,-0.39,3.03,-8.99,Sitting
45:29.6,434,501,751.5,797,358,1.86,538.35,1.75,20724.19,355,187,20723.56,186,429465792,4294755599,1315,1,-0.12,0.08,-2.92,2.75,0.06,-7.27,-80.28,3.19,-5.95,-0.28,2.77,-8.93,Sitting
45:29.7,601,504,756,797,358,1.86,538.35,1.75,20724.19,355,188,20723.56,186,429465792,4294725407,1503,1,-0.13,0.08,-3.24,0.37,-0.2,-7.89,-79.69,2.85,-6.16,-0.21,2.42,-9.1,Sitting
45:29.8,418,501,751.5,797,358,1.86,538.35,1.75,20724.19,355,187,20723.56,186,429465792,4294694840,1690,1,-0.13,0.09,-0.96,2.02,-0.44,-8.09,-79.48,2.8,-6.16,-0.16,2.37,-9.09,Sitting
45:30.0,412,499,748.5,797,358,1.86,538.35,1.75,20724.22,357,186,20723.57,187,429466400,0,0,1,-0.14,0.11,-3.63,0.29,-0.47,-8.6,-78.36,2.42,-6.37,-0.12,1.98,-9.25,Sitting
45:30.1,576,501,751.5,797,358,1.86,538.35,1.75,20724.22,357,190,20723.57,187,429466400,4294937860,190,1,-0.13,0.08,-3.31,-2.25,-2.25,-8.16,-79.62,2.07,-6.91,-0.31,1.66,-9.82,Sitting
45:30.2,530,502,753,797,358,1.86,538.35,1.75,20724.22,357,189,20723.57,187,429466400,4294908045,379,1,-0.13,0.08,-1.85,4.12,-1.27,-8.16,-79.48,1.91,-6.64,-0.37,1.5,-9.55,Sitting
45:30.3,367,498,747,797,359,1.85,540.66,1.75,20724.22,357,191,20723.57,187,429466400,4294878990,570,1,-0.13,0.11,-1.67,1.47,0.66,-8.11,-78.81,1.76,-6.7,-0.18,1.37,-9.59,Sitting
45:30.5,569,500,750,797,359,1.85,540.66,1.75,20724.22,357,188,20723.57,187,429466400,4294848798,758,1,-0.14,0.09,0.08,0.75,-1.38,-8.53,-78.84,1.84,-6.86,-0.26,1.43,-9.74,Sitting
45:30.6,550,501,751.5,797,359,1.85,540.66,1.75,20724.22,357,194,20723.57,187,429466400,4294820898,952,1,-0.14,0.08,-2.16,0.33,-0.59,-8.53,-79.15,1.64,-7.07,-0.23,1.24,-9.96,Sitting
45:30.7,432,500,750,797,361,1.83,545.32,1.76,20724.22,357,192,20723.57,187,429466400,4294792226,1144,1,-0.13,0.08,1.25,2.61,-1.44,-8.2,-79.42,1.87,-6.99,-0.32,1.47,-9.89,Sitting
45:30.8,562,501,751.5,797,361,1.83,545.32,1.76,20724.22,357,191,20723.57,187,429466400,4294763171,1335,0.99,-0.14,0.1,-0.44,-1.15,-0.74,-8.58,-78.59,1.89,-7.39,-0.31,1.47,-10.24,Sitting
45:31.0,489,501,751.5,797,359,1.85,540.66,1.75,20724.22,357,190,20723.57,187,429466400,4294733735,1525,1,-0.13,0.07,-1.87,-0.18,-2.31,-7.92,-80.15,1.72,-7.67,-0.5,1.34,-10.57,Sitting
45:31.1,383,498,747,797,360,1.84,542.99,1.76,20724.22,357,190,20723.57,187,429466400,4294704299,1715,1,-0.13,0.07,-2.76,2.53,-1.1,-7.94,-80.16,1.44,-7.6,-0.54,1.07,-10.5,Sitting
45:31.2,572,500,750,797,359,1.85,540.66,1.75,20724.26,359,191,20723.6,190,429467520,0,0,1,-0.14,0.08,-2.01,4.61,-0.63,-8.26,-79.53,1.26,-7.27,-0.52,0.88,-10.16,Sitting
45:31.4,560,501,751.5,797,358,1.86,538.35,1.75,20724.26,359,191,20723.6,190,429467520,4294938241,191,1,-0.13,0.1,-2.21,3.26,-1.6,-8.08,-78.93,1.05,-7.11,-0.62,0.69,-9.99,Sitting
45:31.5,606,503,754.5,797,359,1.85,540.66,1.75,20724.26,359,190,20723.6,190,429467520,4294908805,381,1,-0.13,0.12,-1.85,0.23,-2.73,-8.14,-78.35,0.89,-7.34,-0.87,0.53,-10.18,Sitting
45:31.6,552,504,756,797,360,1.84,542.99,1.76,20724.26,359,194,20723.6,190,429467520,4294880905,575,1,-0.13,0.11,-2.43,-2.03,-0.75,-7.82,-78.95,0.65,-7.85,-0.87,0.31,-10.69,Sitting
45:31.7,549,505,757.5,797,358,1.86,538.35,1.75,20724.26,359,191,20723.6,190,429467520,4294851850,766,1,-0.13,0.1,0.62,1.29,0.21,-8.22,-79.03,0.8,-7.94,-0.74,0.44,-10.78,Sitting
45:31.9,373,502,753,797,359,1.85,540.66,1.75,20724.26,359,189,20723.6,190,429467520,4294822035,955,1.01,-0.14,0.09,-1.75,0.82,0.27,-8.65,-78.79,0.65,-8.08,-0.61,0.28,-10.91,Sitting
45:32.0,574,504,756,797,360,1.84,542.99,1.76,20724.26,359,191,20723.6,190,429467520,4294792980,1146,1,-0.13,0.08,-1.94,-3.49,-2.71,-7.83,-79.7,0.48,-8.78,-0.85,0.15,-11.62,Sitting
45:32.1,780,509,763.5,797,359,1.85,540.66,1.75,20724.26,359,193,20723.6,190,429467520,4294764693,1339,1,-0.13,0.08,-2.54,1.76,0.25,-7.95,-79.76,0.23,-8.81,-0.72,-0.1,-11.65,Sitting
45:32.2,377,506,759,797,360,1.84,542.99,1.76,20724.26,359,191,20723.6,190,429467520,4294735638,1530,1.01,-0.14,0.09,-2.62,1.09,-0.85,-8.54,-79.09,-0.03,-8.93,-0.73,-0.37,-11.73,Sitting
45:32.4,579,507,760.5,797,360,1.84,542.99,1.76,20724.26,359,190,20723.6,190,429467520,4294706202,1720,1.01,-0.13,0.08,-1.66,-0.96,-1.82,-7.88,-79.69,-0.17,-9.3,-0.86,-0.48,-12.12,Sitting
45:32.5,473,507,760.5,797,359,1.85,540.66,1.75,20724.25,359,191,20723.6,191,429467712,0,0,1,-0.14,0.08,-0.65,-0.32,-0.17,-8.3,-79.38,-0.19,-9.6,-0.78,-0.51,-12.39,Sitting
45:32.6,398,505,757.5,797,361,1.83,545.32,1.76,20724.25,359,191,20723.6,191,429467712,4294938241,191,1,-0.14,0.07,-1.11,1.45,-1.51,-8.42,-79.51,-0.25,-9.67,-0.87,-0.58,-12.46,Sitting
45:32.7,601,507,760.5,797,361,1.83,545.32,1.76,20724.25,359,193,20723.6,191,429467712,4294909954,384,1.01,-0.14,0.08,-3.02,2.95,-0.66,-8.56,-79.24,-0.57,-9.55,-0.85,-0.89,-12.33,Sitting
45:32.9,504,507,760.5,797,361,1.83,545.32,1.76,20724.25,359,196,20723.6,191,429467712,4294882834,580,1,-0.14,0.09,-2.73,0.96,-2.31,-8.26,-79.11,-0.84,-9.68,-1.05,-1.14,-12.45,Sitting
45:33.0,447,506,759,797,362,1.83,547.66,1.77,20724.25,359,193,20723.6,191,429467712,4294854547,773,1,-0.12,0.09,-0.38,1.73,-2.95,-7.39,-79.91,-0.82,-9.71,-1.32,-1.08,-12.52,Sitting
45:33.1,590,507,760.5,797,361,1.83,545.32,1.76,20724.25,359,193,20723.6,191,429467712,4294826260,966,1.02,-0.14,0.09,-2.86,1.66,4.5,-8.38,-79.03,-1.11,-9.75,-0.65,-1.4,-12.53,Sitting
45:33.3,432,506,759,797,361,1.83,545.32,1.76,20724.25,359,193,20723.6,191,429467712,4294797973,1159,1.01,-0.15,0.09,-2.21,-0.71,-1.05,-9.17,-78.39,-1.32,-10.1,-0.68,-1.64,-12.83,Sitting
45:33.4,463,505,757.5,797,362,1.83,547.66,1.77,20724.25,359,194,20723.6,191,429467712,4294770073,1353,0.99,-0.15,0.07,-1.58,1.31,-3.53,-9.08,-78.93,-1.45,-10.19,-1.03,-1.76,-12.94,Sitting
45:33.5,585,506,759,797,361,1.83,545.32,1.76,20724.25,359,195,20723.6,191,429467712,4294742562,1548,1,-0.14,0.08,-2.38,0.61,-0.31,-8.25,-79.36,-1.68,-10.37,-0.97,-1.95,-13.12,Sitting
45:33.6,387,505,757.5,797,362,1.83,547.66,1.77,20724.25,359,194,20723.6,191,429467712,4294714662,1742,1.01,-0.14,0.09,-1.54,-0.14,-2.03,-8.32,-79.05,-1.81,-10.64,-1.12,-2.07,-13.37,Sitting
45:33.8,535,505,757.5,797,362,1.83,547.66,1.77,20724.29,361,195,20723.63,193,429468704,0,0,1,-0.14,0.08,-1.27,1.43,-0.46,-8.63,-79.22,-1.9,-10.71,-1.08,-2.17,-13.45,Sitting
45:33.9,583,506,759,797,361,1.83,545.32,1.76,20724.29,361,198,20723.63,193,429468704,4294940964,198,1,-0.15,0.07,-3.08,0.51,-1.48,-8.95,-79.14,-2.22,-10.9,-1.17,-2.49,-13.63,Sitting
45:34.0,404,505,757.5,797,363,1.82,550,1.77,20724.29,361,195,20723.63,193,429468704,4294913453,393,1.01,-0.13,0.09,-1.8,3.63,-1.92,-8.08,-79.5,-2.38,-10.69,-1.31,-2.6,-13.44,Sitting
45:34.1,811,509,763.5,811,363,1.82,550,1.77,20724.29,361,196,20723.63,193,429468704,4294886333,589,1,-0.14,0.08,-2.47,-1.79,-1.28,-8.72,-79.1,-2.62,-11.17,-1.38,-2.86,-13.89,Sitting
45:34.3,517,509,763.5,811,361,1.83,545.32,1.76,20724.29,361,197,20723.63,193,429468704,4294859606,786,1,-0.13,0.09,-1.11,0.72,-0.56,-7.96,-79.48,-2.69,-11.34,-1.35,-2.9,-14.06,Sitting
45:34.4,379,507,760.5,811,362,1.83,547.66,1.77,20724.29,361,195,20723.63,193,429468704,4294832095,981,1,-0.14,0.08,1.9,3.87,-0.7,-8.46,-79.21,-2.38,-11.1,-1.34,-2.62,-13.82,Sitting
45:34.5,594,508,762,811,362,1.83,547.66,1.77,20724.29,361,198,20723.63,193,429468704,4294805763,1179,1.01,-0.15,0.08,-3.35,-2.31,1.09,-9.02,-78.94,-2.73,-11.65,-1.1,-2.98,-14.34,Sitting
45:34.7,460,508,762,811,362,1.83,547.66,1.77,20724.29,361,195,20723.63,193,429468704,4294778252,1374,1,-0.14,0.08,-0.2,4.36,-3.21,-8.59,-79.09,-2.68,-11.35,-1.41,-2.92,-14.06,Sitting
45:34.8,427,507,760.5,811,363,1.82,550,1.77,20724.29,361,195,20723.63,193,429468704,4294750741,1569,1,-0.15,0.08,-2.87,0.18,1.62,-8.84,-79.11,-2.98,-11.58,-1.1,-3.21,-14.28,Sitting
45:34.9,584,508,762,811,362,1.83,547.66,1.77,20724.29,361,197,20723.63,193,429468704,4294724014,1766,1.02,-0.14,0.1,-1.82,3.68,-3.27,-8.57,-78.57,-3.14,-11.37,-1.41,-3.36,-14.06,Sitting
45:35.0,407,506,759,811,363,1.82,550,1.77,10.82,362,196,20723.65,196,429469696,0,0,1,-0.14,0.08,-3.53,-2.49,-2.97,-8.37,-79.32,-3.51,-11.93,-1.68,-3.71,-14.62,Sitting
45:35.2,456,506,759,811,364,1.81,552.35,1.78,10.82,362,197,20723.65,196,429469696,4294940569,197,1,-0.14,0.1,-0.18,4.52,0.21,-8.56,-78.71,-3.46,-11.61,-1.56,-3.67,-14.29,Sitting
45:35.3,599,507,760.5,811,363,1.82,550,1.77,10.82,362,197,20723.65,196,429469696,4294913842,394,1.02,-0.13,0.08,-1.34,0.5,-3.06,-7.79,-80.01,-3.56,-11.8,-1.84,-3.73,-14.53,Sitting
45:35.4,465,506,759,811,363,1.82,550,1.77,10.82,362,198,20723.65,196,429469696,4294887510,592,1.01,-0.13,0.09,-1.53,-0.36,0.35,-8.11,-79.42,-3.68,-12.1,-1.7,-3.86,-14.79,Sitting
45:35.5,511,506,759,811,364,1.81,552.35,1.78,10.82,362,198,20723.65,196,429469696,4294861178,790,1,-0.14,0.09,-1.4,-1.09,-2.17,-8.28,-79.14,-3.79,-12.49,-1.87,-3.97,-15.15,Sitting
45:35.7,639,508,762,811,364,1.81,552.35,1.78,10.82,362,199,20723.65,196,429469696,4294835243,989,1,-0.12,0.08,-1.95,1.21,-0.98,-7.59,-80.17,-3.97,-12.59,-1.9,-4.11,-15.29,Sitting
45:35.8,437,507,760.5,811,364,1.81,552.35,1.78,10.82,362,198,20723.65,196,429469696,4294808911,1187,1,-0.14,0.08,-2.22,0.86,0.37,-8.59,-79.13,-4.18,-12.73,-1.75,-4.35,-15.39,Sitting
45:35.9,487,507,760.5,811,365,1.8,554.71,1.78,10.82,362,201,20723.65,196,429469696,4294783776,1388,1,-0.14,0.09,-2.42,2.08,-2.53,-8.71,-78.82,-4.41,-12.72,-1.97,-4.59,-15.37,Sitting
45:36.0,639,508,762,811,364,1.81,552.35,1.78,10.82,362,202,20723.65,196,429469696,4294759044,1590,1.01,-0.13,0.09,-1.99,-0.16,-1.07,-8.01,-79.42,-4.6,-13,-2.01,-4.73,-15.65,Sitting
45:36.2,410,507,760.5,811,364,1.81,552.35,1.78,10.82,362,199,20723.65,196,429469696,4294733109,1789,1,-0.14,0.08,-1.6,0.44,0.42,-8.58,-79.14,-4.73,-13.19,-1.85,-4.88,-15.83,Sitting
45:36.3,489,507,760.5,811,364,1.81,552.35,1.78,36.76,363,200,20723.68,198,429470752,0,0,0.99,-0.13,0.07,-3.1,-2.92,-2.7,-8.11,-79.81,-5.04,-13.8,-2.09,-5.16,-16.44,Sitting
45:36.4,620,508,762,811,363,1.82,550,1.77,36.76,363,199,20723.68,198,429470752,4294941361,199,0.99,-0.14,0.08,-3.79,-2.12,4.46,-8.4,-79.43,-5.45,-14.32,-1.42,-5.57,-16.93,Sitting
45:36.6,419,507,760.5,811,363,1.82,550,1.77,36.76,363,198,20723.68,198,429470752,4294915029,397,1.01,-0.15,0.04,-0.1,0.87,0.52,-9.24,-79.51,-5.39,-14.47,-1.25,-5.55,-17.07,Sitting
45:36.7,430,507,760.5,811,364,1.81,552.35,1.78,36.76,363,199,20723.68,198,429470752,4294889094,596,1.02,-0.16,0.07,-2.9,0.63,-1.06,-9.49,-78.65,-5.69,-14.64,-1.29,-5.84,-17.2,Sitting
45:36.8,579,507,760.5,811,363,1.82,550,1.77,36.76,363,200,20723.68,198,429470752,4294863558,796,1,-0.15,0.05,-2.18,1.68,-2.64,-8.89,-79.56,-5.89,-14.68,-1.52,-6.01,-17.28,Sitting
45:36.9,406,506,759,811,363,1.82,550,1.77,36.76,363,199,20723.68,198,429470752,4294837623,995,1,-0.14,0.07,-2.43,2.13,-1.41,-8.81,-79.39,-6.13,-14.66,-1.6,-6.24,-17.25,Sitting
45:37.1,476,506,759,811,364,1.81,552.35,1.78,36.76,363,200,20723.68,198,429470752,4294812087,1195,1.01,-0.15,0.06,-2.39,0.98,-0.46,-8.79,-79.45,-6.36,-14.79,-1.56,-6.46,-17.38,Sitting
45:37.2,604,507,760.5,811,362,1.83,547.66,1.77,36.76,363,202,20723.68,198,429470752,4294787355,1397,1,-0.15,0.06,-1.17,-0.82,-1.05,-8.84,-79.42,-6.44,-15.15,-1.59,-6.54,-17.72,Sitting
45:37.3,391,506,759,811,363,1.82,550,1.77,36.76,363,200,20723.68,198,429470752,4294761819,1597,1,-0.15,0.05,-2.37,0.92,-1.55,-9.2,-79.27,-6.67,-15.29,-1.69,-6.77,-17.85,Sitting
45:37.4,531,506,759,811,365,1.8,554.71,1.78,36.76,363,207,20723.68,198,429470752,4294739132,1804,1.01,-0.15,0.06,-0.57,1.57,-1.24,-8.77,-79.64,-6.67,-15.34,-1.75,-6.76,-17.92,Sitting
45:37.6,597,507,760.5,811,364,1.81,552.35,1.78,31.43,363,209,20723.7,201,429471712,0,0,1,-0.15,0.07,-3.29,-0.13,-0.56,-9.27,-78.87,-7.01,-15.61,-1.72,-7.1,-18.14,Sitting
45:40.5,647,647,970.5,647,356,1.87,533.73,1.74,0,0,190,0,0,0,4294906920,376,0.91,0.19,0.36,-3.4,-5.27,-0.27,10.57,-64.41,-0.73,-0.65,-0.67,-0.28,-3.2,Left Fall while Sitting
45:40.6,584,615,922.5,647,353,1.9,526.87,1.73,0,0,188,0,0,0,4294876728,564,0.9,0.18,0.38,-4.59,0.53,4.46,9.73,-63.67,-1.23,-0.84,-0.02,-0.79,-3.35,Left Fall while Sitting
45:40.8,518,583,874.5,647,355,1.88,531.44,1.74,0,0,193,0,0,0,4294848441,757,0.93,0.18,0.37,4.98,3.64,-9.89,9.4,-64.6,-0.55,-0.63,-1.14,-0.15,-3.19,Left Fall while Sitting
45:40.9,511,565,847.5,647,358,1.86,538.35,1.75,0,0,198,0,0,0,4294822109,955,0.88,0.21,0.34,2.97,7.57,-16.16,11.68,-64.28,-0.11,0.05,-3.03,0.36,-2.52,Left Fall while Sitting
45:41.0,564,564,846,647,360,1.84,542.99,1.76,0,0,200,0,0,0,4294796573,1155,0.88,0.23,0.38,1.08,6.61,-11.98,13.02,-61.65,0.09,0.62,-4.4,0.61,-1.87,Left Fall while Sitting
45:41.1,820,607,910.5,820,361,1.83,545.32,1.76,0,0,204,0,0,0,4294772653,1359,0.88,0.25,0.41,8.19,12.27,-16.18,14.01,-59.94,1.17,1.88,-6.3,1.68,-0.59,Left Fall while Sitting
45:41.2,600,606,909,820,362,1.83,547.66,1.77,0,0,204,0,0,0,4294748733,1563,-1.79,0.34,2,18.63,121.27,-36.95,6.58,43.08,3.51,16.43,-10.71,3.63,17.5,Left Fall while Sitting
45:41.4,304,568,852,820,355,1.88,531.44,1.74,0,0,180,0,0,0,4294781133,1743,0.78,0.37,0.36,1.75,8.15,-25.2,22.78,-54.62,3.79,17.2,-13.74,4.55,14.32,Left Fall while Sitting
45:41.5,196,527,790.5,820,349,1.93,517.8,1.71,20724.21,356,179,20723.93,192,429481312,0,0,0.74,0.43,0.47,-7.34,8.63,-4.68,25.6,-47.78,2.95,18.02,-14.22,3.85,15.39,Left Fall while Sitting
45:41.6,221,496,744,820,349,1.93,517.8,1.71,20724.21,356,181,20723.93,192,429481312,32761,181,0.75,0.41,0.47,4.21,12.05,-8.53,24.33,-48.79,3.54,19.28,-15.19,4.37,16.56,Left Fall while Sitting
45:41.7,493,496,744,820,351,1.91,522.32,1.72,20724.21,356,184,20723.93,192,429481312,1081,365,0.74,0.42,0.45,8.38,14.11,-18.57,25.05,-48.74,4.67,20.81,-17.43,5.48,18.02,Left Fall while Sitting
45:41.9,670,510,765,820,353,1.9,526.87,1.73,20724.21,356,190,20723.93,192,429481312,4294938941,555,0.7,0.48,0.46,6.11,17.15,-17.73,29.18,-44.89,5.52,22.73,-19.58,6.46,20.02,Left Fall while Sitting
45:42.0,508,510,765,820,355,1.88,531.44,1.74,20724.21,356,189,20723.93,192,429481312,4294909126,744,0.68,0.52,0.47,3.21,15.84,-6.38,31.57,-42.52,5.99,24.47,-20.29,7.02,21.79,Left Fall while Sitting
45:42.1,409,503,754.5,820,353,1.9,526.87,1.73,20724.21,356,176,20723.93,192,429481312,4294940102,920,0.66,0.49,0.53,-0.99,5.44,-9.8,29.48,-41.02,5.94,24.91,-21.43,6.88,22.27,Left Fall while Sitting
45:42.2,395,496,744,820,345,1.97,508.85,1.69,20724.21,356,170,20723.93,192,429481312,1706,1090,0.66,0.54,0.5,3.9,2.54,-11.77,32.5,-40.33,6.5,24.98,-22.8,7.54,22.37,Left Fall while Sitting
45:42.4,311,484,726,820,343,1.98,504.41,1.68,20724.21,356,166,20723.93,192,429481312,29262,1256,0.63,0.55,0.48,9.53,3.49,-20.82,34.04,-39.59,7.77,25.17,-25.33,8.82,22.58,Left Fall while Sitting
45:42.5,456,482,723,820,343,1.98,504.41,1.68,20724.21,356,171,20723.93,192,429481312,58503,1427,0.56,0.59,0.49,-1.84,6.57,-11.35,38.16,-34.3,7.61,25.74,-26.66,8.83,23.34,Left Fall while Sitting
45:42.6,572,487,730.5,820,343,1.98,504.41,1.68,20724.21,356,171,20723.93,192,429481312,87744,1598,0.58,0.58,0.54,-12.84,7.5,3.55,35.45,-34.68,6.06,26.43,-26.11,7.23,23.99,Left Fall while Sitting
45:42.8,526,489,733.5,820,343,1.98,504.41,1.68,20724.06,347,170,108,176,11663,0,0,0.6,0.59,0.52,5.21,4.74,-14.43,35.96,-35.63,6.77,26.77,-27.8,7.94,24.28,Left Fall while Sitting
45:42.9,412,485,727.5,820,343,1.98,504.41,1.68,20724.06,347,168,108,176,11663,28224,168,0.56,0.6,0.5,0.32,3.74,-11.63,38.16,-33.9,6.88,26.99,-29.16,8.13,24.56,Left Fall while Sitting
45:43.0,460,484,726,820,343,1.98,504.41,1.68,20724.06,347,171,108,176,11663,57465,339,0.53,0.62,0.48,0.56,7.82,-9.77,40.21,-32.65,7.02,27.71,-30.27,8.35,25.3,Left Fall while Sitting
45:43.1,605,490,735,820,343,1.98,504.41,1.68,20724.06,347,170,108,176,11663,86365,509,0.51,0.65,0.5,-0.89,7.2,-8.05,41.47,-30.47,6.98,28.36,-31.18,8.36,26.01,Left Fall while Sitting
45:43.2,635,496,744,820,343,1.98,504.41,1.68,20724.06,347,175,108,176,11663,116990,684,0.51,0.65,0.49,2.45,5.6,-9.15,42.41,-30.25,7.36,28.81,-32.21,8.76,26.45,Left Fall while Sitting
45:43.4,511,497,745.5,820,343,1.98,504.41,1.68,20724.06,347,173,108,176,11663,146919,857,0.49,0.67,0.51,3.46,8.46,-12.19,42.83,-28.76,7.85,29.61,-33.63,9.25,27.28,Left Fall while Sitting
45:43.5,500,497,745.5,820,344,1.97,506.63,1.68,20724.06,347,173,108,176,11663,176848,1030,0.45,0.68,0.46,3.42,9.48,-15.96,45.68,-27.29,8.35,30.55,-35.52,9.84,28.23,Left Fall while Sitting
45:43.6,639,502,753,820,345,1.97,508.85,1.69,20724.06,347,173,108,176,11663,206777,1203,0.41,0.7,0.51,-0.69,4.61,-10.27,46.23,-23.9,8.33,30.87,-36.71,9.85,28.68,Left Fall while Sitting
45:43.7,988,520,780,988,354,1.89,529.15,1.73,20724.06,347,215,108,176,11663,187466,1418,0.4,0.71,0.49,1.37,2.44,-10.15,47.69,-23.48,8.58,30.93,-37.89,10.14,28.75,Left Fall while Sitting
45:43.9,703,527,790.5,988,360,1.84,542.99,1.76,20724.06,347,208,108,176,11663,165194,1626,0.38,0.73,0.49,-1.73,4.38,-6.27,48.87,-21.69,8.43,31.23,-38.57,10.05,29.11,Left Fall while Sitting
45:44.0,592,529,793.5,988,361,1.83,545.32,1.76,20724.06,347,211,120.07,183,14416,0,0,0.39,0.72,0.49,-0.18,5.56,-6.56,48.54,-22.35,8.48,31.67,-39.29,10.08,29.51,Left Fall while Sitting
45:44.1,576,530,795,988,360,1.84,542.99,1.76,20724.06,347,213,120.07,183,14416,4294947129,213,0.36,0.73,0.52,-0.73,5.85,-8.69,48.67,-20.22,8.46,32.15,-40.28,10.06,30.05,Left Fall while Sitting
45:44.2,525,530,795,988,357,1.87,536.04,1.74,20724.06,347,214,120.07,183,14416,4294927389,427,0.34,0.74,0.5,0.77,-0.64,-6.21,50.14,-19.12,8.62,31.82,-40.96,10.28,29.78,Left Fall while Sitting
45:44.4,293,523,784.5,988,355,1.88,531.44,1.74,20724.06,347,209,120.07,183,14416,4294905534,636,0.35,0.74,0.49,-2.33,-0.06,-1.19,50.32,-19.76,8.4,31.56,-41.01,10.08,29.5,Left Fall while Sitting
45:44.5,338,517,775.5,988,353,1.9,526.87,1.73,20724.06,347,209,120.07,183,14416,4294883679,845,0.35,0.75,0.48,-0.63,2.16,-3.53,50.73,-19.94,8.39,31.58,-41.36,10.09,29.52,Left Fall while Sitting
45:44.6,466,516,774,988,351,1.91,522.32,1.72,20724.06,347,213,120.07,183,14416,4294863512,1058,0.33,0.75,0.48,-1.82,4.34,-7.92,51.71,-19,8.23,31.87,-42.25,9.97,29.84,Left Fall while Sitting
45:44.7,309,510,765,988,348,1.94,515.56,1.7,20724.06,347,207,120.07,183,14416,4294840825,1265,0.32,0.76,0.5,-0.27,3.38,-8.91,51.65,-17.53,8.27,32.04,-43.27,10,30.06,Left Fall while Sitting
45:44.9,286,503,754.5,988,348,1.94,515.56,1.7,20724.06,347,207,120.07,183,14416,4294818138,1472,0.29,0.76,0.49,-1.62,1.75,-8.09,52.5,-16.18,8.14,32.01,-44.19,9.91,30.08,Left Fall while Sitting
45:45.0,505,504,756,988,347,1.95,513.31,1.7,20724.06,347,207,120.07,183,14416,4294795451,1679,0.29,0.76,0.47,0.95,1.4,-4.69,53.46,-16.18,8.33,31.94,-44.68,10.13,30.01,Left Fall while Sitting
45:45.1,490,503,754.5,988,345,1.97,508.85,1.69,20724.06,347,205,120.07,183,14416,4294771940,1884,0.28,0.77,0.46,-2.71,1.65,-2.5,54.46,-15.87,8.05,31.89,-44.9,9.91,29.98,Left Fall while Sitting
45:45.3,347,499,748.5,988,345,1.97,508.85,1.69,20724.11,350,203,20723.77,208,429474752,0,0,0.28,0.77,0.51,-2.24,4.51,-4.3,52.17,-15.24,7.85,32.2,-45.33,9.62,30.3,Left Fall while Sitting
45:45.4,455,498,747,988,346,1.96,511.08,1.69,20724.11,350,204,20723.77,208,429474752,4294943376,204,0.27,0.77,0.49,0.24,1.99,-5.98,53.16,-15.05,7.95,32.2,-45.99,9.76,30.31,Left Fall while Sitting
45:45.5,621,501,751.5,988,345,1.97,508.85,1.69,20724.11,350,206,20723.77,208,429474752,4294920276,410,0.26,0.77,0.5,-2.59,-0.5,-0.83,53.26,-14.08,7.69,31.88,-45.99,9.52,30.05,Left Fall while Sitting
45:45.6,407,499,748.5,988,346,1.96,511.08,1.69,20724.11,350,204,20723.77,208,429474752,4294896356,614,0.28,0.76,0.49,-3.13,-4.64,9.69,52.91,-15.47,7.37,31.04,-44.66,9.19,29.18,Left Fall while Sitting
45:45.8,495,499,748.5,988,347,1.95,513.31,1.7,20724.11,350,204,20723.77,208,429474752,4294872436,818,0.33,0.77,0.49,-3.34,-4.44,6.47,51.89,-18.49,7.02,30.23,-43.75,8.81,28.28,Left Fall while Sitting
45:45.9,655,502,753,988,347,1.95,513.31,1.7,20724.11,350,207,20723.77,208,429474752,4294849749,1025,0.32,0.77,0.49,-0.02,-3.19,-0.11,52.51,-17.6,7.09,29.57,-43.66,8.9,27.68,Left Fall while Sitting
45:46.0,418,500,750,988,348,1.94,515.56,1.7,20724.11,350,201,20723.77,208,429474752,4294824614,1226,0.31,0.75,0.48,-0.08,-2.09,0.7,52.07,-17.79,7.15,29.05,-43.47,8.94,27.18,Left Fall while Sitting
45:46.1,504,500,750,988,349,1.93,517.8,1.71,20724.11,350,191,20723.77,208,429474752,4294795559,1417,0.32,0.75,0.48,-1.54,-1.44,0.6,51.85,-18.51,7.02,28.61,-43.29,8.81,26.73,Left Fall while Sitting
45:46.3,723,505,757.5,988,346,1.96,511.08,1.69,20724.11,350,186,20723.77,208,429474752,4294764619,1603,0.33,0.74,0.47,-1.19,-0.51,1.04,51.84,-18.83,6.94,28.3,-43.06,8.74,26.41,Left Fall while Sitting
45:46.4,297,501,751.5,988,344,1.97,506.63,1.68,20724.11,350,181,20723.77,208,429474752,4294797380,1784,0.35,0.76,0.49,-6.32,0.24,4.39,50.83,-19.68,6.21,28.07,-42.4,7.99,26.16,Left Fall while Sitting
45:46.5,469,500,750,988,345,1.97,508.85,1.69,20724.03,346,185,20723.82,196,429476608,0,0,0.37,0.76,0.49,1.34,-2.67,1.71,50.59,-20.56,6.45,27.5,-42.09,8.21,25.57,Left Fall while Sitting
45:46.6,624,503,754.5,988,347,1.95,513.31,1.7,20724.03,346,193,20723.82,196,429476608,4294939009,193,0.37,0.74,0.45,0.78,-3.19,-0.18,51.34,-21.17,6.62,26.84,-42.02,8.41,24.92,Left Fall while Sitting
45:46.8,442,501,751.5,988,346,1.96,511.08,1.69,20724.03,346,190,20723.82,196,429476608,4294909573,383,0.35,0.76,0.45,-0.53,-0.55,-1.43,52.38,-19.83,6.62,26.52,-42.1,8.45,24.66,Left Fall while Sitting
45:46.9,378,499,748.5,988,347,1.95,513.31,1.7,20724.03,346,191,20723.82,196,429476608,4294880518,574,0.34,0.75,0.46,-2.6,1.03,4.07,52.18,-19.71,6.36,26.39,-41.48,8.19,24.55,Left Fall while Sitting
45:47.0,561,500,750,988,346,1.96,511.08,1.69,20724.03,346,194,20723.82,196,429476608,4294852618,768,0.37,0.74,0.47,-8.18,-6.46,25.75,50.33,-21.42,5.4,25.33,-38.14,7.2,23.46,Left Fall while Sitting
45:47.1,453,499,748.5,988,345,1.97,508.85,1.69,20724.03,346,201,20723.82,196,429476608,4294827483,969,0.48,0.7,0.44,-7.51,-14.73,26.76,46.46,-28.53,4.52,23.2,-34.64,6.2,21.13,Left Fall while Sitting
45:47.3,469,499,748.5,988,346,1.96,511.08,1.69,20724.03,346,202,20723.82,196,429476608,4294802751,1171,0.54,0.68,0.49,-4.56,-10.73,8.11,42.37,-31.35,4.01,21.59,-33.51,5.54,19.47,Left Fall while Sitting
45:47.4,863,505,757.5,988,344,1.97,506.63,1.68,20724.03,346,206,20723.82,196,429476608,4294779651,1377,0.52,0.68,0.45,-2.69,-9.03,12.07,44.13,-30.99,3.74,20.18,-31.87,5.35,18.14,Left Fall while Sitting
45:47.5,345,502,753,988,343,1.98,504.41,1.68,20724.03,346,204,20723.82,196,429476608,4294755731,1581,0.56,0.63,0.41,-0.8,-10.18,20.63,41.67,-35.12,3.71,18.64,-29.15,5.23,16.49,Left Fall while Sitting
45:47.7,431,501,751.5,988,343,1.98,504.41,1.68,20724.03,346,205,20723.82,196,429476608,4294732220,1786,0.59,0.62,0.4,-2.79,-15.82,25.59,40.4,-37.1,3.42,16.37,-25.8,4.9,14.24,Left Fall while Sitting
45:47.8,604,503,754.5,988,342,1.99,502.2,1.67,20724.01,344,208,20723.68,199,429471008,0,0,0.68,0.56,0.37,-4.81,-18.98,31.38,35.28,-43.83,2.89,13.75,-21.78,4.19,11.45,Left Fall while Sitting
45:47.9,451,502,753,988,342,1.99,502.2,1.67,20724.01,344,203,20723.68,199,429471008,4294942969,203,0.76,0.51,0.35,-1.18,-22.22,27.57,30.92,-49.04,2.81,10.67,-18.18,3.94,8.29,Left Fall while Sitting
45:48.0,428,501,751.5,988,343,1.98,504.41,1.68,20724.01,344,205,20723.68,199,429471008,4294919458,408,0.81,0.46,0.31,-3.37,-20.8,24.88,27.27,-54.11,2.46,7.8,-14.95,3.45,5.33,Left Fall while Sitting
45:48.2,627,503,754.5,988,342,1.99,502.2,1.67,20724.01,344,207,20723.68,199,429471008,4294896771,615,0.82,0.42,0.3,-6.2,-13.27,24.98,24.93,-56.18,1.75,5.86,-11.67,2.67,3.38,Left Fall while Sitting
45:48.3,454,502,753,988,342,1.99,502.2,1.67,20724.01,344,204,20723.68,199,429471008,4294872851,819,0.88,0.37,0.3,-7.65,-9.46,25.77,21.39,-59.94,0.85,4.42,-8.33,1.67,1.84,Left Fall while Sitting
45:48.4,358,500,750,988,341,2,500,1.67,20724.01,344,181,20723.68,199,429471008,4294905612,1000,0.91,0.28,0.26,-10.29,-22,38.87,15.99,-65.63,-0.38,1.37,-3.29,0.27,-1.31,Left Fall while Sitting
45:48.5,294,497,745.5,988,332,2.08,480.46,1.62,20724.01,344,165,20723.68,199,429471008,4294932837,1165,0.93,0.2,0.21,-11.71,-10.9,31.92,11.29,-71.07,-1.8,-0.27,0.87,-1.28,-3.1,Left Fall while Sitting
45:48.7,153,491,736.5,988,326,2.14,467.72,1.59,20724.01,344,159,20723.68,199,429471008,4294958118,1324,0.94,0.15,0.13,-5.97,-16.51,27.41,8.63,-76.41,-2.48,-2.6,4.42,-2.04,-5.55,Left Fall while Sitting
45:48.8,246,488,732,988,324,2.16,463.52,1.58,20724.01,344,159,20723.68,199,429471008,16103,1483,1.03,0.14,0.07,-8.38,-13.17,23.91,7.24,-79.64,-3.47,-4.51,7.53,-3.04,-7.52,Left Fall while Sitting
45:48.9,556,489,733.5,988,323,2.17,461.43,1.58,20724.01,344,165,20723.68,199,429471008,43328,1648,1.04,0.07,0.13,-5.5,-11.75,15.44,3.45,-80.36,-4.09,-6.24,9.57,-3.79,-9.21,Left Fall while Sitting
45:49.0,558,490,735,988,327,2.13,469.83,1.6,20723.84,334,171,85.18,181,7255,0,0,0.95,0.03,0.11,-8.99,-0.32,15.29,1.01,-81.53,-5.14,-6.53,11.57,-4.89,-9.53,Left Fall while Sitting
45:49.2,498,490,735,988,330,2.1,476.19,1.61,20723.84,334,171,85.18,181,7255,29241,171,0.98,0,0.16,-15.02,2.37,19.89,-0.57,-79,-6.93,-6.49,14.13,-6.67,-9.39,Left Fall while Sitting
45:49.3,624,492,738,988,331,2.09,478.32,1.62,20723.84,334,172,85.18,181,7255,58825,343,1,-0.07,0.12,0.49,-1.11,16.85,-4.36,-80.69,-6.8,-6.87,16.34,-6.7,-9.83,Left Fall while Sitting
45:49.4,715,495,742.5,988,331,2.09,478.32,1.62,20723.84,334,175,85.18,181,7255,89450,518,1.07,-0.07,0.17,-1.23,3.49,-6.72,-4.33,-78.55,-6.88,-6.69,15.6,-6.78,-9.56,Left Fall while Sitting
45:49.5,677,497,745.5,988,330,2.1,476.19,1.61,20723.84,334,178,85.18,181,7255,121134,696,0.99,-0.07,0.12,3.15,10.74,-25.92,-4.9,-80.02,-6.42,-5.6,12.48,-6.36,-8.58,Left Fall while Sitting
45:49.7,506,497,745.5,988,330,2.1,476.19,1.61,20723.84,334,176,85.18,181,7255,152110,872,0.92,0,0.18,-22.5,-4.41,0.44,-0.46,-77.17,-9.16,-6.41,12.63,-8.82,-9.24,Left Fall while Sitting
45:49.8,501,497,745.5,988,331,2.09,478.32,1.62,20723.84,334,178,85.18,181,7255,183794,1050,1.06,0,0.13,-1.52,15.39,-7.47,-0.47,-81.18,-9.28,-4.73,11.8,-8.93,-7.79,Left Fall while Sitting
45:49.9,636,499,748.5,988,330,2.1,476.19,1.61,20723.84,334,177,85.18,181,7255,215123,1227,0.93,-0.01,0.18,-12.66,-6.15,7.04,-1.35,-77.15,-10.81,-5.76,12.79,-10.43,-8.61,Left Fall while Sitting
45:50.0,788,503,754.5,988,327,2.13,469.83,1.6,20723.84,334,173,85.18,181,7255,245052,1400,1.05,-0.03,0.23,-4.34,0.61,3.44,-2.14,-75.76,-11.28,-5.93,13.31,-10.92,-8.72,Left Fall while Sitting
45:50.2,352,501,751.5,988,327,2.13,469.83,1.6,20723.84,334,176,85.18,181,7255,276028,1576,0.97,-0.05,0.14,2.96,-5.89,-5.2,-3.3,-79.99,-10.84,-6.92,12.76,-10.54,-9.84,Left Fall while Sitting
45:50.3,579,502,753,988,330,2.1,476.19,1.61,20723.76,329,183,156.2,175,24397,0,0,1,-0.03,0.12,-2.05,1.82,0.44,-2.26,-81.47,-11.03,-6.94,12.92,-10.68,-9.92,Left Fall while Sitting
45:50.4,689,504,756,988,332,2.08,480.46,1.62,20723.76,329,185,156.2,175,24397,4294935985,185,1.02,-0.04,0.16,-2.79,6,-6.44,-2.69,-79.17,-11.31,-6.44,12.2,-10.96,-9.35,Left Fall while Sitting
45:50.5,531,505,757.5,988,332,2.08,480.46,1.62,20723.76,329,186,156.2,175,24397,4294905045,371,0.99,-0.01,0.15,-5.95,-3.86,-0.53,-1.28,-79.82,-11.98,-7.17,12.24,-11.55,-10.08,Left Fall while Sitting
45:50.7,478,504,756,988,335,2.05,486.92,1.64,20723.76,329,186,156.2,175,24397,4294874105,557,0.99,-0.01,0.15,-5.38,-5.74,4.82,-1.32,-79.79,-12.59,-8.14,12.94,-12.14,-11.01,Left Fall while Sitting
45:50.8,605,506,759,988,334,2.06,484.76,1.63,20723.76,329,184,156.2,175,24397,4294842425,741,0.97,-0.05,0.13,2.99,1.64,-0.82,-3.36,-80.07,-12.14,-8.19,12.94,-11.79,-11.07,Left Fall while Sitting
45:50.9,511,506,759,988,334,2.06,484.76,1.63,20723.76,329,183,156.2,175,24397,4294810378,924,1.03,-0.07,0.14,-3.6,2.34,3.37,-4.18,-79.96,-12.52,-8.15,13.46,-12.19,-11.02,Left Fall while Sitting
45:51.0,417,505,757.5,988,335,2.05,486.92,1.64,20723.76,329,183,156.2,175,24397,4294778331,1107,0.99,-0.06,0.14,-4.44,-7.92,-1.15,-3.81,-79.85,-13.01,-9.4,13.42,-12.64,-12.22,Left Fall while Sitting
45:51.2,627,506,759,988,336,2.04,489.08,1.64,20723.76,329,185,156.2,175,24397,4294747020,1292,1.01,-0.05,0.12,-1.61,1.48,-0.44,-3.17,-80.88,-13.14,-9.46,13.46,-12.74,-12.32,Left Fall while Sitting
45:53.7,603,603,904.5,603,348,1.94,515.56,1.7,0,0,189,0,0,0,4294907666,378,0.99,-0.02,0.18,-5.23,2.09,-1.08,-1.56,-78.02,-0.72,0.57,-0.78,-0.75,-2.58,Right Fall while Sitting
45:53.8,456,529,793.5,603,349,1.93,517.8,1.71,0,0,186,0,0,0,4294876726,564,0.98,-0.03,0.17,1.75,3.36,-0.53,-2.29,-78.33,-0.44,0.73,-0.75,-0.51,-2.43,Right Fall while Sitting
45:53.9,386,481,721.5,603,350,1.92,520.06,1.71,0,0,186,0,0,0,4294845786,750,0.97,-0.05,0.19,-4.47,-2.42,4.92,-3.42,-77.08,-0.92,0.19,-0.04,-1.02,-2.9,Right Fall while Sitting
45:54.0,445,472,708,603,350,1.92,520.06,1.71,0,0,186,0,0,0,4294814846,936,0.99,-0.06,0.14,-2.57,-6.76,13.62,-3.78,-79.57,-1.17,-0.9,1.74,-1.27,-4.04,Right Fall while Sitting
45:54.2,508,479,718.5,603,350,1.92,520.06,1.71,0,0,186,0,0,0,4294783906,1122,1.01,-0.07,0.14,-5.42,0.55,9.15,-4.67,-79.45,-1.76,-1.07,2.96,-1.88,-4.21,Right Fall while Sitting
45:54.3,586,497,745.5,603,350,1.92,520.06,1.71,0,0,186,0,0,0,4294752966,1308,1,-0.11,0.17,-0.28,-4.96,4.21,-6.57,-77.06,-1.73,-1.94,3.58,-1.92,-4.94,Right Fall while Sitting
45:54.4,399,483,724.5,603,346,1.96,511.08,1.69,0,0,175,0,0,0,4294783591,1483,1.03,-0.12,0.13,-2.79,-3.91,0.34,-7.21,-78.78,-2.01,-2.66,3.72,-2.21,-5.71,Right Fall while Sitting
45:54.5,290,459,688.5,603,344,1.97,506.63,1.68,0,0,177,0,0,0,4294814920,1660,0.96,-0.11,0.11,-1.42,0.91,3.52,-7.07,-79.41,-2.11,-2.8,4.25,-2.31,-5.86,Right Fall while Sitting
45:54.6,406,453,679.5,603,347,1.95,513.31,1.7,20724.07,348,182,20723.86,184,429478240,0,0,0.99,-0.12,0.11,-6.31,3.27,10.04,-7.42,-79.15,-2.82,-2.64,5.6,-3.01,-5.7,Right Fall while Sitting
45:54.8,579,465,697.5,603,349,1.93,517.8,1.71,20724.07,348,180,20723.86,184,429478240,32400,180,0.97,-0.16,0.14,-1.59,0.19,12.31,-10.02,-75.78,-2.95,-2.87,7.25,-3.24,-5.78,Right Fall while Sitting
45:54.9,490,468,702,603,344,1.97,506.63,1.68,20724.07,348,173,20723.86,184,429478240,62329,353,0.99,-0.19,0.11,-3.01,-6.63,13.74,-11.61,-75.82,-3.26,-3.95,9.08,-3.6,-6.83,Right Fall while Sitting
45:55.0,331,456,684,603,342,1.99,502.2,1.67,20724.07,348,169,20723.86,184,429478240,90890,522,0.97,-0.22,0.11,-5.47,-4.09,20.59,-13.53,-73.95,-3.88,-4.72,11.77,-4.27,-7.49,Right Fall while Sitting
45:55.2,406,452,678,603,342,1.99,502.2,1.67,20724.07,348,173,20723.86,184,429478240,120819,695,0.98,-0.29,0.1,-5.91,-4.91,27.71,-17.05,-70.91,-4.56,-5.6,15.39,-5.06,-8.21,Right Fall while Sitting
45:55.3,586,462,693,603,341,2,500,1.67,20724.07,348,174,20723.86,184,429478240,151095,869,0.94,-0.34,0.09,-7.51,-10.13,25.78,-20.4,-67.88,-5.44,-7.13,18.74,-6.03,-9.56,Right Fall while Sitting
45:55.4,474,463,694.5,603,344,1.97,506.63,1.68,20724.07,348,177,20723.86,184,429478240,182424,1046,0.96,-0.41,0.03,-3.26,-9.95,19.7,-23.61,-65.31,-5.78,-8.64,21.34,-6.49,-10.91,Right Fall while Sitting
45:55.5,569,469,703.5,603,347,1.95,513.31,1.7,20724.07,348,178,20723.86,184,429478240,214108,1224,0.93,-0.45,0.02,-0.94,-5.59,18.15,-26.59,-62.39,-5.83,-9.61,23.75,-6.66,-11.72,Right Fall while Sitting
45:55.7,686,482,723,686,348,1.94,515.56,1.7,20724.07,348,182,20723.86,184,429478240,181696,1406,0.91,-0.5,-0.01,-2.24,-8.29,16.24,-29.04,-59.95,-6.04,-10.92,25.91,-6.96,-12.88,Right Fall while Sitting
45:55.8,467,481,721.5,686,349,1.93,517.8,1.71,20724.07,348,181,20723.86,184,429478240,214457,1587,0.89,-0.52,-0.02,-2.34,-2.69,11.97,-31.14,-57.84,-6.27,-11.51,27.53,-7.26,-13.36,Right Fall while Sitting
45:55.9,568,486,729,686,351,1.91,522.32,1.72,20724.02,345,183,135.06,177,18240,0,0,0.89,-0.53,-0.02,-6.25,1.11,12.52,-31.26,-57.71,-6.98,-11.62,29.19,-7.95,-13.47,Right Fall while Sitting
45:56.0,637,493,739.5,686,351,1.91,522.32,1.72,20724.02,345,185,135.06,177,18240,4294935985,185,0.86,-0.55,-0.05,-7.02,4.7,12.31,-33.1,-55.75,-7.8,-11.28,30.85,-8.81,-13.06,Right Fall while Sitting
45:56.2,450,491,736.5,686,352,1.91,524.59,1.72,20724.02,345,180,135.06,177,18240,1089,365,0.83,-0.58,0.01,-10.37,8.53,15.36,-35.76,-53.24,-9.02,-10.46,32.87,-10.09,-12.17,Right Fall while Sitting
45:56.3,415,488,732,686,352,1.91,524.59,1.72,20724.02,345,180,135.06,177,18240,33489,545,0.84,-0.63,-0.04,-13.41,10.92,15.69,-37.62,-51.3,-10.64,-9.34,34.95,-11.72,-11.02,Right Fall while Sitting
45:56.4,565,491,736.5,686,352,1.91,524.59,1.72,20724.02,345,181,135.06,177,18240,66250,726,0.79,-0.65,0.03,-9.58,3.97,11.55,-39.98,-48.99,-11.78,-9.09,36.5,-12.91,-10.69,Right Fall while Sitting
45:56.5,472,490,735,686,351,1.91,522.32,1.72,20724.02,345,178,135.06,177,18240,97934,904,0.77,-0.67,-0.01,-8.56,-1.45,13.74,-41.39,-47.6,-12.79,-9.53,38.34,-13.93,-11.05,Right Fall while Sitting
45:56.7,363,485,727.5,686,352,1.91,524.59,1.72,20724.02,345,180,135.06,177,18240,130334,1084,0.78,-0.71,-0.03,-12,3.02,12.79,-42.81,-46.15,-14.23,-9.4,40.05,-15.37,-10.87,Right Fall while Sitting
45:56.8,563,488,732,686,354,1.89,529.15,1.73,20724.02,345,180,135.06,177,18240,162734,1264,0.73,-0.71,-0.02,-5.05,1.83,8.54,-44.71,-44.27,-14.8,-9.42,41.23,-16,-10.81,Right Fall while Sitting
45:56.9,576,491,736.5,686,353,1.9,526.87,1.73,20724.02,345,180,135.06,177,18240,195134,1444,0.74,-0.74,-0.05,-3.93,2,8.37,-45.33,-43.51,-15.23,-9.42,42.39,-16.43,-10.78,Right Fall while Sitting
45:57.0,432,489,733.5,686,354,1.89,529.15,1.73,20724.02,345,184,135.06,177,18240,163454,1628,0.71,-0.73,-0.03,0.98,-1.76,10.58,-46.43,-42.53,-15.03,-9.89,43.82,-16.29,-11.2,Right Fall while Sitting
45:57.2,641,494,741,686,355,1.88,531.44,1.74,20724.14,352,186,115.11,181,13250,0,0,0.69,-0.78,-0.05,2.16,1.24,10.13,-48.96,-39.9,-14.69,-9.99,45.17,-16.07,-11.18,Right Fall while Sitting
45:57.3,585,497,745.5,686,355,1.88,531.44,1.74,20724.14,352,186,115.11,181,13250,4294936356,186,0.65,-0.79,-0.04,-1.47,1.98,8.27,-51.11,-37.81,-14.81,-9.99,46.32,-16.26,-11.1,Right Fall while Sitting
45:57.4,419,495,742.5,686,354,1.89,529.15,1.73,20724.14,352,182,115.11,181,13250,4294903944,368,0.66,-0.79,-0.04,-3.23,3.02,7.85,-50.96,-37.97,-15.15,-9.86,47.41,-16.58,-10.98,Right Fall while Sitting
45:57.5,445,493,739.5,686,354,1.89,529.15,1.73,20724.14,352,182,115.11,181,13250,4294871532,550,0.65,-0.8,-0.05,-6.79,-0.13,7.72,-51.58,-37.29,-15.93,-10.13,48.48,-17.36,-11.21,Right Fall while Sitting
45:57.7,567,495,742.5,686,351,1.91,522.32,1.72,20724.14,352,183,115.11,181,13250,4294839485,733,0.64,-0.82,-0.05,0.15,-1.4,8.47,-52.59,-36.27,-15.84,-10.56,49.66,-17.31,-11.59,Right Fall while Sitting
45:57.8,525,496,744,686,350,1.92,520.06,1.71,20724.14,352,176,115.11,181,13250,4294870461,909,0.59,-0.84,-0.05,-4.46,1.53,10.26,-55.14,-33.72,-16.34,-10.62,51.06,-17.89,-11.54,Right Fall while Sitting
45:57.9,421,494,741,686,350,1.92,520.06,1.71,20724.14,352,179,115.11,181,13250,4294902502,1088,0.59,-0.84,-0.05,-7.57,1.76,10.47,-55.66,-33.18,-17.23,-10.65,52.49,-18.77,-11.55,Right Fall while Sitting
45:58.1,571,496,744,686,349,1.93,517.8,1.71,20724.14,352,181,115.11,181,13250,4294935263,1269,0.57,-0.86,-0.05,-4.48,-0.77,6.44,-56.95,-31.9,-17.73,-11,53.41,-19.3,-11.84,Right Fall while Sitting
45:58.2,353,492,738,686,348,1.94,515.56,1.7,20724.14,352,176,115.11,181,13250,4294966239,1445,0.55,-0.87,-0.07,-4.73,-0.79,4.21,-57.87,-30.87,-18.26,-11.36,54.04,-19.84,-12.14,Right Fall while Sitting
45:58.3,512,493,739.5,686,348,1.94,515.56,1.7,20724.14,352,176,115.11,181,13250,29919,1621,0.55,-0.85,-0.07,-6.43,0.32,5.67,-57.39,-31.31,-19,-11.57,54.86,-20.53,-12.36,Right Fall while Sitting
