Datetime, ECGRaw , AvgECG , ampECG , MAX , GSRRaw , Resistance , GSR(kohm) , SCL , GSRRMS , GSRMAV , EMGRaw , EMGRMS , EMGMAV , EMGVAR , EMGSSI , IEMG , AccX , AccY, AccZ , GyroX , GyroY , GyroZ , Aroll , Apitch , Groll , Gpitch, Gyaw , Combroll , Combpitch,Features
12:34.3,274,274,411,274,270,2.79,358.57,1.32,0,0,775,0,0,0,24706,1552,1.01,-0.05,0.06,-3.7,1.74,0.11,-3.61,-83.71,-0.65,0.05,0.11,-0.77,-3.3,Standing
12:34.4,340,307,460.5,340,271,2.77,360.37,1.32,0,0,777,0,0,0,38611,2329,1.02,-0.04,0.08,-2.46,1.14,-2.82,-2.61,-83.66,-0.84,-0.03,-0.08,-0.91,-3.38,Standing
12:34.5,270,294,441,340,272,2.76,362.18,1.33,0,0,781,0,0,0,58748,3110,1.01,-0.04,0.06,-0.45,0.09,-2.98,-2.88,-84.24,-0.83,-0.22,-0.3,-0.91,-3.58,Standing
12:34.6,259,285,427.5,340,274,2.73,365.82,1.34,0,0,775,0,0,0,69549,3885,1.02,-0.04,0.05,-1.38,-1.49,-4.03,-2.77,-84.82,-0.91,-0.56,-0.61,-0.98,-3.93,Standing
12:34.6,276,283,424.5,340,276,2.71,369.48,1.35,0,0,776,0,0,0,81901,4661,1,-0.02,0.04,-1.71,2.76,-4.9,-1.7,-85.91,-1.02,-0.48,-1.02,-1.05,-3.9,Standing
12:34.7,292,285,427.5,340,276,2.71,369.48,1.35,0,0,777,0,0,0,95806,5438,1,-0.01,0.05,-2.37,2.47,-0.85,-1.43,-85.5,-1.19,-0.44,-1.03,-1.2,-3.84,Standing
12:34.8,333,292,438,340,277,2.69,371.31,1.35,0,0,777,0,0,0,109711,6215,1.01,-0.03,0.06,-1.27,-0.69,1.59,-2.34,-84.69,-1.26,-0.7,-0.79,-1.31,-4.06,Standing
12:34.9,414,307,460.5,414,278,2.68,373.15,1.36,0,0,775,0,0,0,120512,6990,1.02,-0.04,0.06,-2.31,1.4,-0.31,-2.77,-84.39,-1.44,-0.76,-0.75,-1.49,-4.11,Standing
12:35.0,423,320,480,423,279,2.67,375,1.36,98.56,274,777,115.94,776,13440,0,0,1.02,-0.03,0.06,-2.13,1.84,-1.85,-2.25,-84.82,-1.59,-0.78,-0.85,-1.62,-4.14,Standing
12:35.1,391,327,490.5,423,280,2.65,376.85,1.37,98.56,274,775,115.94,776,13440,10801,775,1.03,-0.02,0.04,-3.9,-1.86,-2.31,-1.89,-85.73,-1.92,-1.16,-1,-1.92,-4.54,Standing
12:35.2,333,327,490.5,423,282,2.63,380.57,1.38,98.56,274,778,115.94,776,13440,26261,1553,1.01,-0.03,0.05,-2.11,3.64,-3.04,-2.21,-85.12,-2.08,-1,-1.23,-2.08,-4.36,Standing
12:35.3,671,356,534,671,282,2.63,380.57,1.38,98.56,274,785,115.94,776,13440,52662,2338,1,-0.02,0.07,-1.95,1.63,-1.17,-1.94,-84.43,-2.22,-1.03,-1.26,-2.21,-4.37,Standing
12:35.4,347,355,532.5,671,282,2.63,380.57,1.38,98.56,274,776,115.94,776,13440,65014,3114,1.01,-0.02,0.06,-2.08,1.75,-1.51,-1.91,-84.54,-2.37,-1.06,-1.33,-2.35,-4.4,Standing
12:35.5,385,357,535.5,671,284,2.6,384.3,1.39,98.56,274,775,115.94,776,13440,75815,3889,1,-0.02,0.06,-2.46,-0.75,0.48,-1.97,-84.75,-2.56,-1.33,-1.21,-2.53,-4.67,Standing
12:35.6,379,359,538.5,671,284,2.6,384.3,1.39,98.56,274,775,115.94,776,13440,86616,4664,1.02,-0.03,0.07,-3.03,1.05,-2.97,-2.09,-84.28,-2.8,-1.43,-1.42,-2.77,-4.74,Standing
12:35.7,371,359,538.5,671,284,2.6,384.3,1.39,98.56,274,776,115.94,776,13440,98968,5440,1.01,-0.03,0.06,-4.38,-0.27,-2.88,-2.21,-84.47,-3.18,-1.65,-1.63,-3.14,-4.97,Standing
12:35.8,348,359,538.5,671,284,2.6,384.3,1.39,98.56,274,777,115.94,776,13440,112873,6217,1.01,-0.02,0.06,-3.27,1.66,-2.44,-1.8,-84.67,-3.45,-1.69,-1.8,-3.39,-5.01,Standing
12:35.9,246,352,528,671,283,2.61,382.43,1.38,98.56,274,774,115.94,776,13440,122125,6991,1.01,-0.03,0.05,-3.15,0.71,-1.69,-2.28,-84.96,-3.71,-1.82,-1.89,-3.66,-5.14,Standing
12:36.0,333,351,526.5,671,283,2.61,382.43,1.38,120.17,282,777,116.63,776,13602,0,0,1.02,-0.02,0.07,-3.05,3.25,-1.92,-1.89,-84.12,-3.96,-1.69,-2,-3.88,-4.99,Standing
12:36.1,336,351,526.5,671,282,2.63,380.57,1.38,120.17,282,775,116.63,776,13602,10801,775,1.01,-0.03,0.07,-3.11,2.98,-2.95,-2.08,-84.03,-4.21,-1.6,-2.21,-4.13,-4.89,Standing
12:36.2,330,350,525,671,282,2.63,380.57,1.38,120.17,282,781,116.63,776,13602,30938,1556,1.01,-0.01,0.06,-1.56,-0.01,-2.52,-1.01,-84.86,-4.31,-1.8,-2.39,-4.18,-5.12,Standing
12:36.3,346,349,523.5,671,281,2.64,378.71,1.37,120.17,282,779,116.63,776,13602,47955,2335,1.01,-0.02,0.07,-2,-0.86,-2.03,-1.5,-84.29,-4.46,-2.08,-2.51,-4.34,-5.37,Standing
12:36.4,317,348,522,671,281,2.64,378.71,1.37,120.17,282,795,116.63,776,13602,24620,3130,1,-0.01,0.07,-2.53,1.15,-0.8,-0.97,-84.37,-4.65,-2.17,-2.51,-4.51,-5.45,Standing
12:36.5,279,345,517.5,671,280,2.65,376.85,1.37,120.17,282,776,116.63,776,13602,36972,3906,1.01,-0.01,0.05,-2.32,0.72,1.03,-1.3,-85.38,-4.83,-2.29,-2.33,-4.69,-5.62,Standing
12:36.6,276,342,513,671,280,2.65,376.85,1.37,120.17,282,774,116.63,776,13602,46224,4680,1.01,-0.02,0.06,-2.9,-1.23,0.49,-1.71,-85.07,-5.06,-2.61,-2.2,-4.93,-5.91,Standing
12:36.7,311,341,511.5,671,280,2.65,376.85,1.37,120.17,282,780,116.63,776,13602,64800,5460,1.03,-0.04,0.06,-2.56,-1.47,-0.6,-2.69,-84.41,-5.26,-2.96,-2.18,-5.16,-6.22,Standing
12:36.8,307,340,510,671,280,2.65,376.85,1.37,120.17,282,777,116.63,776,13602,78705,6237,1.03,-0.03,0.05,-1.01,3.36,-3.21,-2.21,-84.98,-5.31,-2.82,-2.43,-5.18,-6.11,Standing
12:36.9,280,338,507,671,281,2.64,378.71,1.37,120.17,282,775,116.63,776,13602,89506,7012,1.01,-0.03,0.06,-0.92,1.42,-3.53,-2.37,-84.69,-5.34,-2.88,-2.7,-5.22,-6.15,Standing
12:37.0,358,338,507,671,281,2.64,378.71,1.37,115.38,280,774,99.37,778,9874,0,0,1.01,-0.02,0.06,-1.48,0.34,-3.32,-1.6,-84.61,-5.43,-3.05,-2.95,-5.28,-6.31,Standing
12:37.1,354,339,508.5,671,281,2.64,378.71,1.37,115.38,280,781,99.37,778,9874,20137,781,0.99,-0.01,0.06,-1.02,3.35,-1.36,-1.02,-85.05,-5.48,-2.91,-3,-5.3,-6.2,Standing
12:37.2,397,341,511.5,671,281,2.64,378.71,1.37,115.38,280,780,99.37,778,9874,38713,1561,1,-0.01,0.06,-1.45,1.41,0.1,-1.12,-85.05,-5.57,-2.97,-2.92,-5.39,-6.25,Standing
12:37.3,381,342,513,671,282,2.63,380.57,1.38,115.38,280,778,99.37,778,9874,54173,2339,1.03,-0.03,0.07,-1.63,-0.04,-1.05,-2.14,-84.42,-5.67,-3.17,-2.94,-5.53,-6.42,Standing
12:37.4,385,343,514.5,671,282,2.63,380.57,1.38,115.38,280,773,99.37,778,9874,61878,3112,1.02,-0.03,0.06,-2.47,1.37,-1,-2.03,-84.6,-5.87,-3.24,-2.96,-5.71,-6.49,Standing
12:37.5,346,343,514.5,671,282,2.63,380.57,1.38,115.38,280,788,99.37,778,9874,92998,3900,1.01,-0.01,0.05,-2.25,1.53,-2.73,-1.23,-85.77,-6.03,-3.28,-3.16,-5.84,-6.58,Standing
12:37.6,353,344,516,671,282,2.63,380.57,1.38,115.38,280,776,99.37,778,9874,105350,4676,1.01,-0.02,0.06,-0.73,1.02,-0.37,-1.49,-85.04,-6.05,-3.38,-3.11,-5.87,-6.65,Standing
12:37.7,388,345,517.5,671,282,2.63,380.57,1.38,115.38,280,775,99.37,778,9874,116151,5451,1,-0.02,0.06,-1.79,1.2,0.05,-1.68,-85.03,-6.17,-3.46,-3.03,-5.99,-6.73,Standing
12:37.8,416,347,520.5,671,281,2.64,378.71,1.37,115.38,280,779,99.37,778,9874,133168,6230,1.01,-0.02,0.06,-2.85,1.24,-0.08,-1.74,-85.06,-6.4,-3.54,-2.96,-6.21,-6.8,Standing
12:37.9,418,349,523.5,671,280,2.65,376.85,1.37,115.38,280,774,99.37,778,9874,142420,7004,1.02,-0.03,0.04,-4.08,1.09,-1.59,-2.1,-85.63,-6.75,-3.63,-3.04,-6.57,-6.91,Standing
12:38.0,386,349,523.5,671,280,2.65,376.85,1.37,116.59,281,775,123.78,777,15321,0,0,1.02,-0.02,0.05,-3.69,1.99,-2.95,-1.95,-85.37,-7.06,-3.63,-3.25,-6.86,-6.9,Standing
12:38.1,317,349,523.5,671,280,2.65,376.85,1.37,116.59,281,778,123.78,777,15321,15460,778,1.01,-0.03,0.08,-3.16,1.75,-1.4,-2.28,-83.71,-7.32,-3.66,-3.31,-7.12,-6.86,Standing
12:38.2,382,349,523.5,671,279,2.67,375,1.36,116.59,281,780,123.78,777,15321,34036,1558,1.01,-0.02,0.06,-4.37,1.12,-0.96,-1.51,-84.82,-7.7,-3.74,-3.33,-7.46,-6.99,Standing
12:38.3,401,351,526.5,671,278,2.68,373.15,1.36,116.59,281,778,123.78,777,15321,49496,2336,1.02,-0.02,0.07,-2.11,0.34,0.45,-1.58,-84.43,-7.86,-3.91,-3.21,-7.61,-7.13,Standing
12:38.4,387,352,528,671,279,2.67,375,1.36,116.59,281,778,123.78,777,15321,64956,3114,1.02,-0.02,0.06,-3.63,0.55,-0.68,-1.95,-84.8,-8.16,-4.05,-3.2,-7.91,-7.28,Standing
12:38.5,383,352,528,671,278,2.68,373.15,1.36,116.59,281,774,123.78,777,15321,74208,3888,1.02,-0.03,0.07,-0.53,1.07,-0.13,-2.17,-84.06,-8.16,-4.15,-3.13,-7.92,-7.34,Standing
12:38.6,735,361,541.5,735,279,2.67,375,1.36,116.59,281,779,123.78,777,15321,91225,4667,1,-0.04,0.06,0.5,-1,0.3,-2.6,-84.58,-8.05,-4.44,-3.02,-7.83,-7.65,Standing
12:38.7,387,361,541.5,735,278,2.68,373.15,1.36,116.59,281,775,123.78,777,15321,102026,5442,0.98,-0.02,0.06,0.57,3.04,2.6,-1.55,-85.04,-7.94,-4.34,-2.68,-7.68,-7.57,Standing
12:38.8,409,362,543,735,279,2.67,375,1.36,116.59,281,778,123.78,777,15321,117486,6220,1,-0.02,0.06,4.98,5.68,4.16,-1.89,-84.74,-7.38,-3.97,-2.19,-7.16,-7.2,Standing
12:38.9,410,363,544.5,735,279,2.67,375,1.36,116.59,281,773,123.78,777,15321,125191,6993,1.02,-0.05,0.06,1.97,-1.66,5.56,-3.39,-83.95,-7.13,-4.33,-1.56,-6.98,-7.52,Standing
12:39.0,456,365,547.5,735,279,2.67,375,1.36,110.42,278,777,117.94,777,13908,0,0,1.02,-0.07,0.06,2.58,0.95,3.15,-4.41,-83.42,-6.83,-4.44,-1.17,-6.73,-7.6,Standing
12:39.1,376,365,547.5,735,279,2.67,375,1.36,110.42,278,778,117.94,777,13908,15460,778,1.02,-0.05,0.11,4.73,0.73,1.79,-3.36,-81.87,-6.3,-4.57,-0.92,-6.18,-7.66,Standing
12:39.2,365,365,547.5,735,280,2.65,376.85,1.37,110.42,278,781,117.94,777,13908,35597,1559,1.02,-0.06,0.1,0.89,3.26,3.34,-4.08,-81.91,-6.15,-4.44,-0.5,-6.07,-7.54,Standing
12:39.3,408,366,549,735,280,2.65,376.85,1.37,110.42,278,779,117.94,777,13908,52614,2338,1.02,-0.1,0.07,1.73,3.8,1.44,-6.01,-81.76,-5.93,-4.26,-0.28,-5.93,-7.36,Standing
12:39.4,425,367,550.5,735,281,2.64,378.71,1.37,110.42,278,776,117.94,777,13908,64966,3114,1.01,-0.06,0.09,0.63,13.66,-2.25,-4.16,-82.28,-5.81,-3.1,-0.43,-5.74,-6.26,Standing
12:39.5,411,368,552,735,281,2.64,378.71,1.37,110.42,278,779,117.94,777,13908,81983,3893,1,-0.04,0.09,0.17,16.04,-3.11,-2.84,-82.59,-5.74,-1.71,-0.66,-5.62,-4.94,Standing
12:39.6,355,368,552,735,282,2.63,380.57,1.38,110.42,278,778,117.94,777,13908,97443,4671,1.02,-0.05,0.12,-9.24,4.08,-0.84,-3.32,-81.33,-6.6,-1.5,-0.66,-6.47,-4.69,Standing
12:39.7,375,368,552,735,282,2.63,380.57,1.38,110.42,278,779,117.94,777,13908,114460,5450,1.01,-0.07,0.11,-5.85,1.26,-1.3,-4.38,-80.89,-7.13,-1.57,-0.71,-7.02,-4.74,Standing
12:39.8,406,369,553.5,735,283,2.61,382.43,1.38,110.42,278,780,117.94,777,13908,133036,6230,0.99,-0.07,0.15,-5.78,3.4,-1.02,-4.69,-79.01,-7.65,-1.43,-0.74,-7.53,-4.53,Standing
12:39.9,429,370,555,735,284,2.6,384.3,1.39,110.42,278,774,117.94,777,13908,142288,7004,1.01,-0.07,0.15,-5.93,1.09,-0.05,-4.45,-78.99,-8.19,-1.52,-0.66,-8.04,-4.62,Standing
12:40.0,409,370,555,735,283,2.61,382.43,1.38,117.08,281,778,125.59,778,15773,0,0,0.99,-0.08,0.15,-2.31,-6.02,-3.23,-5.33,-78.84,-8.36,-2.32,-0.91,-8.24,-5.38,Standing
12:40.1,376,370,555,735,284,2.6,384.3,1.39,117.08,281,779,125.59,778,15773,17017,779,0.99,-0.07,0.12,-0.24,-10.97,-1.69,-4.51,-80.56,-8.33,-3.61,-0.99,-8.18,-6.68,Standing
12:40.2,703,376,564,735,285,2.59,386.18,1.39,117.08,281,770,125.59,778,15773,20093,1549,1.01,-0.05,0.1,0.99,-0.85,-1.04,-3.64,-82.22,-8.17,-3.89,-1.02,-7.99,-7.03,Standing
12:40.3,361,376,564,735,284,2.6,384.3,1.39,117.08,281,780,125.59,778,15773,38669,2329,1.01,-0.06,0.09,3.02,3.36,-0.14,-3.99,-82.32,-7.81,-3.76,-0.95,-7.66,-6.9,Standing
12:40.4,365,375,562.5,735,285,2.59,386.18,1.39,117.08,281,779,125.59,778,15773,55686,3108,1.02,-0.06,0.07,-4.83,-6.18,1.89,-4.01,-83.18,-8.24,-4.57,-0.69,-8.07,-7.72,Standing
12:40.5,390,376,564,735,286,2.58,388.06,1.4,117.08,281,778,125.59,778,15773,71146,3886,1.03,-0.08,0.09,-2.47,5.24,-2.98,-4.91,-81.68,-8.43,-4.25,-0.9,-8.29,-7.35,Standing
12:40.6,439,377,565.5,735,286,2.58,388.06,1.4,117.08,281,779,125.59,778,15773,88163,4665,1.01,-0.07,0.12,-5.19,1.57,-5.93,-4.27,-80.87,-8.9,-4.3,-1.42,-8.71,-7.36,Standing
12:40.7,335,376,564,735,286,2.58,388.06,1.4,117.08,281,783,125.59,778,15773,111428,5448,0.98,-0.08,0.08,-4.67,-9.21,-2.65,-4.99,-82.15,-9.3,-5.41,-1.61,-9.13,-8.48,Standing
12:40.8,331,375,562.5,735,287,2.56,389.95,1.4,117.08,281,774,125.59,778,15773,120680,6222,0.99,-0.06,0.1,-3.92,-0.04,-3.61,-4.08,-81.81,-9.64,-5.61,-1.89,-9.42,-8.66,Standing
12:40.9,403,376,564,735,288,2.55,391.84,1.41,117.08,281,776,125.59,778,15773,133032,6998,1,-0.04,0.1,-0.49,0.77,2.95,-2.97,-82.19,-9.63,-5.73,-1.51,-9.37,-8.79,Standing
12:41.0,445,377,565.5,735,289,2.54,393.73,1.41,127.52,286,776,120.57,777,14537,0,0,1.02,-0.07,0.08,-2.17,-3.56,2.15,-4.52,-82.52,-9.79,-6.28,-1.22,-9.58,-9.33,Standing
12:41.1,487,378,567,735,289,2.54,393.73,1.41,127.52,286,776,120.57,777,14537,12352,776,1.02,-0.08,0.07,-0.4,3.53,0.9,-5.15,-82.39,-9.78,-6.13,-1.05,-9.59,-9.18,Standing
12:41.2,391,378,567,735,289,2.54,393.73,1.41,127.52,286,775,120.57,777,14537,23153,1551,1.05,-0.08,0.07,-3.02,5.05,-3.5,-4.96,-82.48,-10.02,-5.82,-1.33,-9.82,-8.89,Standing
12:41.3,268,377,565.5,735,290,2.53,395.63,1.42,127.52,286,778,120.57,777,14537,38613,2329,1.03,-0.08,0.07,-1.98,6.64,-8.41,-5.06,-82.58,-10.16,-5.36,-2.09,-9.96,-8.45,Standing
12:41.4,261,375,562.5,735,290,2.53,395.63,1.42,127.52,286,775,120.57,777,14537,49414,3104,1,-0.05,0.08,-2.83,0.83,-7.76,-3.21,-82.99,-10.39,-5.48,-2.79,-10.1,-8.58,Standing
12:41.5,294,374,561,735,291,2.52,397.54,1.42,127.52,286,781,120.57,777,14537,69551,3885,0.99,-0.04,0.1,-1.95,-0.21,-3.82,-2.83,-82.44,-10.53,-5.7,-3.09,-10.22,-8.77,Standing
12:41.6,357,374,561,735,291,2.52,397.54,1.42,127.52,286,778,120.57,777,14537,85011,4663,0.97,-0.03,0.1,-3.08,-0.31,-5.38,-2.45,-82.41,-10.78,-5.93,-3.55,-10.45,-8.99,Standing
12:41.7,380,374,561,735,292,2.5,399.45,1.43,127.52,286,777,120.57,777,14537,98916,5440,0.98,-0.01,0.09,-0.47,-0.46,2.11,-1.42,-82.89,-10.77,-6.17,-3.26,-10.4,-9.24,Standing
12:41.8,735,379,568.5,735,293,2.49,401.37,1.43,127.52,286,772,120.57,777,14537,105076,6212,1.01,-0.04,0.09,-3.37,-2.33,4.09,-2.97,-82.61,-11.06,-6.61,-2.76,-10.73,-9.65,Standing
12:41.9,335,378,567,735,293,2.49,401.37,1.43,127.52,286,774,120.57,777,14537,114328,6986,1.02,-0.05,0.08,-2.81,3.07,-0.04,-3.35,-83.03,-11.28,-6.5,-2.69,-10.96,-9.57,Standing
12:42.0,392,378,567,735,294,2.48,403.29,1.44,138.79,291,774,111.17,776,12357,0,0,1.03,-0.06,0.08,-4.34,-0.36,-1.82,-3.86,-82.95,-11.65,-6.74,-2.79,-11.34,-9.79,Standing
12:42.1,397,379,568.5,735,294,2.48,403.29,1.44,138.79,291,775,111.17,776,12357,10801,775,1.02,-0.06,0.09,-1.37,4.03,-3.31,-3.68,-82.7,-11.74,-6.53,-3.04,-11.41,-9.58,Standing
12:42.2,412,379,568.5,735,294,2.48,403.29,1.44,138.79,291,775,111.17,776,12357,21602,1550,1.01,-0.05,0.09,-1.09,3.92,-2.68,-3.57,-82.44,-11.79,-6.34,-3.23,-11.46,-9.39,Standing
12:42.3,365,379,568.5,735,295,2.47,405.22,1.44,138.79,291,775,111.17,776,12357,32403,2325,1,-0.04,0.09,-3.37,2.37,-3.36,-2.86,-82.87,-12.07,-6.31,-3.49,-11.7,-9.37,Standing
12:42.4,360,379,568.5,735,295,2.47,405.22,1.44,138.79,291,774,111.17,776,12357,41655,3099,1.01,-0.03,0.1,-0.62,4.6,-0.03,-2.24,-82.76,-12.08,-6.04,-3.41,-11.68,-9.11,Standing
12:42.5,417,379,568.5,735,296,2.46,407.15,1.45,138.79,291,777,111.17,776,12357,55560,3876,1.02,-0.05,0.1,0.1,3.54,-0.37,-3.15,-82.23,-12.01,-5.89,-3.37,-11.66,-8.94,Standing
12:42.6,456,380,570,735,296,2.46,407.15,1.45,138.79,291,778,111.17,776,12357,71020,4654,1.01,-0.05,0.11,-0.66,4.37,-2.96,-3.47,-81.54,-12.02,-5.66,-3.58,-11.68,-8.69,Standing
12:42.7,448,381,571.5,735,297,2.44,409.09,1.45,138.79,291,780,111.17,776,12357,89596,5434,0.99,-0.03,0.1,-3.79,0.73,-3.95,-2.09,-82.47,-12.35,-5.78,-3.9,-11.94,-8.85,Standing
12:42.8,420,381,571.5,735,297,2.44,409.09,1.45,138.79,291,774,111.17,776,12357,98848,6208,0.99,-0.04,0.12,-2.89,-2.27,-0.4,-2.89,-81.34,-12.58,-6.21,-3.86,-12.19,-9.22,Standing
12:42.9,784,386,579,784,298,2.43,411.03,1.46,138.79,291,779,111.17,776,12357,115865,6987,1.01,-0.04,0.11,-3.56,0.37,-0.92,-2.68,-81.89,-12.88,-6.37,-3.88,-12.47,-9.4,Standing
12:43.0,381,386,579,784,298,2.43,411.03,1.46,148.6,296,780,115.95,776,13443,0,0,1.01,-0.04,0.09,-2.75,1.73,-2.01,-2.83,-82.62,-13.1,-6.4,-4,-12.69,-9.45,Standing
12:43.1,420,386,579,784,298,2.43,411.03,1.46,148.6,296,782,115.95,776,13443,21700,782,1,-0.04,0.12,-1.41,-0.52,-3.19,-2.83,-81.41,-13.18,-6.65,-4.24,-12.77,-9.64,Standing
12:43.2,451,387,580.5,784,299,2.42,412.98,1.46,148.6,296,775,115.95,776,13443,32501,1557,1.01,-0.04,0.11,-3.02,-0.18,-2.19,-2.73,-81.86,-13.43,-6.87,-4.38,-13,-9.87,Standing
12:43.3,435,387,580.5,784,299,2.42,412.98,1.46,148.6,296,776,115.95,776,13443,44853,2333,1.01,-0.04,0.1,-2.39,0.21,-1.66,-2.58,-82.23,-13.61,-7.05,-4.46,-13.17,-10.06,Standing
12:43.4,422,388,582,784,300,2.41,414.94,1.47,148.6,296,776,115.95,776,13443,57205,3109,1.02,-0.03,0.1,-1.33,1.01,-3.18,-2.1,-82.46,-13.69,-7.15,-4.7,-13.23,-10.16,Standing
12:43.5,730,391,586.5,784,300,2.41,414.94,1.47,148.6,296,768,115.95,776,13443,57205,3877,1.01,-0.03,0.11,-0.77,1,-1.66,-2,-81.8,-13.71,-7.25,-4.79,-13.24,-10.23,Standing
12:43.6,381,391,586.5,784,300,2.41,414.94,1.47,148.6,296,778,115.95,776,13443,72665,4655,1.01,-0.04,0.1,-2.89,-1.05,-1.61,-2.73,-82.2,-13.95,-7.56,-4.87,-13.5,-10.54,Standing
12:43.7,416,391,586.5,784,300,2.41,414.94,1.47,148.6,296,780,115.95,776,13443,91241,5435,1.01,-0.03,0.12,-0.49,5.02,-3.28,-2.38,-81.48,-13.94,-7.25,-5.12,-13.48,-10.22,Standing
12:43.8,417,392,588,784,301,2.4,416.9,1.47,148.6,296,786,115.95,776,13443,119213,6221,1,-0.02,0.11,-3.15,-0.19,-3.97,-1.68,-82.13,-14.2,-7.47,-5.44,-13.7,-10.46,Standing
12:43.9,405,392,588,784,301,2.4,416.9,1.47,148.6,296,777,115.95,776,13443,133118,6998,0.99,-0.02,0.09,-1.49,1.49,-2.54,-1.59,-83.4,-14.29,-7.53,-5.62,-13.79,-10.56,Standing
12:44.0,377,392,588,784,301,2.4,416.9,1.47,156.22,299,783,125.05,778,15637,0,0,1,-0.02,0.11,-2.08,1.58,0.05,-1.79,-81.96,-14.44,-7.57,-5.54,-13.94,-10.54,Standing
12:44.1,282,390,585,784,302,2.39,418.86,1.48,156.22,299,773,125.05,778,15637,7705,773,1.01,-0.01,0.1,-2.8,1.64,-1.71,-1.31,-82.47,-14.67,-7.6,-5.63,-14.14,-10.6,Standing
12:44.2,415,392,588,784,302,2.39,418.86,1.48,156.22,299,774,125.05,778,15637,16957,1547,0.99,-0.01,0.11,-4.95,0.34,0.55,-1.35,-81.95,-15.11,-7.77,-5.5,-14.56,-10.74,Standing
12:44.3,432,393,589.5,784,302,2.39,418.86,1.48,156.22,299,780,125.05,778,15637,35533,2327,1.01,-0.04,0.1,-4.12,2.05,-0.4,-2.7,-82.5,-15.46,-7.76,-5.46,-14.95,-10.75,Standing
12:44.4,452,395,592.5,784,302,2.39,418.86,1.48,156.22,299,776,125.05,778,15637,47885,3103,1.01,-0.02,0.12,0.15,6.99,-3.62,-1.93,-81.56,-15.39,-7.26,-5.74,-14.85,-10.23,Standing
12:44.5,440,396,594,784,303,2.38,420.83,1.48,156.22,299,781,125.05,778,15637,68022,3884,1,-0.01,0.12,-2.54,-3.17,-1.84,-0.98,-81.59,-15.59,-7.77,-5.85,-15,-10.73,Standing
12:44.6,401,398,597,784,303,2.38,420.83,1.48,156.22,299,778,125.05,778,15637,83482,4662,0.99,-0.02,0.11,-3.02,2.25,-1.82,-1.5,-82.07,-15.84,-7.75,-5.95,-15.26,-10.72,Standing
12:44.7,371,398,597,784,303,2.38,420.83,1.48,156.22,299,776,125.05,778,15637,95834,5438,0.98,-0.02,0.11,-3.21,3.76,-1.23,-1.49,-81.95,-16.1,-7.57,-6,-15.52,-10.54,Standing
12:44.8,450,400,600,784,303,2.38,420.83,1.48,156.22,299,778,125.05,778,15637,111294,6216,0.99,-0.01,0.12,-4.37,-1.14,-0.44,-1.38,-81.64,-16.49,-7.88,-5.96,-15.88,-10.83,Standing
12:44.9,446,400,600,784,304,2.37,422.81,1.49,156.22,299,778,125.05,778,15637,126754,6994,1.01,-0.01,0.12,-3.36,0.77,0.19,-1.27,-81.45,-16.77,-8.01,-5.86,-16.15,-10.94,Standing
12:45.0,443,400,600,784,304,2.37,422.81,1.49,161.72,302,776,117.94,777,13909,0,0,1.02,-0.02,0.12,-1.6,-0.46,0.08,-1.7,-81.73,-16.87,-8.25,-5.78,-16.26,-11.19,Standing
12:45.1,435,401,601.5,784,304,2.37,422.81,1.49,161.72,302,778,117.94,777,13909,15460,778,1.01,-0.02,0.12,-2.63,-0.43,-1.95,-1.63,-81.58,-17.07,-8.49,-5.89,-16.46,-11.42,Standing
12:45.2,408,401,601.5,784,304,2.37,422.81,1.49,161.72,302,774,117.94,777,13909,24712,1552,1,-0.02,0.1,-2.2,2.32,-2.39,-1.45,-82.87,-17.24,-8.46,-6.05,-16.61,-11.44,Standing
12:45.3,357,398,597,784,305,2.35,424.79,1.49,161.72,302,778,117.94,777,13909,40172,2330,1,-0.01,0.12,-1.65,1.78,-2.42,-1.15,-81.29,-17.35,-8.48,-6.22,-16.7,-11.39,Standing
12:45.4,428,399,598.5,784,305,2.35,424.79,1.49,161.72,302,778,117.94,777,13909,55632,3108,0.99,-0.02,0.12,-1.13,2.44,-0.97,-1.66,-81.51,-17.41,-8.44,-6.24,-16.78,-11.36,Standing
12:45.5,458,400,600,784,306,2.34,426.78,1.5,161.72,302,778,117.94,777,13909,71092,3886,1.01,-0.01,0.11,-1.27,-0.77,0.39,-1.41,-82.04,-17.48,-8.72,-6.12,-16.84,-11.65,Standing
12:45.6,459,401,601.5,784,305,2.35,424.79,1.49,161.72,302,776,117.94,777,13909,83444,4662,1.01,-0.02,0.11,-1.95,1.09,-2.06,-1.69,-82.06,-17.62,-8.81,-6.24,-16.98,-11.74,Standing
12:45.7,473,402,603,784,306,2.34,426.78,1.5,161.72,302,779,117.94,777,13909,100461,5441,1,-0.01,0.13,-0.92,2.75,-3,-1.12,-81.21,-17.65,-8.73,-6.47,-16.99,-11.63,Standing
12:45.8,405,402,603,784,306,2.34,426.78,1.5,161.72,302,773,117.94,777,13909,108166,6214,1,-0.01,0.11,-1.4,2.11,-2.6,-0.89,-82.18,-17.74,-8.72,-6.65,-17.06,-11.66,Standing
12:45.9,365,403,604.5,784,306,2.34,426.78,1.5,161.72,302,776,117.94,777,13909,120518,6990,0.99,-0.01,0.11,-1.09,0.37,-0.76,-1.04,-82.16,-17.79,-8.88,-6.65,-17.12,-11.82,Standing
12:46.0,408,404,606,784,306,2.34,426.78,1.5,166.35,305,774,113.92,776,12976,0,0,1,-0.02,0.12,-3.15,1.9,-1.59,-1.65,-81.54,-18.05,-8.89,-6.72,-17.39,-11.8,Standing
12:46.1,427,405,607.5,784,307,2.33,428.77,1.5,166.35,305,773,113.92,776,12976,7705,773,0.99,-0.02,0.12,-2.35,1.57,-3.54,-1.79,-81.33,-18.23,-8.94,-7,-17.57,-11.83,Standing
12:46.2,401,406,609,784,307,2.33,428.77,1.5,166.35,305,776,113.92,776,12976,20057,1549,1.01,-0.01,0.12,-2.04,1.18,-2.53,-1.21,-81.47,-18.38,-9.02,-7.17,-17.69,-11.92,Standing
12:46.3,425,407,610.5,784,307,2.33,428.77,1.5,166.35,305,775,113.92,776,12976,30858,2324,0.99,0,0.11,-3.57,1.06,-2.44,-0.52,-82.04,-18.68,-9.11,-7.34,-17.95,-12.03,Standing
12:46.4,395,407,610.5,784,307,2.33,428.77,1.5,166.35,305,786,113.92,776,12976,58830,3110,0.99,0,0.1,-1.34,2,1.24,-0.51,-82.53,-18.76,-9.11,-7.13,-18.03,-12.05,Standing
12:52.7,101,101,151.5,101,302,2.39,418.86,1.48,0,0,775,0,0,0,26261,1553,1.06,-0.04,0.11,3.42,-5.24,-6.38,-2.59,-82.21,0.93,-0.66,0.41,0.79,-3.92,Left Fall while Standing
12:52.8,212,156,234,212,302,2.39,418.86,1.48,0,0,777,0,0,0,40166,2330,0.99,-0.01,0.06,10.02,-2.1,-10.92,-1.13,-84.63,1.95,-1.05,-0.58,1.83,-4.4,Left Fall while Standing
12:52.9,360,224,336,360,302,2.39,418.86,1.48,0,0,786,0,0,0,68138,3116,0.97,-0.02,0.05,4.79,-14.44,-3,-1.92,-85.1,2.47,-2.65,-0.79,2.3,-5.95,Left Fall while Standing
12:53.0,560,308,462,560,303,2.38,420.83,1.48,0,0,779,0,0,0,85155,3895,1.03,0,0.03,-1.36,-13.1,6.14,-0.35,-86.75,2.39,-4.13,-0.11,2.29,-7.43,Left Fall while Standing
12:53.1,549,356,534,560,302,2.39,418.86,1.48,0,0,783,0,0,0,108420,4678,1.04,-0.01,0,5.05,-6.08,9.46,-1.33,-87.63,2.94,-4.92,0.89,2.77,-8.23,Left Fall while Standing
12:53.2,627,401,601.5,627,302,2.39,418.86,1.48,0,0,777,0,0,0,122325,5455,1.05,-0.08,-0.05,0.91,-13.88,1.05,-5.2,-83.07,3.09,-6.46,1.07,2.76,-9.53,Left Fall while Standing
12:53.3,722,447,670.5,722,301,2.4,416.9,1.47,0,0,779,0,0,0,139342,6234,1.08,-0.04,0.05,21.08,16.01,-34.56,-2.89,-84.82,5.19,-5.1,-2.2,4.86,-8.29,Left Fall while Standing
12:53.4,745,484,726,745,300,2.41,414.94,1.47,0,0,777,0,0,0,153247,7011,0.96,0.06,-0.07,3.33,11.2,-9.76,3.18,-82.83,5.57,-4.19,-3.09,5.48,-7.34,Left Fall while Standing
12:53.5,719,510,765,745,299,2.42,412.98,1.46,159.46,301,780,131.08,779,17181,0,0,1.01,0.05,0.01,-2.56,-8.56,0.38,2.26,-85.48,5.38,-5.22,-2.98,5.25,-8.43,Left Fall while Standing
12:53.6,713,530,795,745,299,2.42,412.98,1.46,159.46,301,783,131.08,779,17181,23265,783,1.01,0.04,0,-1.31,2.4,-0.83,1.61,-86.23,5.3,-5.18,-2.98,5.16,-8.42,Left Fall while Standing
12:53.7,585,535,802.5,745,297,2.44,409.09,1.45,159.46,301,781,131.08,779,17181,43402,1564,1,0.04,0.03,-2.28,14.07,-0.02,1.63,-85.72,5.13,-3.98,-2.91,4.99,-7.25,Left Fall while Standing
12:53.8,543,536,804,745,296,2.46,407.15,1.45,159.46,301,779,131.08,779,17181,60419,2343,1.02,0.03,0.03,-2.46,8.92,-2.49,0.96,-86.21,4.94,-3.29,-3.08,4.78,-6.61,Left Fall while Standing
12:53.9,532,536,804,745,295,2.47,405.22,1.44,159.46,301,777,131.08,779,17181,74324,3120,1.03,0.04,0.03,2.82,-1.63,-0.49,1.59,-85.65,5.28,-3.65,-3.05,5.13,-6.93,Left Fall while Standing
12:53.9,497,533,799.5,745,294,2.48,403.29,1.44,159.46,301,778,131.08,779,17181,89784,3898,1.03,0.02,0.01,-4.35,1.09,-5.63,0.51,-87.29,4.91,-3.74,-3.52,4.73,-7.08,Left Fall while Standing
12:54.0,433,526,789,745,293,2.49,401.37,1.43,159.46,301,781,131.08,779,17181,109921,4679,1.02,0.03,0.04,-3.56,1.26,-8.55,1.36,-85.62,4.61,-3.81,-4.3,4.48,-7.08,Left Fall while Standing
12:54.2,452,521,781.5,745,292,2.5,399.45,1.43,159.46,301,777,131.08,779,17181,123826,5456,1.02,0.06,0.05,-7.76,-1.58,-9.71,2.93,-84.08,3.89,-4.17,-5.18,3.86,-7.36,Left Fall while Standing
12:54.2,453,517,775.5,745,292,2.5,399.45,1.43,159.46,301,785,131.08,779,17181,150227,6241,1.01,0.08,0.04,-1.49,-0.34,-8.46,3.82,-83.37,3.8,-4.4,-5.94,3.8,-7.56,Left Fall while Standing
12:54.3,476,515,772.5,745,292,2.5,399.45,1.43,159.46,301,778,131.08,779,17181,165687,7019,1.01,0.09,0.03,-2.32,-1.66,-12.79,4.66,-82.89,3.62,-4.77,-7.15,3.67,-7.89,Left Fall while Standing
12:54.4,527,516,774,745,291,2.52,397.54,1.42,144.79,294,780,135.74,779,18425,0,0,0.99,0.1,0.04,-3.52,-2.28,-14.64,5.39,-81.98,3.34,-5.18,-8.5,3.42,-8.26,Left Fall while Standing
12:54.5,525,516,774,745,291,2.52,397.54,1.42,144.79,294,779,135.74,779,18425,17017,779,1,0.13,0.03,-3.18,-3.73,-18.34,6.89,-80.81,3.08,-5.75,-10.23,3.23,-8.75,Left Fall while Standing
12:54.6,500,515,772.5,745,291,2.52,397.54,1.42,144.79,294,776,135.74,779,18425,29369,1555,0.98,0.16,0.01,0.46,-1.73,-19.08,8.87,-78.93,3.18,-6.13,-12.08,3.41,-9.04,Left Fall while Standing
12:54.7,512,515,772.5,745,292,2.5,399.45,1.43,144.79,294,779,135.74,779,18425,46386,2334,0.99,0.19,0.01,-1.26,-0.12,-11.59,10.33,-77.51,3.11,-6.34,-13.15,3.4,-9.18,Left Fall while Standing
12:54.8,512,515,772.5,745,292,2.5,399.45,1.43,144.79,294,792,135.74,779,18425,18290,3126,1,0.22,-0.01,-3.57,0.47,-9.95,11.61,-76.22,2.81,-6.49,-14.06,3.17,-9.28,Left Fall while Standing
12:54.9,503,514,771,745,292,2.5,399.45,1.43,144.79,294,777,135.74,779,18425,32195,3903,1,0.23,0,0.36,1.59,-13.02,12.31,-75.53,2.91,-6.53,-15.29,3.28,-9.29,Left Fall while Standing
12:55.0,547,516,774,745,293,2.49,401.37,1.43,144.79,294,778,135.74,779,18425,47655,4681,0.99,0.25,-0.01,1.89,-0.39,-17.8,13.44,-74.39,3.15,-6.77,-16.98,3.56,-9.47,Left Fall while Standing
12:55.1,549,517,775.5,745,294,2.48,403.29,1.44,144.79,294,780,135.74,779,18425,66231,5461,0.97,0.28,-0.02,0.76,-4.29,-17.71,15.45,-72.34,3.28,-7.39,-18.65,3.77,-9.99,Left Fall while Standing
12:55.2,548,518,777,745,294,2.48,403.29,1.44,144.79,294,777,135.74,779,18425,80136,6238,0.96,0.31,-0.04,-1.97,4.4,-16.02,17.14,-70.56,3.14,-7.15,-20.19,3.7,-9.68,Left Fall while Standing
12:55.3,526,518,777,745,296,2.46,407.15,1.45,144.79,294,777,135.74,779,18425,94041,7015,0.96,0.32,-0.03,-3.56,-0.18,-14.4,18.02,-69.75,2.84,-7.36,-21.54,3.45,-9.86,Left Fall while Standing
12:55.4,908,532,798,908,296,2.46,407.15,1.45,142.74,293,783,108.31,779,11729,0,0,0.94,0.34,-0.02,-2.87,0.54,-11.5,19.4,-68.42,2.61,-7.51,-22.6,3.28,-9.94,Left Fall while Standing
12:55.5,456,529,793.5,908,296,2.46,407.15,1.45,142.74,293,783,108.31,779,11729,23265,783,0.94,0.35,-0.02,-2.52,1.48,-11.31,20.09,-67.7,2.42,-7.56,-23.65,3.12,-9.97,Left Fall while Standing
12:55.6,490,528,792,908,297,2.44,409.09,1.45,142.74,293,779,108.31,779,11729,40282,1562,0.92,0.39,-0.03,-1.15,0.42,-8.05,22.27,-65.49,2.36,-7.72,-24.36,3.15,-10.03,Left Fall while Standing
12:55.7,463,526,789,908,299,2.42,412.98,1.46,142.74,293,778,108.31,779,11729,55742,2340,0.94,0.38,-0.02,-4.22,0.37,-7.06,21.33,-66.48,1.99,-7.88,-24.99,2.77,-10.22,Left Fall while Standing
12:55.8,485,525,787.5,908,299,2.42,412.98,1.46,142.74,293,783,108.31,779,11729,79007,3123,0.94,0.39,-0.02,-6.95,2.53,-8.52,22.22,-65.58,1.35,-7.83,-25.76,2.19,-10.14,Left Fall while Standing
12:55.9,456,523,784.5,908,299,2.42,412.98,1.46,142.74,293,777,108.31,779,11729,92912,3900,0.93,0.41,-0.01,-5.57,-2.06,-11.79,23.36,-64.47,0.85,-8.23,-26.87,1.75,-10.48,Left Fall while Standing
12:56.0,549,523,784.5,908,300,2.41,414.94,1.47,142.74,293,770,108.31,779,11729,95988,4670,0.89,0.44,-0.02,-2.85,-1.95,-7.24,25.66,-62.15,0.63,-8.62,-27.5,1.63,-10.76,Left Fall while Standing
12:56.1,437,521,781.5,908,301,2.4,416.9,1.47,142.74,293,776,108.31,779,11729,108340,5446,0.89,0.43,-0.02,-2.79,-0.31,-0.56,25.29,-62.53,0.4,-8.86,-27.48,1.4,-11,Left Fall while Standing
12:56.2,376,517,775.5,908,301,2.4,416.9,1.47,142.74,293,779,108.31,779,11729,125357,6225,0.93,0.41,-0.01,3.05,5.58,7.49,23.07,-64.77,0.76,-8.5,-26.65,1.65,-10.75,Left Fall while Standing
12:56.3,351,513,769.5,908,302,2.39,418.86,1.48,142.74,293,777,108.31,779,11729,139262,7002,0.94,0.4,-0.01,-3.98,-3.82,12.4,22.34,-65.49,0.42,-9.07,-25.35,1.3,-11.33,Left Fall while Standing
12:56.4,387,509,763.5,908,303,2.38,420.83,1.48,155.85,299,782,126.87,778,16095,0,0,0.92,0.39,-0.01,-5.62,3.95,10.15,22.22,-65.62,-0.08,-8.88,-24.25,0.81,-11.15,Left Fall while Standing
12:56.5,384,506,759,908,304,2.37,422.81,1.49,155.85,299,774,126.87,778,16095,9252,774,0.96,0.36,0.01,-4.2,1.8,5.36,19.95,-67.89,-0.44,-8.9,-23.64,0.37,-11.26,Left Fall while Standing
12:56.6,315,502,753,908,303,2.38,420.83,1.48,155.85,299,774,126.87,778,16095,18504,1548,0.97,0.36,-0.02,2.89,0.16,2.49,20.04,-67.78,-0.1,-9.08,-23.32,0.7,-11.43,Left Fall while Standing
12:56.7,457,501,751.5,908,304,2.37,422.81,1.49,155.85,299,778,126.87,778,16095,33964,2326,0.96,0.35,-0.03,0.24,-4.88,2.29,19.46,-68.28,-0.02,-9.78,-23.01,0.76,-12.12,Left Fall while Standing
12:56.8,508,501,751.5,908,305,2.35,424.79,1.49,155.85,299,780,126.87,778,16095,52540,3106,0.94,0.35,-0.02,-1.76,-1.7,1.06,19.65,-68.15,-0.14,-10.14,-22.83,0.65,-12.46,Left Fall while Standing
12:56.9,509,501,751.5,908,305,2.35,424.79,1.49,155.85,299,776,126.87,778,16095,64892,3882,0.95,0.33,-0.04,1.44,1.28,4.4,18.68,-69.03,0.06,-10.21,-22.31,0.81,-12.57,Left Fall while Standing
12:57.0,511,501,751.5,908,305,2.35,424.79,1.49,155.85,299,778,126.87,778,16095,80352,4660,0.94,0.33,-0.05,-1.21,5.28,1.55,18.55,-69.03,0,-9.89,-22.07,0.74,-12.25,Left Fall while Standing
12:57.1,421,499,748.5,908,306,2.34,426.78,1.5,155.85,299,777,126.87,778,16095,94257,5437,0.94,0.33,-0.06,0.99,15.21,6.16,18.66,-68.83,0.15,-8.58,-21.38,0.89,-10.99,Left Fall while Standing
12:57.2,383,497,745.5,908,306,2.34,426.78,1.5,155.85,299,777,126.87,778,16095,108162,6214,0.97,0.31,-0.02,-7.47,7.14,8.61,17.38,-70.42,-0.54,-8.06,-20.44,0.18,-10.56,Left Fall while Standing
12:57.3,441,496,744,908,306,2.34,426.78,1.5,155.85,299,776,126.87,778,16095,120514,6990,0.94,0.32,-0.01,-8.4,10.55,5.57,18.07,-69.76,-1.33,-7.2,-19.8,-0.56,-9.7,Left Fall while Standing
12:57.4,414,494,741,908,305,2.35,424.79,1.49,165.61,304,777,115.94,776,13440,0,0,0.95,0.29,0.03,-7.03,11.62,9.89,16.47,-71.3,-1.97,-6.26,-18.76,-1.23,-8.86,Left Fall while Standing
12:57.5,328,491,736.5,908,304,2.37,422.81,1.49,165.61,304,778,115.94,776,13440,15460,778,0.97,0.27,0.05,-9.53,-0.65,9.63,15.04,-72.54,-2.85,-6.52,-17.72,-2.14,-9.16,Left Fall while Standing
12:57.6,330,487,730.5,908,302,2.39,418.86,1.48,165.61,304,777,115.94,776,13440,29365,1555,0.98,0.25,0.07,-9.85,-13.05,14.59,13.91,-73.34,-3.79,-8.04,-16.17,-3.08,-10.65,Left Fall while Standing
12:57.7,285,484,726,908,300,2.41,414.94,1.47,165.61,304,782,115.94,776,13440,51065,2337,0.97,0.19,0.06,-4.6,-12.75,19.24,10.69,-76.58,-4.2,-9.52,-14.17,-3.6,-12.2,Left Fall while Standing
12:57.8,246,479,718.5,908,298,2.43,411.03,1.46,165.61,304,773,115.94,776,13440,58770,3110,0.98,0.16,0.03,0.65,-3.64,20.75,8.89,-78.74,-4.07,-10.09,-11.99,-3.56,-12.83,Left Fall while Standing
12:57.9,361,477,715.5,908,295,2.47,405.22,1.44,165.61,304,780,115.94,776,13440,77346,3890,0.96,0.14,0.01,-0.64,2.98,19.79,7.98,-79.82,-4.08,-9.99,-9.96,-3.6,-12.78,Left Fall while Standing
12:58.0,403,476,714,908,292,2.5,399.45,1.43,165.61,304,782,115.94,776,13440,99046,4672,1.01,0.11,0,-2.39,6.46,24.18,5.8,-82.04,-4.27,-9.54,-7.46,-3.86,-12.44,Left Fall while Standing
12:58.1,419,475,712.5,908,290,2.53,395.63,1.42,165.61,304,782,115.94,776,13440,120746,5454,0.98,0.03,0.01,-4.09,9.98,29.28,0.96,-86.82,-4.62,-8.74,-4.45,-4.4,-11.87,Left Fall while Standing
12:58.2,492,475,712.5,908,288,2.55,391.84,1.41,165.61,304,782,115.94,776,13440,142446,6236,1,-0.02,0.04,-9.62,5.02,39.71,-1.95,-85.8,-5.52,-8.44,-0.4,-5.38,-11.54,Left Fall while Standing
12:58.3,444,474,711,908,287,2.56,389.95,1.4,165.61,304,780,115.94,776,13440,161022,7016,1.08,-0.08,0.05,-7.8,3.86,21.24,-4.8,-83.56,-6.24,-8.26,1.78,-6.18,-11.27,Left Fall while Standing
12:58.4,351,472,708,908,285,2.59,386.18,1.39,144.91,294,780,134.01,779,17958,0,0,1.04,-0.11,0.05,-4.48,8.47,8.77,-6.46,-81.96,-6.63,-7.61,2.74,-6.63,-10.58,Left Fall while Standing
12:58.5,445,472,708,908,284,2.6,384.3,1.39,144.91,294,781,134.01,779,17958,20137,781,1.07,-0.14,0.07,-9.21,-3.5,3.36,-8.05,-80.14,-7.49,-8.16,3.15,-7.51,-11.04,Left Fall while Standing
12:58.6,456,471,706.5,908,284,2.6,384.3,1.39,144.91,294,779,134.01,779,17958,37154,1560,1.04,-0.12,0.05,-3.67,4.56,-4.42,-7.05,-81.34,-7.8,-7.9,2.79,-7.77,-10.84,Left Fall while Standing
12:58.7,358,470,705,908,284,2.6,384.3,1.39,144.91,294,778,134.01,779,17958,52614,2338,1.02,-0.11,0.09,-5.11,4.35,-8.4,-6.5,-80.7,-8.26,-7.67,2.02,-8.19,-10.59,Left Fall while Standing
12:58.8,395,468,702,908,283,2.61,382.43,1.38,144.91,294,782,134.01,779,17958,74314,3120,0.97,-0.09,0.04,-2.78,1.47,-9.38,-5.88,-82.55,-8.48,-7.72,1.17,-8.37,-10.71,Left Fall while Standing
12:58.9,514,469,703.5,908,284,2.6,384.3,1.39,144.91,294,790,134.01,779,17958,43054,3910,0.97,-0.06,0.08,0.85,0.18,-0.27,-3.97,-82.67,-8.34,-7.9,1.22,-8.16,-10.89,Left Fall while Standing
12:59.0,562,471,706.5,908,284,2.6,384.3,1.39,144.91,294,780,134.01,779,17958,61630,4690,0.98,-0.07,0.07,-2.24,-6.86,5.51,-4.54,-82.92,-8.51,-8.79,1.85,-8.35,-11.75,Left Fall while Standing
12:59.1,596,472,708,908,284,2.6,384.3,1.39,144.91,294,781,134.01,779,17958,81767,5471,1.02,-0.1,0.04,1.95,-11.84,11.5,-6.24,-82.38,-8.26,-10.16,3.07,-8.18,-13.04,Left Fall while Standing
12:59.2,590,474,711,908,284,2.6,384.3,1.39,144.91,294,780,134.01,779,17958,100343,6251,1.02,-0.14,0.04,1.02,-4.73,8.47,-8.35,-80.27,-8.1,-10.83,3.99,-8.11,-13.61,Left Fall while Standing
12:59.3,566,476,714,908,285,2.59,386.18,1.39,144.91,294,778,134.01,779,17958,115803,7029,1.03,-0.13,0.02,1.1,5.48,3.14,-8.02,-80.92,-7.93,-10.48,4.39,-7.93,-13.3,Left Fall while Standing
12:59.4,511,476,714,908,286,2.58,388.06,1.4,123.43,284,781,116.59,781,13593,0,0,1.03,-0.14,0.02,1.75,1.72,-1.43,-8.18,-80.75,-7.71,-10.51,4.33,-7.72,-13.32,Left Fall while Standing
13:02.6,553,553,829.5,553,293,2.49,401.37,1.43,0,0,777,0,0,0,37170,1560,0.98,-0.19,0.17,-3.73,1.76,-11.02,-11.25,-74.09,-0.28,-0.23,-1.95,-0.72,-3.18,Right Fall while Standing
13:02.6,564,558,837,564,290,2.53,395.63,1.42,0,0,780,0,0,0,55746,2340,0.97,-0.14,0.18,1.81,-1.24,-13.49,-8.76,-75.24,-0.05,-0.55,-3.19,-0.39,-3.54,Right Fall while Standing
13:02.7,549,555,832.5,564,288,2.55,391.84,1.41,0,0,777,0,0,0,69651,3117,0.91,-0.14,0.13,-2.66,2.27,-5.34,-9.16,-76.6,-0.25,-0.52,-3.63,-0.61,-3.56,Right Fall while Standing
13:02.8,941,651,976.5,941,286,2.58,388.06,1.4,0,0,777,0,0,0,83556,3894,0.94,-0.16,0.15,-8.08,-4.48,23.9,-10.03,-75.29,-0.99,-1.16,-1.21,-1.35,-4.12,Right Fall while Standing
13:02.9,508,623,934.5,941,284,2.6,384.3,1.39,0,0,781,0,0,0,103693,4675,1,-0.25,0.23,5.44,31.52,18.82,-14.27,-69.73,-0.39,1.77,0.73,-0.95,-1.09,Right Fall while Standing
13:03.0,490,600,900,941,283,2.61,382.43,1.38,0,0,781,0,0,0,123830,5456,1,-0.26,0.26,2.95,16.82,11.34,-14.78,-68.37,-0.05,3.2,1.9,-0.64,0.34,Right Fall while Standing
13:03.1,509,587,880.5,941,282,2.63,380.57,1.38,0,0,779,0,0,0,140847,6235,0.98,-0.25,0.23,-2.4,6.77,11.9,-14.35,-69.37,-0.23,3.67,3.14,-0.8,0.74,Right Fall while Standing
13:03.2,530,580,870,941,282,2.63,380.57,1.38,0,0,779,0,0,0,157864,7014,0.95,-0.3,0.25,-4.54,6.14,11.2,-17.34,-66.32,-0.63,4.08,4.32,-1.29,1.26,Right Fall while Standing
13:03.3,382,558,837,941,281,2.64,378.71,1.37,128.95,286,778,131.65,779,17331,0,0,0.92,-0.29,0.24,-9.41,0.61,10.22,-17.84,-66.09,-1.49,3.94,5.4,-2.15,1.14,Right Fall while Standing
13:03.4,436,546,819,941,280,2.65,376.85,1.37,128.95,286,777,131.65,779,17331,13905,777,0.9,-0.3,0.26,-7.08,6.53,11.76,-18.16,-64.79,-2.14,4.39,6.64,-2.78,1.62,Right Fall while Standing
13:03.5,614,552,828,941,280,2.65,376.85,1.37,128.95,286,779,131.65,779,17331,30922,1556,0.91,-0.34,0.25,-4.22,6.87,18.18,-20.68,-63.24,-2.5,4.88,8.54,-3.23,2.15,Right Fall while Standing
13:03.6,659,561,841.5,941,279,2.67,375,1.36,128.95,286,783,131.65,779,17331,54187,2339,0.92,-0.37,0.28,-3.83,-2.89,16.15,-21.63,-61.63,-2.83,4.39,10.22,-3.58,1.75,Right Fall while Standing
13:03.7,575,562,843,941,279,2.67,375,1.36,128.95,286,781,131.65,779,17331,74324,3120,0.95,-0.41,0.23,-1.05,-4.34,5.29,-23.32,-62.03,-2.88,3.76,10.82,-3.69,1.13,Right Fall while Standing
13:03.8,570,562,843,941,278,2.68,373.15,1.36,128.95,286,779,131.65,779,17331,91341,3899,0.92,-0.4,0.26,-2.23,10.41,-2.07,-23.41,-61.03,-3.05,4.61,10.69,-3.86,1.99,Right Fall while Standing
13:03.9,933,587,880.5,941,279,2.67,375,1.36,128.95,286,778,131.65,779,17331,106801,4677,0.88,-0.38,0.26,2.62,7.35,1.12,-23.28,-60.54,-2.73,5.14,10.88,-3.55,2.52,Right Fall while Standing
13:04.0,450,578,867,941,278,2.68,373.15,1.36,128.95,286,776,131.65,779,17331,119153,5453,0.84,-0.41,0.27,1.96,2.08,5.6,-25.68,-57.88,-2.48,5.15,11.51,-3.41,2.63,Right Fall while Standing
13:04.1,470,572,858,941,279,2.67,375,1.36,128.95,286,779,131.65,779,17331,136170,6232,0.85,-0.42,0.26,-4.44,-1.82,4.69,-25.95,-58.27,-2.87,4.77,12.06,-3.79,2.25,Right Fall while Standing
13:04.2,443,565,847.5,941,278,2.68,373.15,1.36,128.95,286,773,131.65,779,17331,143875,7005,0.86,-0.42,0.27,1.21,0.76,6.08,-25.83,-58.17,-2.69,4.64,12.75,-3.62,2.13,Right Fall while Standing
13:04.3,356,554,831,941,278,2.68,373.15,1.36,110.43,278,778,126.23,778,15932,0,0,0.85,-0.42,0.27,-3.21,1.82,5.4,-25.89,-57.8,-2.95,4.63,13.35,-3.87,2.13,Right Fall while Standing
13:04.4,356,544,816,941,278,2.68,373.15,1.36,110.43,278,778,126.23,778,15932,15460,778,0.85,-0.44,0.26,-3.55,-0.21,10.79,-27.08,-57.11,-3.25,4.41,14.51,-4.2,1.95,Right Fall while Standing
13:04.5,322,533,799.5,941,279,2.67,375,1.36,110.43,278,780,126.23,778,15932,34036,1558,0.86,-0.45,0.27,-7.87,-5.04,12.7,-27.31,-56.79,-3.97,3.71,15.85,-4.91,1.29,Right Fall while Standing
13:04.6,409,528,792,941,279,2.67,375,1.36,110.43,278,780,126.23,778,15932,52612,2338,0.85,-0.48,0.24,-5.69,-0.47,8.8,-29.34,-56,-4.48,3.47,16.8,-5.48,1.09,Right Fall while Standing
13:04.7,520,527,790.5,941,280,2.65,376.85,1.37,110.43,278,777,126.23,778,15932,66517,3115,0.81,-0.48,0.24,-5.39,5.44,14.76,-30.3,-54.66,-4.97,3.81,18.37,-5.98,1.47,Right Fall while Standing
13:04.8,570,529,793.5,941,281,2.64,378.71,1.37,110.43,278,780,126.23,778,15932,85093,3895,0.8,-0.53,0.24,-13.46,0.14,17.12,-32.8,-52.71,-6.25,3.63,20.14,-7.31,1.38,Right Fall while Standing
13:04.9,516,529,793.5,941,282,2.63,380.57,1.38,110.43,278,775,126.23,778,15932,95894,4670,0.82,-0.55,0.26,-7.5,-0.28,13.1,-33.21,-51.9,-6.94,3.4,21.53,-7.99,1.19,Right Fall while Standing
13:05.0,526,528,792,941,283,2.61,382.43,1.38,110.43,278,789,126.23,778,15932,128591,5459,0.82,-0.57,0.28,-0.59,-0.43,6.34,-33.99,-50.65,-6.94,3.16,22.24,-8.03,1.01,Right Fall while Standing
13:05.1,456,526,789,941,284,2.6,384.3,1.39,110.43,278,776,126.23,778,15932,140943,6235,0.8,-0.58,0.24,3.58,1.37,7.66,-35.2,-50.57,-6.53,3.1,23.09,-7.68,0.95,Right Fall while Standing
13:05.2,514,525,787.5,941,285,2.59,386.18,1.39,110.43,278,780,126.23,778,15932,159519,7015,0.79,-0.61,0.21,1.99,-0.37,8.32,-37.19,-49.21,-6.28,2.86,23.99,-7.51,0.78,Right Fall while Standing
13:05.3,533,526,789,941,286,2.58,388.06,1.4,117.58,281,778,132.28,779,17496,0,0,0.78,-0.61,0.24,-4.64,0.7,7.51,-37.27,-48.51,-6.68,2.73,24.81,-7.91,0.68,Right Fall while Standing
13:05.4,587,528,792,941,288,2.55,391.84,1.41,117.58,281,776,132.28,779,17496,12352,776,0.77,-0.62,0.26,-4.77,0.9,3.5,-37.88,-47.39,-7.1,2.62,25.24,-8.33,0.62,Right Fall while Standing
13:05.5,550,528,792,941,288,2.55,391.84,1.41,117.58,281,783,132.28,779,17496,35617,1559,0.77,-0.62,0.24,-3.15,0.79,0.27,-38.04,-47.57,-7.35,2.5,25.34,-8.58,0.5,Right Fall while Standing
13:05.6,474,527,790.5,941,289,2.54,393.73,1.41,117.58,281,775,132.28,779,17496,46418,2334,0.76,-0.62,0.24,0.22,1.12,0.92,-38.8,-47.01,-7.28,2.41,25.51,-8.54,0.44,Right Fall while Standing
13:05.7,518,526,789,941,290,2.53,395.63,1.42,117.58,281,778,132.28,779,17496,61878,3112,0.77,-0.63,0.24,-2.92,-1.14,0.54,-38.68,-47.14,-7.51,2.1,25.65,-8.76,0.13,Right Fall while Standing
13:05.8,503,526,789,941,292,2.5,399.45,1.43,117.58,281,778,132.28,779,17496,77338,3890,0.78,-0.63,0.24,-0.36,-0.63,-3.28,-38.27,-47.53,-7.49,1.84,25.4,-8.72,-0.13,Right Fall while Standing
13:05.9,474,524,786,941,293,2.49,401.37,1.43,117.58,281,776,132.28,779,17496,89690,4666,0.76,-0.62,0.22,-0.73,-0.24,-2.97,-38.39,-47.78,-7.51,1.62,25.18,-8.74,-0.36,Right Fall while Standing
13:06.0,566,525,787.5,941,294,2.48,403.29,1.44,117.58,281,778,132.28,779,17496,105150,5444,0.77,-0.62,0.22,-0.8,-1.08,-2.99,-38.03,-48.11,-7.53,1.31,24.96,-8.75,-0.66,Right Fall while Standing
13:06.1,527,525,787.5,941,295,2.47,405.22,1.44,117.58,281,783,132.28,779,17496,128415,6227,0.78,-0.61,0.23,-3.09,1.87,-3.66,-37.7,-48.37,-7.78,1.3,24.67,-8.98,-0.69,Right Fall while Standing
13:06.2,479,524,786,941,295,2.47,405.22,1.44,117.58,281,777,132.28,779,17496,142320,7004,0.78,-0.6,0.23,-5.05,2.19,-5.11,-36.97,-49.02,-8.24,1.32,24.24,-9.39,-0.7,Right Fall while Standing
13:06.3,518,524,786,941,297,2.44,409.09,1.45,140.69,292,778,125.61,778,15777,0,0,0.79,-0.6,0.23,-6.86,-2.6,-6.35,-36.69,-49.3,-8.85,0.87,23.69,-9.97,-1.14,Right Fall while Standing
13:06.4,468,522,783,941,297,2.44,409.09,1.45,140.69,292,780,125.61,778,15777,18576,780,0.83,-0.6,0.19,-5.4,-3.05,-12.31,-35.59,-51.32,-9.34,0.36,22.54,-10.39,-1.7,Right Fall while Standing
13:06.5,472,521,781.5,941,297,2.44,409.09,1.45,140.69,292,783,125.61,778,15777,41841,1563,0.78,-0.58,0.21,-4.71,5.75,-11.71,-36.39,-49.98,-9.76,0.74,21.44,-10.82,-1.29,Right Fall while Standing
13:06.6,430,519,778.5,941,298,2.43,411.03,1.46,140.69,292,778,125.61,778,15777,57301,2341,0.79,-0.56,0.22,-4.31,-3.21,-7.39,-34.84,-51.12,-10.13,0.23,20.78,-11.12,-1.83,Right Fall while Standing
13:06.7,747,524,786,941,298,2.43,411.03,1.46,140.69,292,783,125.61,778,15777,80566,3124,0.79,-0.56,0.2,-3.25,-1.82,-5.35,-34.96,-51.58,-10.4,-0.15,20.33,-11.38,-2.21,Right Fall while Standing
13:06.8,364,521,781.5,941,298,2.43,411.03,1.46,140.69,292,780,125.61,778,15777,99142,3904,0.8,-0.57,0.22,-4.72,-0.18,-2.56,-34.98,-51.12,-10.82,-0.38,20.15,-11.78,-2.41,Right Fall while Standing
13:06.9,430,519,778.5,941,298,2.43,411.03,1.46,140.69,292,778,125.61,778,15777,114602,4682,0.82,-0.57,0.22,-3.41,-3.42,-5.39,-34.44,-51.82,-11.11,-0.92,19.69,-12.04,-2.96,Right Fall while Standing
13:07.0,383,516,774,941,298,2.43,411.03,1.46,140.69,292,779,125.61,778,15777,131619,5461,0.82,-0.57,0.22,-0.79,-3.84,-11.66,-34.34,-51.85,-11.13,-1.51,18.6,-12.06,-3.52,Right Fall while Standing
13:07.1,457,514,771,941,299,2.42,412.98,1.46,140.69,292,779,125.61,778,15777,148636,6240,0.82,-0.53,0.2,4.57,-7.26,-14.8,-32.92,-53.63,-10.61,-2.44,17.18,-11.5,-4.49,Right Fall while Standing
13:07.2,435,513,769.5,941,298,2.43,411.03,1.46,140.69,292,777,125.61,778,15777,162541,7017,0.85,-0.51,0.18,3.04,-2.79,-12.8,-30.83,-56.13,-10.25,-2.93,15.97,-11.07,-5.05,Right Fall while Standing
13:07.3,463,512,768,941,299,2.42,412.98,1.46,152.54,298,776,132.25,779,17488,0,0,0.89,-0.48,0.17,1.48,-6.21,-16.15,-28.57,-58.66,-10.05,-3.74,14.45,-10.79,-5.93,Right Fall while Standing
13:07.4,453,511,766.5,941,299,2.42,412.98,1.46,152.54,298,777,132.25,779,17488,13905,777,0.88,-0.46,0.16,-3.47,-8.69,-19.07,-27.7,-59.47,-10.34,-4.82,12.6,-11.03,-7,Right Fall while Standing
13:07.5,492,510,765,941,299,2.42,412.98,1.46,152.54,298,777,132.25,779,17488,27810,1554,0.88,-0.43,0.13,-1.95,-1.6,-14.75,-26.43,-61.31,-10.48,-5.18,11.21,-11.12,-7.42,Right Fall while Standing
13:07.6,504,510,765,941,299,2.42,412.98,1.46,152.54,298,777,132.25,779,17488,41715,2331,0.92,-0.42,0.16,1.28,2.02,-11.47,-24.66,-62.59,-10.29,-5.18,10.14,-10.87,-7.47,Right Fall while Standing
13:07.7,496,510,765,941,299,2.42,412.98,1.46,152.54,298,775,132.25,779,17488,52516,3106,0.93,-0.4,0.13,1.19,0.5,-12.2,-23.54,-64.23,-10.12,-5.33,8.99,-10.65,-7.68,Right Fall while Standing
13:07.8,477,509,763.5,941,299,2.42,412.98,1.46,152.54,298,780,132.25,779,17488,71092,3886,0.93,-0.38,0.14,-3.01,4.44,-15.14,-22.66,-64.82,-10.36,-5.08,7.55,-10.85,-7.47,Right Fall while Standing
13:07.9,372,507,760.5,941,299,2.42,412.98,1.46,152.54,298,774,132.25,779,17488,80344,4660,0.91,-0.35,0.18,-1.72,2.6,-13.92,-21.1,-65.19,-10.48,-5.02,6.23,-10.9,-7.43,Right Fall while Standing
13:08.0,429,505,757.5,941,300,2.41,414.94,1.47,152.54,298,777,132.25,779,17488,94249,5437,0.95,-0.35,0.17,-1.34,0.25,-17.64,-20.44,-66.34,-10.56,-5.2,4.54,-10.95,-7.64,Right Fall while Standing
13:08.1,440,504,756,941,300,2.41,414.94,1.47,152.54,298,777,132.25,779,17488,108154,6214,0.97,-0.32,0.18,-2.18,-7.85,-29.07,-18.4,-67.81,-10.72,-6.18,1.71,-11.02,-8.65,Right Fall while Standing
13:08.2,491,504,756,941,300,2.41,414.94,1.47,152.54,298,779,132.25,779,17488,125171,6993,1,-0.26,0.16,1.37,-0.62,-35.83,-15.19,-71.33,-10.52,-6.45,-1.83,-10.71,-9.04,Right Fall while Standing
13:08.3,497,504,756,941,301,2.4,416.9,1.47,155.45,299,787,124.38,778,15470,0,0,1.01,-0.19,0.14,4.9,14.37,-32.89,-11.4,-74.9,-9.98,-5.22,-5,-10.04,-8.01,Right Fall while Standing
13:08.4,511,504,756,941,301,2.4,416.9,1.47,155.45,299,775,124.38,778,15470,10801,775,0.89,-0.11,0.11,-4.76,21.55,-23.5,-7.74,-78.44,-10.4,-3.27,-7.27,-10.3,-6.27,Right Fall while Standing
13:08.5,763,508,762,941,301,2.4,416.9,1.47,155.45,299,771,124.38,778,15470,15418,1546,0.91,-0.09,0.23,-13.36,-25.44,-0.37,-6.01,-73.43,-11.69,-6.04,-7.23,-11.47,-8.73,Right Fall while Standing
13:08.6,494,508,762,941,302,2.39,418.86,1.48,155.45,299,781,124.38,778,15470,35555,2327,0.96,-0.14,0.17,-4.18,-12.89,6.37,-8.97,-75.32,-12.06,-7.53,-6.52,-11.93,-10.24,Right Fall while Standing
13:08.7,551,509,763.5,941,302,2.39,418.86,1.48,155.45,299,779,124.38,778,15470,52572,3106,1.01,-0.17,0.17,-1.81,-11.7,0.85,-10.03,-75.21,-12.18,-8.9,-6.35,-12.1,-11.55,Right Fall while Standing
13:08.8,513,509,763.5,941,302,2.39,418.86,1.48,155.45,299,779,124.38,778,15470,69589,3885,1.04,-0.19,0.12,3.19,-11.79,-10.14,-10.75,-76.17,-11.8,-10.3,-7.31,-11.76,-12.94,Right Fall while Standing
13:08.9,444,508,762,941,303,2.38,420.83,1.48,155.45,299,778,124.38,778,15470,85049,4663,1.02,-0.14,0.09,-2.76,-16.97,-16.83,-8.4,-79.06,-12.02,-12.2,-8.91,-11.87,-14.88,Right Fall while Standing
13:09.0,344,505,757.5,941,303,2.38,420.83,1.48,155.45,299,772,124.38,778,15470,91209,5435,1.01,-0.12,0.06,3.18,-12.95,-15.01,-7.57,-80.57,-11.64,-13.71,-10.35,-11.48,-16.39,Right Fall while Standing
13:09.1,613,507,760.5,941,304,2.37,422.81,1.49,155.45,299,772,124.38,778,15470,97369,6207,1,-0.08,0.05,4.71,-5.76,-19.85,-5.14,-82.93,-11.11,-14.5,-12.27,-10.87,-17.23,Right Fall while Standing
13:09.2,255,503,754.5,941,305,2.35,424.79,1.49,155.45,299,782,124.38,778,15470,119069,6989,1,-0.04,0.01,7.02,-1.89,-11.91,-2.78,-86.19,-10.35,-14.89,-13.39,-10.04,-17.74,Right Fall while Standing
13:09.3,247,499,748.5,941,304,2.37,422.81,1.49,161.53,302,778,115.98,776,13451,0,0,1.02,0,0.01,7.47,12.37,-6.78,-0.73,-88.09,-9.55,-13.86,-13.99,-9.2,-16.83,Right Fall while Standing
13:09.4,248,496,744,941,305,2.35,424.79,1.49,161.53,302,781,115.98,776,13451,20137,781,1.01,0.01,-0.01,0.86,0.31,-8.36,0.07,-87.7,-9.41,-14.03,-14.75,-9.03,-16.98,Right Fall while Standing
13:09.5,197,491,736.5,941,305,2.35,424.79,1.49,161.53,302,775,115.98,776,13451,30938,1556,1.02,0.03,0,-5.84,-6.37,-9.7,0.89,-86.94,-9.93,-14.87,-15.64,-9.5,-17.75,Right Fall while Standing
13:09.6,125,486,729,941,305,2.35,424.79,1.49,161.53,302,778,115.98,776,13451,46398,2334,0.99,0.02,-0.01,-10.15,4.32,-13.9,0.36,-87.42,-10.9,-14.64,-16.97,-10.45,-17.55,Right Fall while Standing
13:09.7,334,484,726,941,306,2.34,426.78,1.5,161.53,302,787,115.98,776,13451,75943,3121,0.98,0.04,0.02,-7.44,12.58,-13.15,1.83,-85.8,-11.59,-13.58,-18.2,-11.05,-16.47,Right Fall while Standing
13:09.8,185,480,720,941,307,2.33,428.77,1.5,161.53,302,774,115.98,776,13451,85195,3895,0.99,0.08,0.04,-14.64,5.34,-10.31,4.01,-83.19,-13,-13.25,-19.15,-12.32,-16.04,Right Fall while Standing
13:09.9,234,477,715.5,941,307,2.33,428.77,1.5,161.53,302,775,115.98,776,13451,95996,4670,1,0.07,0.08,-9.16,4.97,-2.73,3.27,-82.29,-13.88,-12.94,-19.35,-13.19,-15.72,Right Fall while Standing
13:10.0,214,473,709.5,941,308,2.32,430.77,1.51,161.53,302,779,115.98,776,13451,113013,5449,1,0.06,0.09,-13.43,-12.27,-0.89,2.89,-82.19,-15.16,-14.37,-19.36,-14.44,-17.08,Right Fall while Standing
13:10.1,287,471,706.5,941,308,2.32,430.77,1.51,161.53,302,773,115.98,776,13451,120718,6222,0.98,0.07,0.08,-3.08,-7.5,1.02,3.64,-82.28,-15.41,-15.32,-19.18,-14.65,-18,Right Fall while Standing
13:10.2,256,468,702,941,308,2.32,430.77,1.51,161.53,302,779,115.98,776,13451,137735,7001,1.01,0.07,0.03,1.05,-6.53,6.81,3.14,-84.26,-15.25,-16.19,-18.41,-14.52,-18.91,Right Fall while Standing
13:10.3,190,465,697.5,941,308,2.32,430.77,1.51,168.91,306,781,125.65,778,15786,0,0,1.03,0.02,0.01,3.99,-7.58,4.33,0.77,-86.93,-14.81,-17.13,-17.9,-14.18,-19.92,Right Fall while Standing
13:10.4,105,460,690,941,309,2.31,432.77,1.51,168.91,306,781,125.65,778,15786,20137,781,1.02,0.02,0,3.33,-7.21,0.23,0.31,-87.52,-14.42,-18.05,-17.8,-13.83,-20.83,Right Fall while Standing
13:10.5,330,455,682.5,941,309,2.31,432.77,1.51,168.91,306,782,125.65,778,15786,41837,1563,1.01,0.02,-0.01,2.91,2.35,-0.52,0.41,-87.22,-14.07,-18.01,-17.78,-13.49,-20.78,Right Fall while Standing
13:10.6,330,449,673.5,941,309,2.31,432.77,1.51,168.91,306,779,125.65,778,15786,58854,2342,1,0.04,-0.04,0.77,-0.5,3.06,1.52,-85.47,-13.94,-18.26,-17.39,-13.32,-20.95,Right Fall while Standing
13:13.7,941,941,1411.5,941,312,2.28,438.82,1.52,0,0,780,0,0,0,43408,1564,1,-0.03,-0.02,-5.28,0.42,-0.22,-2.38,-86.42,-0.49,-0.03,0.32,-0.56,-3.49,Forward Fall while Standing
13:13.8,999,970,1455,999,312,2.28,438.82,1.52,0,0,784,0,0,0,68240,2348,1.01,-0.05,0.02,-6.95,1.65,-0.35,-3.42,-85.44,-1.11,-0.07,0.36,-1.2,-3.48,Forward Fall while Standing
13:13.9,1000,980,1470,1000,312,2.28,438.82,1.52,0,0,782,0,0,0,89940,3130,1.05,-0.05,0.02,-6.75,1.31,-3.76,-3.23,-85.52,-1.71,-0.13,0.07,-1.77,-3.55,Forward Fall while Standing
13:14.0,1000,985,1477.5,1000,313,2.27,440.85,1.53,0,0,783,0,0,0,113205,3913,1.04,-0.04,0.01,-5.4,3.68,-2.32,-2.74,-86.21,-2.19,0.03,-0.08,-2.21,-3.42,Forward Fall while Standing
13:14.1,1001,988,1482,1001,313,2.27,440.85,1.53,0,0,788,0,0,0,144325,4701,1.03,-0.02,-0.04,-4.54,-5.98,-3.08,-1.97,-85.86,-2.58,-0.76,-0.31,-2.56,-4.16,Forward Fall while Standing
13:14.2,1001,990,1485,1001,313,2.27,440.85,1.53,0,0,782,0,0,0,166025,5483,1.03,-0.03,0.01,-15.29,-20.12,-10.23,-2.28,-86.69,-4.03,-2.93,-1.23,-3.96,-6.28,Forward Fall while Standing
13:14.3,1001,991,1486.5,1001,313,2.27,440.85,1.53,0,0,783,0,0,0,189290,6266,1,-0.01,-0.05,-3.34,-2.91,-7.6,-1.43,-85.18,-4.3,-3.41,-1.91,-4.19,-6.68,Forward Fall while Standing
13:14.4,1000,992,1488,1001,313,2.27,440.85,1.53,0,0,783,0,0,0,212555,7049,1.01,-0.03,-0.02,-4.63,-1.34,-2.66,-2.08,-86.55,-4.71,-3.75,-2.09,-4.6,-7.06,Forward Fall while Standing
13:14.5,1001,993,1489.5,1001,313,2.27,440.85,1.53,179.57,312,781,152.54,783,23268,0,0,1.02,-0.01,-0.03,-2.96,0.21,0.96,-0.99,-86.58,-4.94,-3.92,-1.92,-4.79,-7.23,Forward Fall while Standing
13:14.6,1001,994,1491,1001,314,2.26,442.88,1.53,179.57,312,780,152.54,783,23268,18576,780,1.02,-0.01,-0.05,0.31,5.11,-3.51,-1.28,-85.71,-4.86,-3.61,-2.19,-4.71,-6.9,Forward Fall while Standing
13:14.7,1000,995,1492.5,1001,314,2.26,442.88,1.53,179.57,312,782,152.54,783,23268,40276,1562,0.99,-0.02,-0.06,-10.09,-4.81,-0.01,-1.8,-84.8,-5.82,-4.3,-2.11,-5.66,-7.52,Forward Fall while Standing
13:14.8,1001,995,1492.5,1001,315,2.25,444.92,1.54,179.57,312,780,152.54,783,23268,58852,2342,1,-0.04,-0.07,-16.14,-17.34,0.76,-3.1,-83.44,-7.38,-6.24,-1.96,-7.21,-9.32,Forward Fall while Standing
13:14.9,1000,995,1492.5,1001,314,2.26,442.88,1.53,179.57,312,782,152.54,783,23268,80552,3124,1.04,-0.02,-0.08,-15.88,-19.4,-5.75,-1.57,-83.97,-8.91,-8.37,-2.45,-8.62,-11.4,Forward Fall while Standing
13:15.0,1000,996,1494,1001,314,2.26,442.88,1.53,179.57,312,781,152.54,783,23268,100689,3905,1.02,0,-0.1,-5.78,-22.9,-6.15,-0.61,-82.98,-9.44,-10.91,-3,-9.09,-13.8,Forward Fall while Standing
13:15.1,1000,996,1494,1001,315,2.25,444.92,1.54,179.57,312,783,152.54,783,23268,123954,4688,0.99,0.01,-0.15,-7.77,-35.02,0.18,-0.13,-79.98,-10.17,-14.65,-2.9,-9.77,-17.27,Forward Fall while Standing
13:15.2,1001,996,1494,1001,315,2.25,444.92,1.54,179.57,312,784,152.54,783,23268,148786,5472,0.99,-0.01,-0.2,4.42,-41.69,2.49,-1.05,-76.9,-9.66,-19.11,-2.57,-9.32,-21.42,Forward Fall while Standing
13:15.3,1000,996,1494,1001,315,2.25,444.92,1.54,179.57,312,781,152.54,783,23268,168923,6253,0.98,-0.01,-0.35,5.61,-48.95,4.78,-0.98,-68.62,-9.04,-24.26,-2.01,-8.72,-26.03,Forward Fall while Standing
13:15.4,999,997,1495.5,1001,316,2.24,446.96,1.54,179.57,312,779,152.54,783,23268,185940,7032,0.94,-0.06,-0.37,6.14,-35.19,4.16,-4.17,-66.46,-8.37,-27.98,-1.51,-8.2,-29.52,Forward Fall while Standing
13:15.5,993,996,1494,1001,316,2.24,446.96,1.54,20723.53,314,781,143.55,781,20606,0,0,0.92,-0.04,-0.54,11.02,-5.02,-1.15,-2.63,-58.12,-7.2,-28.69,-1.55,-7.02,-29.86,Forward Fall while Standing
13:15.6,999,996,1494,1001,316,2.24,446.96,1.54,20723.53,314,779,143.55,781,20606,17017,779,0.91,-0.05,-0.56,-7.27,-39.18,9.3,-3.24,-56.65,-7.87,-32.8,-0.54,-7.69,-33.76,Forward Fall while Standing
13:15.7,1000,997,1495.5,1001,316,2.24,446.96,1.54,20723.53,314,839,143.55,781,20606,42,1618,0.94,-0.07,-0.59,-6.34,-43.25,9.97,-4.41,-56.04,-8.45,-37.37,0.55,-8.29,-38.12,Forward Fall while Standing
13:15.8,994,996,1494,1001,316,2.24,446.96,1.54,20723.53,314,809,143.55,781,20606,4294966459,2427,0.91,-0.09,-0.62,3.81,-2.26,-0.62,-5.51,-53.84,-8.01,-37.81,0.56,-7.91,-38.45,Forward Fall while Standing
13:15.9,983,996,1494,1001,317,2.23,449.01,1.55,20723.53,314,782,143.55,781,20606,20863,3209,0.86,-0.07,-0.65,0.11,-8.6,5.34,-4.42,-51.4,-7.94,-38.88,1.18,-7.8,-39.38,Forward Fall while Standing
13:16.0,910,992,1488,1001,317,2.23,449.01,1.55,20723.53,314,781,143.55,781,20606,41000,3990,0.86,-0.1,-0.6,-5.28,-10.96,3.88,-5.98,-53.05,-8.41,-40.17,1.65,-8.32,-40.69,Forward Fall while Standing
13:16.1,995,992,1488,1001,317,2.23,449.01,1.55,20723.53,314,773,143.55,781,20606,48705,4763,0.85,-0.1,-0.63,-3.59,-9.03,1.37,-5.77,-51.44,-8.72,-41.29,1.87,-8.6,-41.69,Forward Fall while Standing
13:16.2,927,990,1485,1001,318,2.22,451.06,1.55,20723.53,314,777,143.55,781,20606,62610,5540,0.85,-0.09,-0.67,-1.94,-4.53,-2.05,-5.51,-50.02,-8.86,-41.95,1.74,-8.72,-42.27,Forward Fall while Standing
13:16.3,949,988,1482,1001,317,2.23,449.01,1.55,20723.53,314,693,143.55,781,20606,84107,6233,0.82,-0.1,-0.62,3.85,1.91,-0.79,-6.22,-50.96,-8.41,-41.96,1.74,-8.32,-42.32,Forward Fall while Standing
13:16.4,911,985,1477.5,1001,317,2.23,449.01,1.55,20723.53,314,790,143.55,781,20606,52847,7023,0.83,-0.11,-0.64,2.39,-4.1,5.01,-6.51,-50.16,-8.11,-42.57,2.33,-8.05,-42.88,Forward Fall while Standing
13:16.5,878,982,1473,1001,318,2.22,451.06,1.55,20723.56,316,782,86.34,780,7453,0,0,0.84,-0.12,-0.67,-0.16,-3.95,4.74,-6.93,-49.53,-8.08,-43.16,2.87,-8.03,-43.42,Forward Fall while Standing
13:16.6,906,979,1468.5,1001,318,2.22,451.06,1.55,20723.56,316,782,86.34,780,7453,21700,782,0.92,-0.13,-0.73,-0.43,-0.46,3.88,-7.05,-49.6,-8.06,-43.41,3.34,-8.02,-43.66,Forward Fall while Standing
13:16.7,842,975,1462.5,1001,318,2.22,451.06,1.55,20723.56,316,779,86.34,780,7453,38717,1561,0.84,-0.14,-0.66,0.44,5.53,1.69,-7.85,-49.73,-7.96,-43.05,3.59,-7.96,-43.32,Forward Fall while Standing
13:16.8,868,971,1456.5,1001,318,2.22,451.06,1.55,20723.56,316,778,86.34,780,7453,54177,2339,0.85,-0.15,-0.66,-1.02,-1.96,0.64,-8.4,-49.8,-8.01,-43.44,3.73,-8.02,-43.7,Forward Fall while Standing
13:16.9,822,967,1450.5,1001,318,2.22,451.06,1.55,20723.56,316,775,86.34,780,7453,64978,3114,0.84,-0.14,-0.67,-3.21,2.69,-2.49,-8.24,-49.05,-8.28,-43.37,3.56,-8.27,-43.6,Forward Fall while Standing
13:17.0,848,963,1444.5,1001,318,2.22,451.06,1.55,20723.56,316,781,86.34,780,7453,85115,3895,0.84,-0.13,-0.63,0.06,5.73,-2.63,-7.73,-50.94,-8.21,-43,3.38,-8.19,-43.32,Forward Fall while Standing
13:17.1,885,961,1441.5,1001,318,2.22,451.06,1.55,20723.56,316,779,86.34,780,7453,102132,4674,0.85,-0.14,-0.67,1.41,5.74,-1.84,-7.74,-49.88,-8.02,-42.63,3.27,-8.01,-42.92,Forward Fall while Standing
13:17.2,998,962,1443,1001,318,2.22,451.06,1.55,20723.56,316,778,86.34,780,7453,117592,5452,0.85,-0.14,-0.63,-0.77,12.25,-2.36,-8.34,-51.33,-8.04,-41.59,3.11,-8.05,-41.98,Forward Fall while Standing
13:17.3,986,963,1444.5,1001,318,2.22,451.06,1.55,20723.56,316,780,86.34,780,7453,136168,6232,0.86,-0.13,-0.61,-4.37,9.69,-1.13,-7.82,-52.32,-8.42,-40.82,3.08,-8.4,-41.28,Forward Fall while Standing
13:17.4,950,962,1443,1001,318,2.22,451.06,1.55,20723.56,316,778,86.34,780,7453,151628,7010,0.87,-0.13,-0.59,-2.66,7.98,-1.28,-7.84,-53.58,-8.63,-40.22,3.03,-8.6,-40.75,Forward Fall while Standing
13:17.5,840,959,1438.5,1001,318,2.22,451.06,1.55,20723.58,318,780,130.46,779,17019,0,0,0.86,-0.14,-0.59,-1.58,6.43,-1.15,-8.38,-53.11,-8.73,-39.77,2.99,-8.72,-40.31,Forward Fall while Standing
13:17.6,842,956,1434,1001,317,2.23,449.01,1.55,20723.58,318,780,130.46,779,17019,18576,780,0.88,-0.13,-0.59,-1.89,3.73,-0.5,-7.6,-54.15,-8.87,-39.6,3.02,-8.82,-40.18,Forward Fall while Standing
13:17.7,786,952,1428,1001,317,2.23,449.01,1.55,20723.58,318,780,130.46,779,17019,37152,1560,0.88,-0.13,-0.6,-3.53,1.27,-2.49,-7.76,-53.49,-9.17,-39.68,2.85,-9.11,-40.23,Forward Fall while Standing
13:17.8,782,948,1422,1001,317,2.23,449.01,1.55,20723.58,318,780,130.46,779,17019,55728,2340,0.89,-0.14,-0.61,-3.35,3.27,-2.79,-7.84,-53.36,-9.45,-39.55,2.65,-9.38,-40.1,Forward Fall while Standing
13:17.9,809,945,1417.5,1001,317,2.23,449.01,1.55,20723.58,318,779,130.46,779,17019,72745,3119,0.88,-0.13,-0.58,-3.01,4.64,-3.88,-7.83,-54.24,-9.69,-39.28,2.34,-9.62,-39.88,Forward Fall while Standing
13:18.0,778,941,1411.5,1001,317,2.23,449.01,1.55,20723.58,318,778,130.46,779,17019,88205,3897,0.87,-0.12,-0.56,-0.79,6.8,-3.84,-7.43,-55.12,-9.72,-38.79,2.03,-9.63,-39.45,Forward Fall while Standing
13:18.1,804,938,1407,1001,317,2.23,449.01,1.55,20723.58,318,780,130.46,779,17019,106781,4677,0.88,-0.12,-0.57,0.19,12.33,-1.11,-7.05,-54.94,-9.64,-37.76,2,-9.54,-38.45,Forward Fall while Standing
13:18.2,791,935,1402.5,1001,317,2.23,449.01,1.55,20723.58,318,779,130.46,779,17019,123798,5456,0.88,-0.12,-0.55,1.31,13.27,-1.23,-7.17,-55.95,-9.45,-36.62,1.95,-9.36,-37.4,Forward Fall while Standing
13:18.3,784,932,1398,1001,317,2.23,449.01,1.55,20723.58,318,784,130.46,779,17019,148630,6240,0.91,-0.12,-0.53,-0.44,10.26,0.72,-7.28,-57.58,-9.44,-35.78,2.11,-9.35,-36.65,Forward Fall while Standing
13:18.4,786,929,1393.5,1001,317,2.23,449.01,1.55,20723.58,318,781,130.46,779,17019,168767,7021,0.93,-0.14,-0.52,-1.1,12.98,0.63,-8.02,-58.45,-9.49,-34.68,2.25,-9.44,-35.63,Forward Fall while Standing
13:18.5,855,927,1390.5,1001,318,2.22,451.06,1.55,20723.57,317,782,138.01,780,19045,0,0,0.95,-0.15,-0.5,-1.93,19.98,-1.89,-8.39,-59.93,-9.63,-32.89,2.14,-9.58,-33.97,Forward Fall while Standing
13:18.6,878,926,1389,1001,317,2.23,449.01,1.55,20723.57,317,781,138.01,780,19045,20137,781,0.95,-0.12,-0.45,2.76,37.22,-2.8,-7.15,-62.17,-9.3,-29.33,1.94,-9.21,-30.64,Forward Fall while Standing
13:18.7,822,924,1386,1001,318,2.22,451.06,1.55,20723.57,317,785,138.01,780,19045,46538,1566,0.9,-0.12,-0.36,-2.89,25.64,-2.51,-7.75,-65.54,-9.53,-26.94,1.76,-9.46,-28.48,Forward Fall while Standing
13:18.8,823,922,1383,1001,317,2.23,449.01,1.55,20723.57,317,609,138.01,780,19045,24203,2175,0.96,-0.14,-0.32,-0.51,4.67,3.19,-8.32,-68.28,-9.53,-26.67,2.16,-9.48,-28.34,Forward Fall while Standing
13:18.9,925,922,1383,1001,317,2.23,449.01,1.55,20723.57,317,773,138.01,780,19045,31908,2948,0.98,-0.16,-0.33,6.93,18.24,1.08,-9.55,-68,-8.77,-25.03,2.35,-8.8,-26.75,Forward Fall while Standing
13:19.0,993,923,1384.5,1001,317,2.23,449.01,1.55,20723.57,317,804,138.01,780,19045,22964,3752,1,-0.16,-0.31,9.11,27.54,4.53,-9.3,-69.2,-7.79,-22.45,2.89,-7.86,-24.32,Forward Fall while Standing
13:19.1,999,925,1387.5,1001,317,2.23,449.01,1.55,20723.57,317,373,138.01,780,19045,31021,4125,1,-0.17,-0.3,-0.82,11.14,4.76,-9.65,-69.56,-7.82,-21.53,3.45,-7.89,-23.45,Forward Fall while Standing
13:19.2,1000,926,1389,1001,317,2.23,449.01,1.55,20723.57,317,795,138.01,780,19045,7686,4920,1,-0.18,-0.26,-0.67,10.42,-0.34,-10.55,-71.04,-7.83,-20.69,3.49,-7.94,-22.7,Forward Fall while Standing
13:19.3,1000,927,1390.5,1001,317,2.23,449.01,1.55,20723.57,317,781,138.01,780,19045,27823,5701,1.02,-0.18,-0.25,-3.81,6.84,-1.38,-10.22,-71.72,-8.16,-20.2,3.43,-8.24,-22.26,Forward Fall while Standing
13:19.4,1000,929,1393.5,1001,317,2.23,449.01,1.55,20723.57,317,808,138.01,780,19045,25327,6509,1.01,-0.18,-0.25,-2.82,2.17,0.66,-10.42,-71.55,-8.39,-20.18,3.58,-8.47,-22.24,Forward Fall while Standing
13:19.5,1000,930,1395,1001,317,2.23,449.01,1.55,20723.57,317,819,63.81,732,4071,0,0,1,-0.2,-0.22,-0.93,7.32,-2.45,-11.65,-72.06,-8.43,-19.66,3.42,-8.56,-21.75,Forward Fall while Standing
13:19.6,175,917,1375.5,1001,291,2.52,397.54,1.42,20723.57,317,0,63.81,732,4071,0,0,0.98,-0.19,-0.2,2.02,19.6,2.15,-11.47,-72.74,-8.17,-17.91,3.71,-8.3,-20.11,Forward Fall while Standing
13:19.7,330,902,1353,1001,261,2.92,342.52,1.28,20723.57,317,0,63.81,732,4071,0,0,0.99,-0.19,-0.18,0.69,19.5,2.29,-11.22,-73.74,-8.05,-16.18,4.01,-8.18,-18.48,Forward Fall while Standing
13:27.9,677,677,1015.5,677,233,3.39,294.94,1.14,0,0,84,0,0,0,13945,167,1.01,-0.09,-0.09,-0.21,11.89,-4.95,-5.84,-81.24,0.02,1.7,-0.69,-0.22,-1.62,Sitting
13:28.0,520,598,897,677,231,3.43,291.67,1.13,0,0,83,0,0,0,20834,250,1.01,-0.09,-0.03,-7.79,0.94,-1.5,-5.63,-83.14,-0.68,1.6,-0.76,-0.88,-1.79,Sitting
13:28.1,487,561,841.5,677,229,3.47,288.41,1.12,0,0,84,0,0,0,27890,334,1.02,-0.09,-0.02,-3.76,0.36,-3.44,-5.58,-83.27,-1,1.44,-1.02,-1.18,-1.95,Sitting
13:28.2,140,456,684,677,227,3.51,285.18,1.11,0,0,85,0,0,0,35115,419,1.03,-0.1,-0.01,3.92,4.96,-4.48,-6.21,-82.77,-0.56,1.73,-1.38,-0.78,-1.65,Sitting
13:28.3,330,364,546,677,224,3.57,280.35,1.09,0,0,84,0,0,0,42171,503,1.01,-0.07,-0.09,-1.97,-6.68,-4.34,-4.35,-81.97,-0.69,0.88,-1.72,-0.84,-2.43,Sitting
13:28.4,330,304,456,677,220,3.65,273.97,1.08,0,0,85,0,0,0,49396,588,1.04,-0.08,-0.03,-2.76,-0.12,-1.85,-4.9,-83.73,-0.91,0.68,-1.83,-1.07,-2.7,Sitting
13:28.5,330,260,390,677,216,3.74,267.66,1.06,0,0,85,0,0,0,56621,673,1.03,-0.1,-0.03,2.28,11.98,0.8,-6,-82.8,-0.63,1.65,-1.67,-0.85,-1.73,Sitting
13:28.6,330,228,342,677,213,3.8,262.96,1.04,0,0,83,0,0,0,63510,756,1.02,-0.08,-0.03,2.21,6.75,-2.82,-4.94,-83.76,-0.36,2.11,-1.87,-0.54,-1.32,Sitting
13:28.7,330,202,303,677,209,3.89,256.76,1.02,20723.93,223,85,84.1,84,7072,0,0,1.03,-0.08,0,3.47,-1.39,-3.47,-5.11,-83.88,0.03,1.78,-2.13,-0.17,-1.64,Sitting
13:28.8,330,182,273,677,206,3.97,252.14,1.01,20723.93,223,85,84.1,84,7072,7225,85,1,-0.06,-0.03,1.34,1.72,-2.58,-3.78,-84.74,0.22,1.76,-2.31,0.06,-1.7,Sitting
13:28.9,330,165,247.5,677,203,4.04,247.56,0.99,20723.93,223,85,84.1,84,7072,14450,170,1.02,-0.07,-0.04,3.96,0.58,-2.85,-4.71,-83.83,0.66,1.62,-2.51,0.45,-1.8,Sitting
13:29.0,330,152,228,677,200,4.11,243.01,0.98,20723.93,223,85,84.1,84,7072,21675,255,0.99,-0.05,-0.03,2.85,2.78,-2.18,-3.6,-84.88,1,1.69,-2.65,0.82,-1.77,Sitting
13:29.1,330,140,210,677,198,4.17,240,0.97,20723.93,223,85,84.1,84,7072,28900,340,1.01,-0.04,-0.04,4.23,2.18,-0.63,-2.74,-85.34,1.47,1.71,-2.63,1.3,-1.77,Sitting
13:29.2,440,161,241.5,677,197,4.19,238.5,0.96,20723.93,223,87,84.1,84,7072,36469,427,1,-0.05,-0.02,0.28,-0.37,-0.08,-3.24,-85.47,1.55,1.48,-2.56,1.36,-2,Sitting
13:29.3,989,216,324,989,196,4.22,237,0.96,20723.93,223,86,84.1,84,7072,43865,513,1.02,-0.06,-0.04,-0.83,6.68,0.19,-3.98,-84.48,1.53,1.95,-2.46,1.31,-1.51,Sitting
13:29.4,1001,265,397.5,1001,195,4.25,235.51,0.95,20723.93,223,87,84.1,84,7072,51434,600,1.03,-0.07,0,-1.92,4.08,-1.57,-4.28,-84.72,1.39,2.15,-2.54,1.17,-1.32,Sitting
13:29.5,1001,309,463.5,1001,194,4.27,234.02,0.95,20723.93,223,88,84.1,84,7072,59178,688,1.02,-0.06,-0.01,-2.83,5.87,-2.87,-3.96,-85,1.17,2.53,-2.75,0.96,-0.97,Sitting
13:29.6,1001,347,520.5,1001,194,4.27,234.02,0.95,20723.93,223,89,84.1,84,7072,67099,777,1.06,-0.03,-0.03,-5.19,7.39,-1.11,-2.39,-85.81,0.7,3.07,-2.78,0.58,-0.48,Sitting
13:29.7,1001,381,571.5,1001,193,4.3,232.53,0.94,20723.66,197,89,86.61,86,7501,0,0,1.02,-0.05,0.03,-6.51,2.39,1.08,-3.36,-85.18,0.12,3.11,-2.59,-0.02,-0.42,Sitting
13:29.8,1001,412,618,1001,192,4.33,231.05,0.94,20723.66,197,89,86.61,86,7501,7921,89,1.04,-0.05,0.05,4.33,-3.92,-2.88,-3.24,-84.75,0.61,2.53,-2.8,0.45,-0.97,Sitting
13:29.9,1001,440,660,1001,192,4.33,231.05,0.94,20723.66,197,90,86.61,86,7501,16021,179,1.02,-0.06,-0.01,-0.79,2.12,-6.48,-3.94,-85.01,0.58,2.54,-3.37,0.4,-0.96,Sitting
13:30.0,1001,466,699,1001,192,4.33,231.05,0.94,20723.66,197,90,86.61,86,7501,24121,269,0.99,-0.07,0.01,-4.11,3.2,-8.3,-4.89,-84.06,0.23,2.66,-4.11,0.03,-0.81,Sitting
13:30.1,1001,489,733.5,1001,193,4.3,232.53,0.94,20723.66,197,91,86.61,86,7501,32402,360,1.02,-0.03,0,-9.44,0.38,-6.18,-2.18,-86.82,-0.64,2.5,-4.64,-0.7,-1.07,Sitting
13:30.2,1001,510,765,1001,193,4.3,232.53,0.94,20723.66,197,92,86.61,86,7501,40866,452,0.99,-0.02,0.01,-9.63,2.92,-0.57,-1.79,-86.94,-1.55,2.59,-4.62,-1.56,-0.99,Sitting
13:30.3,1001,530,795,1001,194,4.27,234.02,0.95,20723.66,197,92,86.61,86,7501,49330,544,1,-0.04,0.02,-7.95,3.44,2.43,-2.97,-85.75,-2.29,2.73,-4.3,-2.31,-0.81,Sitting
13:30.4,1001,548,822,1001,194,4.27,234.02,0.95,20723.66,197,92,86.61,86,7501,57794,636,1.03,-0.05,0.06,-3.47,-1.32,-3.49,-3.53,-83.77,-2.57,2.4,-4.57,-2.61,-1.04,Sitting
13:30.5,1001,565,847.5,1001,194,4.27,234.02,0.95,20723.66,197,93,86.61,86,7501,66443,729,1.02,-0.03,0.02,-0.8,0.47,-7.59,-2.02,-86.54,-2.6,2.25,-5.25,-2.58,-1.3,Sitting
13:30.6,1001,580,870,1001,194,4.27,234.02,0.95,20723.66,197,93,86.61,86,7501,75092,822,1.01,-0.02,0.02,-2.46,1.92,-2.75,-1.81,-86.56,-2.79,2.24,-5.44,-2.75,-1.31,Sitting
13:30.7,1001,595,892.5,1001,194,4.27,234.02,0.95,20723.62,193,93,91.51,91,8373,0,0,1.01,-0.01,0,-6.66,0.85,0.15,-1.02,-87.97,-3.38,2.13,-5.35,-3.29,-1.47,Sitting
13:30.8,1001,608,912,1001,194,4.27,234.02,0.95,20723.62,193,93,91.51,91,8373,8649,93,0.99,-0.02,0.04,-2.85,-0.45,-0.54,-1.58,-85.86,-3.61,1.89,-5.32,-3.53,-1.62,Sitting
13:30.9,1001,621,931.5,1001,194,4.27,234.02,0.95,20723.62,193,94,91.51,91,8373,17485,187,1,-0.02,0.03,0.43,0.17,-0.34,-1.53,-86.56,-3.52,1.71,-5.28,-3.44,-1.83,Sitting
13:31.0,1001,633,949.5,1001,193,4.3,232.53,0.94,20723.62,193,95,91.51,91,8373,26510,282,1.03,-0.02,-0.01,-3.92,-0.4,0.05,-1.75,-87.13,-3.85,1.47,-5.2,-3.76,-2.08,Sitting
13:31.1,1001,644,966,1001,194,4.27,234.02,0.95,20723.62,193,95,91.51,91,8373,35535,377,1.04,-0.02,-0.01,-6.98,-1.32,-6.04,-1.62,-87.16,-4.48,1.14,-5.72,-4.37,-2.39,Sitting
13:31.2,1001,655,982.5,1001,194,4.27,234.02,0.95,20723.62,193,96,91.51,91,8373,44751,473,1.01,-0.01,0.01,-5.91,5.31,-9.69,-1.15,-87.54,-5.02,1.47,-6.62,-4.87,-2.09,Sitting
13:31.3,1001,664,996,1001,195,4.25,235.51,0.95,20723.62,193,96,91.51,91,8373,53967,569,0.99,-0.01,0.03,-4.36,9.26,-8.08,-1.02,-86.4,-5.4,2.19,-7.34,-5.23,-1.35,Sitting
13:31.4,996,674,1011,1001,196,4.22,237,0.96,20723.62,193,97,91.51,91,8373,63376,666,1,0.02,0.02,-0.84,5.36,-1.63,0.5,-86.82,-5.43,2.52,-7.42,-5.19,-1.05,Sitting
13:31.5,1000,682,1023,1001,197,4.19,238.5,0.96,20723.62,193,98,91.51,91,8373,72980,764,1.02,-0.01,0.05,-3.6,2.34,-0.57,-0.99,-85.38,-5.73,2.56,-7.4,-5.54,-0.96,Sitting
13:31.6,847,687,1030.5,1001,196,4.22,237,0.96,20723.62,193,98,91.51,91,8373,82584,862,1.05,-0.01,0.04,-0.05,2.47,-3.89,-1.17,-85.96,-5.68,2.61,-7.71,-5.5,-0.94,Sitting
13:31.7,761,689,1033.5,1001,195,4.25,235.51,0.95,20723.64,194,98,96.01,96,9217,0,0,1.04,0.02,0.02,-6.98,0.44,-8.47,0.29,-87.19,-6.31,2.45,-8.46,-6.05,-1.13,Sitting
13:31.8,549,685,1027.5,1001,194,4.27,234.02,0.95,20723.64,194,98,96.01,96,9217,9604,98,0.99,0.04,0.03,-6.9,1.87,-3.18,1.62,-85.54,-6.95,2.44,-8.7,-6.6,-1.08,Sitting
13:31.9,453,679,1018.5,1001,192,4.33,231.05,0.94,20723.64,194,97,96.01,96,9217,19013,195,1.01,0.04,0.05,-4.05,1.05,3.66,1.42,-85.04,-7.29,2.35,-8.26,-6.94,-1.15,Sitting
13:32.0,400,673,1009.5,1001,190,4.38,228.09,0.93,20723.64,194,97,96.01,96,9217,28422,292,1.06,0,0.02,-2.58,1.05,-1.05,-0.62,-87.55,-7.49,2.25,-8.29,-7.21,-1.34,Sitting
13:32.1,853,677,1015.5,1001,189,4.41,226.62,0.92,20723.64,194,98,96.01,96,9217,38026,390,1.06,0,0,-2.69,11.85,-10.58,-0.54,-88.18,-7.7,3.24,-9.27,-7.41,-0.42,Sitting
13:32.2,598,675,1012.5,1001,187,4.47,223.68,0.91,20723.64,194,98,96.01,96,9217,47630,488,0.99,0.06,0.08,-12.56,19.1,-11.88,2.71,-82.67,-8.9,4.95,-10.38,-8.44,1.44,Sitting
13:32.3,612,674,1011,1001,187,4.47,223.68,0.91,20723.64,194,99,96.01,96,9217,57431,587,0.94,0.06,0.23,-8.12,16.56,-2.05,2.79,-74.61,-9.65,6.39,-10.5,-9.15,3.15,Sitting
13:32.4,547,671,1006.5,1001,185,4.53,220.76,0.9,20723.64,194,98,96.01,96,9217,67035,685,0.97,0.04,0.23,17.21,6.4,5.89,1.65,-75.02,-7.87,6.83,-9.83,-7.49,3.56,Sitting
13:32.5,552,668,1002,1001,185,4.53,220.76,0.9,20723.64,194,99,96.01,96,9217,76836,784,1.01,0.04,0.1,13.27,-0.95,0.61,1.52,-82.51,-6.52,6.54,-9.7,-6.2,2.98,Sitting
13:32.6,551,666,999,1001,185,4.53,220.76,0.9,20723.64,194,97,96.01,96,9217,86245,881,1.04,0.04,0.04,-3.69,-0.24,-8,1.39,-85.43,-6.83,6.32,-10.41,-6.5,2.65,Sitting
13:32.7,480,662,993,1001,184,4.56,219.31,0.9,20723.57,187,102,98.31,98,9663,0,0,1.01,0.09,0.09,-15.52,1.05,-7.21,4.38,-81.43,-8.31,6.22,-11.05,-7.8,2.72,Sitting
13:32.8,440,658,987,1001,185,4.53,220.76,0.9,20723.57,187,98,98.31,98,9663,9604,98,0.93,0.06,0.17,-11.84,6.46,1.09,3.19,-77.62,-9.41,6.66,-10.86,-8.91,3.29,Sitting
13:32.9,473,654,981,1001,185,4.53,220.76,0.9,20723.57,187,98,98.31,98,9663,19208,196,0.99,0.05,0.15,3.34,-1.82,7.76,2.33,-79.05,-9.03,6.28,-10.01,-8.57,2.87,Sitting
13:33.0,368,649,973.5,1001,186,4.5,222.22,0.91,20723.57,187,99,98.31,98,9663,29009,295,1.07,0.03,0.09,6.32,-9.69,3.05,1.27,-83.03,-8.35,5.13,-9.63,-7.96,1.6,Sitting
13:33.1,330,643,964.5,1001,186,4.5,222.22,0.91,20723.57,187,99,98.31,98,9663,38810,394,0.99,0.04,0.11,-4.8,-8.83,-7.82,1.79,-81.43,-8.77,4.05,-10.33,-8.34,0.63,Sitting
13:33.2,248,635,952.5,1001,186,4.5,222.22,0.91,20723.57,187,100,98.31,98,9663,48810,494,0.98,0.05,0.12,10.38,-6.66,0.07,2.59,-80.55,-7.68,3.2,-10.25,-7.27,-0.15,Sitting
13:33.3,145,626,939,1001,188,4.44,225.15,0.92,20723.57,187,100,98.31,98,9663,58810,594,1.01,0.05,0.07,-1.63,-24.81,7.59,2.28,-83.68,-7.79,0.54,-9.42,-7.39,-2.83,Sitting
13:33.4,187,618,927,1001,189,4.41,226.62,0.92,20723.57,187,101,98.31,98,9663,69011,695,1.06,0.02,-0.02,21.97,3.09,-1.2,0.46,-86.81,-5.56,0.65,-9.46,-5.32,-2.85,Sitting
13:33.5,285,613,919.5,1001,191,4.36,229.57,0.93,20723.57,187,102,98.31,98,9663,79415,797,1.08,0,0.06,-3.34,1.63,-4.47,-0.43,-85.11,-5.83,0.61,-9.82,-5.62,-2.82,Sitting
13:33.6,248,606,909,1001,192,4.33,231.05,0.94,20723.57,187,103,98.31,98,9663,90024,900,1,0.03,-0.04,-12.6,3.09,-8.15,1.36,-85.47,-7.04,0.72,-10.56,-6.7,-2.73,Sitting
13:33.7,217,600,900,1001,194,4.27,234.02,0.95,20723.58,188,106,100.63,100,10125,0,0,1,0.04,0.04,-2.73,9.92,-9.16,1.75,-85.31,-7.25,1.51,-11.39,-6.89,-1.97,Sitting
13:33.8,143,592,888,1001,196,4.22,237,0.96,20723.58,188,106,100.63,100,10125,11236,106,1.02,0.05,0.08,-18.98,-14.21,-3.57,2.34,-83.15,-9.1,-0.12,-11.66,-8.64,-3.44,Sitting
13:33.9,86,584,876,1001,197,4.19,238.5,0.96,20723.58,188,104,100.63,100,10125,22052,210,0.99,0.05,0.05,6.73,-3.67,-8.64,2.54,-84.19,-8.37,-0.68,-12.45,-7.93,-4.02,Sitting
13:34.0,185,577,865.5,1001,197,4.19,238.5,0.96,20723.58,188,103,100.63,100,10125,32661,313,0.96,0.02,0.04,5.98,-7.5,-6.45,0.46,-85.65,-7.71,-1.63,-13.02,-7.39,-4.99,Sitting
13:34.1,193,571,856.5,1001,198,4.17,240,0.97,20723.58,188,104,100.63,100,10125,43477,417,0.98,0.13,-0.09,9.13,2.46,-13.21,6.96,-79.26,-6.74,-1.59,-14.26,-6.2,-4.69,Sitting
13:34.2,263,566,849,1001,198,4.17,240,0.97,20723.58,188,105,100.63,100,10125,54502,522,0.97,0.13,-0.05,-6.92,1.69,2.95,7.16,-80.18,-7.39,-1.62,-13.88,-6.8,-4.76,Sitting
13:34.3,316,563,844.5,1001,199,4.14,241.5,0.97,20723.58,188,106,100.63,100,10125,65738,628,1.03,0.08,-0.02,-8.06,8.63,6,4.07,-83.6,-8.13,-0.96,-13.21,-7.64,-4.27,Sitting
13:34.4,341,559,838.5,1001,200,4.11,243.01,0.98,20723.58,188,107,100.63,100,10125,77187,735,1.06,0.08,0,-12.34,1.65,-6.05,3.5,-84.34,-9.31,-1,-13.73,-8.79,-4.33,Sitting
13:34.5,336,556,834,1001,201,4.09,244.53,0.98,20723.58,188,107,100.63,100,10125,88636,842,0.98,0.11,-0.01,0.79,5.15,-9.26,5.79,-82.03,-9.17,-0.68,-14.59,-8.57,-3.93,Sitting
13:34.6,430,554,831,1001,202,4.06,246.04,0.99,20723.58,188,108,100.63,100,10125,100300,950,0.98,0.13,0.04,-3.51,-5.22,-2.38,7.25,-80.23,-9.46,-1.39,-14.75,-8.79,-4.55,Sitting
13:34.7,398,552,828,1001,203,4.04,247.56,0.99,20723.68,199,108,105.81,105,11195,0,0,1,0.11,-0.02,-0.8,-5.96,2.69,5.74,-82.01,-9.49,-2.18,-14.4,-8.88,-5.37,Sitting
13:34.8,429,550,825,1001,205,3.99,250.61,1,20723.68,199,110,105.81,105,11195,12100,110,1.02,0.1,-0.01,1.08,-4.65,0.02,5.02,-82.76,-9.32,-2.85,-14.32,-8.75,-6.05,Sitting
13:34.9,342,547,820.5,1001,206,3.97,252.14,1.01,20723.68,199,110,105.81,105,11195,24200,220,1.01,0.1,-0.03,-1.79,-1.48,-3.16,4.99,-82.65,-9.44,-3.2,-14.56,-8.87,-6.38,Sitting
13:35.0,764,550,825,1001,207,3.94,253.68,1.01,20723.68,199,110,105.81,105,11195,36300,330,1,0.11,-0.01,-2.02,-0.44,-1.57,5.98,-81.85,-9.59,-3.44,-14.64,-8.97,-6.58,Sitting
13:35.1,344,547,820.5,1001,208,3.92,255.21,1.02,20723.68,199,110,105.81,105,11195,48400,440,1,0.11,-0.03,-4.03,-0.98,-0.23,5.9,-81.65,-9.94,-3.75,-14.58,-9.31,-6.86,Sitting
13:35.2,375,545,817.5,1001,209,3.89,256.76,1.02,20723.68,199,110,105.81,105,11195,60500,550,1.01,0.11,-0.05,-1.21,1.5,-0.54,5.41,-81.83,-10.01,-3.8,-14.55,-9.39,-6.92,Sitting
13:35.3,351,542,813,1001,210,3.87,258.3,1.03,20723.68,199,111,105.81,105,11195,72821,661,1,0.11,-0.03,-1.36,1.47,-1.72,5.49,-82.18,-10.09,-3.85,-14.65,-9.46,-6.98,Sitting
13:35.4,392,540,810,1001,210,3.87,258.3,1.03,20723.68,199,111,105.81,105,11195,85142,772,1,0.11,-0.03,-4.8,-1.27,-0.01,5.95,-81.62,-10.51,-4.18,-14.57,-9.86,-7.28,Sitting
13:35.5,400,538,807,1001,211,3.85,259.85,1.03,20723.68,199,111,105.81,105,11195,97463,883,1.01,0.11,-0.03,-3.13,1.96,2.92,5.39,-82.24,-10.77,-4.18,-14.19,-10.13,-7.3,Sitting
13:35.6,289,535,802.5,1001,212,3.83,261.41,1.04,20723.68,199,112,105.81,105,11195,110007,995,1.03,0.08,-0.02,-3.54,0.69,2.34,4.1,-83.6,-11.07,-4.31,-13.88,-10.46,-7.48,Sitting
13:35.7,406,534,801,1001,212,3.83,261.41,1.04,20723.78,209,112,110.7,110,12254,0,0,1.02,0.08,-0.04,-4.26,-0.15,-2.97,4.11,-83.21,-11.44,-4.53,-14.1,-10.82,-7.67,Sitting
13:35.8,455,533,799.5,1001,213,3.8,262.96,1.04,20723.78,209,113,110.7,110,12254,12769,113,0.99,0.1,-0.04,-3.52,0.56,-2.79,5.09,-82.36,-11.74,-4.67,-14.3,-11.06,-7.78,Sitting
13:35.9,434,531,796.5,1001,214,3.78,264.52,1.05,20723.78,209,113,110.7,110,12254,25538,226,1.01,0.1,-0.04,-2.37,-0.06,0.91,5.24,-82.17,-11.92,-4.88,-14.13,-11.23,-7.97,Sitting
13:36.0,470,531,796.5,1001,215,3.76,266.09,1.05,20723.78,209,113,110.7,110,12254,38307,339,1.03,0.1,-0.04,-2.75,-1.82,0.88,5.01,-82.39,-12.14,-5.26,-13.96,-11.45,-8.35,Sitting
13:36.1,417,529,793.5,1001,216,3.74,267.66,1.06,20723.78,209,114,110.7,110,12254,51303,453,1.02,0.09,-0.04,-1.83,-1.51,0.52,4.35,-82.94,-12.27,-5.61,-13.83,-11.6,-8.71,Sitting
13:36.2,457,528,792,1001,217,3.71,269.23,1.06,20723.78,209,114,110.7,110,12254,64299,567,1.02,0.09,-0.05,-4.46,-2.58,1.17,4.64,-82.43,-12.66,-6.08,-13.63,-11.97,-9.13,Sitting
13:36.3,481,528,792,1001,218,3.69,270.81,1.07,20723.78,209,115,110.7,110,12254,77524,682,1.01,0.07,-0.05,-2.76,-0.01,1.58,3.46,-83.41,-12.88,-6.28,-13.39,-12.23,-9.36,Sitting
13:36.4,489,527,790.5,1001,219,3.67,272.39,1.07,20723.78,209,115,110.7,110,12254,90749,797,1.02,0.07,-0.06,-2.85,1.58,-0.4,3.58,-83.19,-13.11,-6.32,-13.36,-12.44,-9.39,Sitting
13:36.5,470,527,790.5,1001,220,3.65,273.97,1.08,20723.78,209,115,110.7,110,12254,103974,912,1.02,0.08,-0.05,-2.25,2.23,-3.33,3.74,-83.32,-13.28,-6.29,-13.61,-12.6,-9.38,Sitting
13:36.6,504,526,789,1001,221,3.63,275.56,1.08,20723.78,209,115,110.7,110,12254,117199,1027,1.01,0.08,-0.05,-1.76,0.75,-2.47,3.87,-83.14,-13.4,-6.42,-13.78,-12.71,-9.49,Sitting
13:36.7,473,526,789,1001,221,3.63,275.56,1.08,20723.86,217,116,114.3,114,13064,0,0,1,0.09,-0.05,-0.74,1.08,-0.15,4.43,-82.68,-13.42,-6.51,-13.72,-12.7,-9.56,Sitting
13:36.8,465,525,787.5,1001,223,3.59,278.75,1.09,20723.86,217,116,114.3,114,13064,13456,116,1.03,0.07,-0.04,-1.13,0.81,0.37,3.21,-83.95,-13.48,-6.63,-13.6,-12.81,-9.72,Sitting
13:36.9,529,525,787.5,1001,223,3.59,278.75,1.09,20723.86,217,116,114.3,114,13064,26912,232,1.03,0.07,-0.03,-2.02,-0.35,-5.48,3.25,-84.18,-13.62,-6.87,-14.07,-12.95,-9.96,Sitting
13:37.0,542,525,787.5,1001,225,3.55,281.95,1.1,20723.86,217,117,114.3,114,13064,40601,349,1.01,0.09,-0.05,-0.53,-2.49,-5.44,4.73,-82.41,-13.62,-7.32,-14.54,-12.88,-10.32,Sitting
13:37.1,556,526,789,1001,225,3.55,281.95,1.1,20723.86,217,117,114.3,114,13064,54290,466,1,0.1,-0.06,-2.27,-4.4,-0.54,5.32,-81.46,-13.79,-7.97,-14.51,-13.03,-10.91,Sitting
13:37.2,528,526,789,1001,226,3.53,283.56,1.1,20723.86,217,117,114.3,114,13064,67979,583,1.01,0.09,-0.09,-1.61,-2.08,1.04,4.26,-81.54,-13.9,-8.38,-14.33,-13.17,-11.3,Sitting
13:37.3,809,529,793.5,1001,226,3.53,283.56,1.1,20723.86,217,118,114.3,114,13064,81903,701,1.02,0.09,-0.08,-2.79,1.45,-1.61,4.23,-81.99,-14.12,-8.43,-14.41,-13.39,-11.37,Sitting
13:37.4,437,528,792,1001,227,3.51,285.18,1.11,20723.86,217,118,114.3,114,13064,95827,819,1.01,0.09,-0.07,-2.4,3.33,-2.12,4.5,-82.14,-14.31,-8.3,-14.55,-13.56,-11.25,Sitting
13:37.5,469,527,790.5,1001,228,3.49,286.79,1.11,20723.86,217,118,114.3,114,13064,109751,937,1.01,0.09,-0.04,-2.27,0.98,-1.08,4.7,-82.56,-14.48,-8.4,-14.58,-13.71,-11.37,Sitting
13:37.6,417,526,789,1001,228,3.49,286.79,1.11,20723.86,217,117,114.3,114,13064,123440,1054,1.02,0.09,-0.05,-1.73,-1.74,-0.83,4.46,-82.59,-14.6,-8.78,-14.58,-13.84,-11.73,Sitting
13:37.7,381,525,787.5,1001,229,3.47,288.41,1.12,20723.95,226,117,117.1,117,13711,0,0,1.02,0.09,-0.07,-2.05,-1.03,-0.54,4.44,-82.15,-14.75,-9.08,-14.56,-13.98,-12,Sitting
13:37.8,347,523,784.5,1001,229,3.47,288.41,1.12,20723.95,226,118,117.1,117,13711,13924,118,1.01,0.08,-0.08,-2.67,0.44,-1.89,3.97,-81.99,-14.96,-9.24,-14.67,-14.2,-12.15,Sitting
13:37.9,378,520,780,1001,230,3.45,290.04,1.12,20723.95,226,118,117.1,117,13711,27848,236,1.01,0.1,-0.07,-1.58,1.37,-1.94,5.11,-81.45,-15.06,-9.3,-14.78,-14.25,-12.19,Sitting
13:38.0,323,518,777,1001,231,3.43,291.67,1.13,20723.95,226,118,117.1,117,13711,41772,354,1.01,0.09,-0.08,-1.84,0.26,-0.4,4.65,-81.69,-15.19,-9.48,-14.74,-14.4,-12.37,Sitting
13:38.1,366,517,775.5,1001,231,3.43,291.67,1.13,20723.95,226,119,117.1,117,13711,55933,473,1.02,0.09,-0.07,-1.92,-0.36,-1.49,4.39,-82.1,-15.33,-9.71,-14.81,-14.54,-12.61,Sitting
13:38.2,336,519,778.5,1001,232,3.41,293.3,1.13,20723.95,226,118,117.1,117,13711,69857,591,1,0.1,-0.09,-2.35,-0.72,-1.67,5.16,-80.85,-15.51,-9.99,-14.9,-14.68,-12.83,Sitting
13:38.3,362,522,783,1001,232,3.41,293.3,1.13,20723.95,226,118,117.1,117,13711,83781,709,1,0.1,-0.1,-2.68,-1.44,-0.49,5.1,-80.36,-15.72,-10.34,-14.87,-14.89,-13.14,Sitting
13:38.4,351,526,789,1001,233,3.39,294.94,1.14,20723.95,226,119,117.1,117,13711,97942,828,1.02,0.08,-0.09,-2.43,-0.21,-0.35,4.11,-81.34,-15.91,-10.56,-14.83,-15.11,-13.39,Sitting
13:38.5,383,530,795,1001,234,3.37,296.58,1.14,20723.95,226,119,117.1,117,13711,112103,947,1.02,0.09,-0.07,-0.67,1.32,-1.89,4.27,-82.07,-15.92,-10.63,-14.94,-15.11,-13.48,Sitting
13:38.6,438,534,801,1001,234,3.37,296.58,1.14,20723.95,226,119,117.1,117,13711,126264,1066,1.01,0.08,-0.08,-1.96,0.7,-0.89,4.06,-81.76,-16.06,-10.76,-14.95,-15.26,-13.6,Sitting
13:38.7,478,539,808.5,1001,234,3.37,296.58,1.14,20724.02,232,119,118.5,118,14041,0,0,1.01,0.09,-0.09,-1.5,1.73,-0.7,4.59,-81.22,-16.16,-10.78,-14.94,-15.33,-13.6,Sitting
13:38.8,479,543,814.5,1001,234,3.37,296.58,1.14,20724.02,232,119,118.5,118,14041,14161,119,1.02,0.09,-0.09,-2.76,0.05,-1.87,4.28,-81.56,-16.38,-10.98,-15.05,-15.55,-13.8,Sitting
13:38.9,502,548,822,1001,235,3.35,298.22,1.15,20724.02,232,120,118.5,118,14041,28561,239,1,0.09,-0.09,-2.08,2.03,-0.12,4.62,-81.15,-16.53,-10.98,-14.98,-15.68,-13.78,Sitting
13:39.0,511,554,831,1001,236,3.33,299.87,1.15,20724.02,232,121,118.5,118,14041,43202,360,1.02,0.09,-0.09,-1.52,2.17,-0.99,4.39,-81.17,-16.63,-10.96,-15,-15.79,-13.77,Sitting
13:39.1,486,558,837,1001,236,3.33,299.87,1.15,20724.02,232,120,118.5,118,14041,57602,480,1.01,0.09,-0.09,-1.44,2.4,-1.27,4.45,-81.42,-16.72,-10.92,-15.05,-15.87,-13.74,Sitting
13:39.2,501,559,838.5,1001,236,3.33,299.87,1.15,20724.02,232,120,118.5,118,14041,72002,600,1.01,0.08,-0.06,-1.44,1.75,-0.1,4.02,-82.57,-16.8,-10.95,-14.98,-15.97,-13.81,Sitting
13:39.3,448,554,831,1001,237,3.32,301.53,1.16,20724.02,232,120,118.5,118,14041,86402,720,1.01,0.08,-0.09,-2.37,1.14,0.18,4,-81.65,-16.99,-11.03,-14.88,-16.15,-13.86,Sitting
13:39.4,433,548,822,1001,237,3.32,301.53,1.16,20724.02,232,120,118.5,118,14041,100802,840,1.01,0.08,-0.06,-1.4,2.52,-1.97,3.76,-82.74,-17.07,-10.98,-15,-16.24,-13.85,Sitting
13:39.5,427,542,813,1001,238,3.3,303.18,1.16,20724.02,232,120,118.5,118,14041,115202,960,1.01,0.09,-0.06,-1.48,1.82,-2.11,4.76,-82.11,-17.17,-11,-15.13,-16.29,-13.84,Sitting
13:39.6,796,540,810,1001,239,3.28,304.85,1.17,20724.02,232,122,118.5,118,14041,130086,1082,1.01,0.09,-0.08,-1.21,0.93,-0.06,4.68,-81.56,-17.23,-11.11,-15.06,-16.36,-13.93,Sitting
13:39.7,465,535,802.5,1001,239,3.28,304.85,1.17,20724.08,236,121,120.3,120,14471,0,0,1.02,0.08,-0.06,-1.88,0.9,-0.85,3.85,-82.71,-17.36,-11.22,-15.06,-16.51,-14.08,Sitting
13:39.8,502,530,795,1001,239,3.28,304.85,1.17,20724.08,236,121,120.3,120,14471,14641,121,1.02,0.09,-0.07,-2.18,1.55,-1.34,4.18,-82.38,-17.53,-11.26,-15.12,-16.66,-14.11,Sitting
13:39.9,456,524,786,1001,239,3.28,304.85,1.17,20724.08,236,121,120.3,120,14471,29282,242,1.01,0.09,-0.07,-2.85,0.95,-1.49,4.34,-82.03,-17.76,-11.37,-15.19,-16.87,-14.2,Sitting
13:40.0,494,519,778.5,1001,240,3.26,306.51,1.17,20724.08,236,121,120.3,120,14471,43923,363,1.02,0.09,-0.08,-2.46,0.08,-0.92,4.55,-81.72,-17.95,-11.56,-15.2,-17.05,-14.37,Sitting
13:40.1,459,514,771,1001,240,3.26,306.51,1.17,20724.08,236,121,120.3,120,14471,58564,484,1.02,0.09,-0.09,-2.24,0.58,-0.76,4.17,-81.69,-18.12,-11.71,-15.2,-17.23,-14.51,Sitting
13:40.2,399,508,762,1001,240,3.26,306.51,1.17,20724.08,236,121,120.3,120,14471,73205,605,1.02,0.09,-0.08,-0.92,1.77,-1.6,4.67,-81.43,-18.16,-11.73,-15.28,-17.24,-14.52,Sitting
13:40.3,465,503,754.5,1001,241,3.24,308.18,1.18,20724.08,236,121,120.3,120,14471,87846,726,1.01,0.1,-0.08,-3.9,-0.43,-0.4,5.01,-81.34,-18.49,-11.97,-15.24,-17.55,-14.75,Sitting
13:40.4,512,498,747,1001,241,3.24,308.18,1.18,20724.08,236,121,120.3,120,14471,102487,847,1.02,0.09,-0.08,-2.89,1.56,-0.51,4.2,-81.7,-18.73,-12.02,-15.21,-17.81,-14.81,Sitting
13:40.5,541,493,739.5,1001,242,3.23,309.86,1.18,20724.08,236,123,120.3,120,14471,117616,970,1.02,0.09,-0.07,-2.41,1.2,-1.42,4.27,-82.15,-18.92,-12.1,-15.28,-17.99,-14.9,Sitting
13:40.6,577,489,733.5,1001,243,3.21,311.54,1.19,20724.08,236,121,120.3,120,14471,132257,1091,1.02,0.08,-0.06,-1.95,1.37,-0.88,4.13,-82.5,-19.06,-12.16,-15.29,-18.13,-14.98,Sitting
13:40.7,527,484,726,1001,243,3.21,311.54,1.19,20724.12,240,121,121.2,121,14688,0,0,1.01,0.08,-0.08,-1.31,-0.4,-2.12,3.95,-82.07,-19.13,-12.41,-15.42,-18.21,-15.19,Sitting
13:40.8,508,479,718.5,1001,244,3.19,313.22,1.19,20724.12,240,122,121.2,121,14688,14884,122,1.02,0.09,-0.08,-1.05,-0.02,-3.1,4.42,-81.58,-19.18,-12.61,-15.65,-18.24,-15.37,Sitting
13:40.9,549,475,712.5,1001,244,3.19,313.22,1.19,20724.12,240,122,121.2,121,14688,29768,244,1,0.09,-0.09,-0.53,-0.08,-2.37,4.8,-81.07,-19.18,-12.82,-15.81,-18.22,-15.55,Sitting
13:44.1,996,996,1494,996,241,3.24,308.18,1.18,0,0,122,0,0,0,29768,244,1.03,0.05,-0.06,-1.16,1.87,-2.05,2.25,-83.98,-0.07,0.03,-0.05,0.02,-3.33,Left Fall while Sitting
13:44.2,999,997,1495.5,999,240,3.26,306.51,1.17,0,0,122,0,0,0,44652,366,1.06,0.05,-0.03,0.31,3.65,-9.15,1.98,-85.36,0.01,0.19,-0.86,0.09,-3.23,Left Fall while Sitting
13:44.3,1000,998,1497,1000,240,3.26,306.51,1.17,0,0,121,0,0,0,59293,487,0.99,0.1,-0.08,-5.76,3.08,-13.31,5.37,-80.87,-0.49,0.29,-2.07,-0.26,-2.95,Left Fall while Sitting
13:44.4,1001,999,1498.5,1001,239,3.28,304.85,1.17,0,0,121,0,0,0,73934,608,0.96,0.13,-0.04,-1.99,1.91,1.19,6.99,-80.42,-0.63,0.29,-1.88,-0.33,-2.94,Left Fall while Sitting
13:44.5,1000,999,1498.5,1001,239,3.28,304.85,1.17,0,0,122,0,0,0,88818,730,1.01,0.09,-0.06,-3.86,-0.63,9.43,4.62,-82.28,-0.96,0.03,-0.88,-0.73,-3.26,Left Fall while Sitting
13:44.6,1000,999,1498.5,1001,239,3.28,304.85,1.17,0,0,121,0,0,0,103459,851,1.05,0.05,-0.06,0.93,2.79,4.27,2.01,-84.28,-0.81,0.11,-0.38,-0.7,-3.27,Left Fall while Sitting
13:44.7,1000,999,1498.5,1001,239,3.28,304.85,1.17,0,0,122,0,0,0,118343,973,1.06,0.04,-0.04,-1.42,1.76,-10.67,1.72,-85.28,-0.9,0.08,-1.34,-0.79,-3.33,Left Fall while Sitting
13:44.8,1000,999,1498.5,1001,239,3.28,304.85,1.17,0,0,122,0,0,0,133227,1095,0.97,0.11,-0.05,-3.27,-0.95,-11.32,5.9,-81.31,-1.16,-0.21,-2.38,-0.88,-3.45,Left Fall while Sitting
13:44.9,928,991,1486.5,1001,240,3.26,306.51,1.17,20724.11,239,122,121.7,121,14810,0,0,1.01,0.11,-0.08,0.44,-0.14,-2.99,5.84,-80.69,-1.06,-0.42,-2.6,-0.79,-3.63,Left Fall while Sitting
13:45.0,854,977,1465.5,1001,240,3.26,306.51,1.17,20724.11,239,122,121.7,121,14810,14884,122,1.05,0.1,-0.02,-1.03,2.36,-5.05,5.09,-82.62,-1.11,-0.39,-3.03,-0.86,-3.67,Left Fall while Sitting
13:45.1,670,949,1423.5,1001,240,3.26,306.51,1.17,20724.11,239,122,121.7,121,14810,29768,244,1.05,0.11,-0.05,-1.04,-4.65,-15.1,5.3,-82.02,-1.16,-1.06,-4.47,-0.9,-4.3,Left Fall while Sitting
13:45.2,523,914,1371,1001,241,3.24,308.18,1.18,20724.11,239,122,121.7,121,14810,44652,366,1.04,0.14,-0.09,-2.62,-5.63,-27.39,6.86,-79.36,-1.37,-1.82,-7.13,-1.04,-4.92,Left Fall while Sitting
13:45.3,401,874,1311,1001,241,3.24,308.18,1.18,20724.11,239,122,121.7,121,14810,59536,488,0.98,0.19,-0.1,-5.05,-4.12,-29.84,10.22,-76.14,-1.82,-2.43,-10.04,-1.33,-5.38,Left Fall while Sitting
13:45.4,648,858,1287,1001,242,3.23,309.86,1.18,20724.11,239,122,121.7,121,14810,74420,610,0.95,0.25,-0.09,-7.53,0.82,-22.59,14.01,-72.78,-2.52,-2.55,-12.24,-1.86,-5.36,Left Fall while Sitting
13:45.5,327,823,1234.5,1001,242,3.23,309.86,1.18,20724.11,239,122,121.7,121,14810,89304,732,0.94,0.29,-0.06,-7.49,4.69,-9,16.33,-71.07,-3.21,-2.28,-13.06,-2.43,-5.03,Left Fall while Sitting
13:45.6,325,792,1188,1001,243,3.21,311.54,1.19,20724.11,239,121,121.7,121,14810,103945,853,0.99,0.28,-0.06,-4.65,5.92,-5.27,15.37,-72.13,-3.63,-1.89,-13.51,-2.87,-4.69,Left Fall while Sitting
13:45.7,353,766,1149,1001,244,3.19,313.22,1.19,20724.11,239,122,121.7,121,14810,118829,975,1,0.28,-0.06,-8.24,2.03,-10.14,14.88,-72.55,-4.4,-1.88,-14.46,-3.63,-4.71,Left Fall while Sitting
13:45.8,475,750,1125,1001,244,3.19,313.22,1.19,20724.11,239,122,121.7,121,14810,133713,1097,0.97,0.3,-0.03,-7.11,1.73,-14.71,16.55,-71.23,-5.06,-1.91,-15.86,-4.2,-4.68,Left Fall while Sitting
13:45.9,452,734,1101,1001,245,3.18,314.91,1.2,20724.14,242,122,121.9,121,14858,0,0,0.94,0.34,-0.03,-4.4,0.53,-16.81,18.95,-68.78,-5.44,-2.06,-17.45,-4.47,-4.72,Left Fall while Sitting
13:46.0,358,715,1072.5,1001,246,3.16,316.6,1.2,20724.14,242,122,121.9,121,14858,14884,122,0.93,0.36,-0.05,-0.33,0.5,-14.08,20.51,-67.14,-5.42,-2.21,-18.79,-4.38,-4.8,Left Fall while Sitting
13:46.1,329,697,1045.5,1001,246,3.16,316.6,1.2,20724.14,242,123,121.9,121,14858,30013,245,0.95,0.37,-0.07,-4.77,0.91,-13.49,20.89,-66.54,-5.85,-2.32,-20.07,-4.78,-4.89,Left Fall while Sitting
13:46.2,394,683,1024.5,1001,247,3.14,318.3,1.21,20724.14,242,123,121.9,121,14858,45142,368,0.92,0.4,-0.06,-8.17,1.66,-14.66,22.72,-64.85,-6.61,-2.35,-21.47,-5.44,-4.85,Left Fall while Sitting
13:46.3,333,668,1002,1001,248,3.13,320,1.21,20724.14,242,123,121.9,121,14858,60271,491,0.89,0.43,-0.02,-4.02,3.73,-11.62,24.91,-62.9,-6.96,-2.18,-22.56,-5.68,-4.61,Left Fall while Sitting
13:46.4,282,652,978,1001,249,3.11,321.71,1.22,20724.14,242,123,121.9,121,14858,75400,614,0.91,0.43,-0.03,-1.89,4.68,-5.34,24.72,-63.07,-7.09,-1.91,-23.01,-5.82,-4.36,Left Fall while Sitting
13:46.5,176,632,948,1001,250,3.09,323.42,1.22,20724.14,242,122,121.9,121,14858,90284,736,0.92,0.45,-0.02,-2.69,1.56,-8.85,25.45,-62.34,-7.31,-1.96,-23.82,-6,-4.37,Left Fall while Sitting
13:46.6,130,613,919.5,1001,250,3.09,323.42,1.22,20724.14,242,123,121.9,121,14858,105413,859,0.92,0.45,-0.04,-2.88,-0.38,-13.85,25.29,-62.45,-7.54,-2.2,-25.13,-6.23,-4.61,Left Fall while Sitting
13:46.7,157,596,894,1001,251,3.08,325.13,1.23,20724.14,242,123,121.9,121,14858,120542,982,0.86,0.47,-0.04,-5.59,-1.76,-16.8,28,-59.74,-8.05,-2.57,-26.75,-6.61,-4.86,Left Fall while Sitting
13:46.8,189,582,873,1001,252,3.06,326.85,1.23,20724.14,242,123,121.9,121,14858,135671,1105,0.85,0.5,-0.02,-5.86,0.49,-16.4,29.66,-58.16,-8.58,-2.73,-28.32,-7.05,-4.94,Left Fall while Sitting
13:46.9,208,569,853.5,1001,252,3.06,326.85,1.23,20724.22,249,123,122.8,122,15079,0,0,0.83,0.52,-0.02,-4.21,1.47,-9.56,31.5,-56.3,-8.94,-2.78,-29.19,-7.33,-4.92,Left Fall while Sitting
13:47.0,282,559,838.5,1001,254,3.03,330.3,1.24,20724.22,249,123,122.8,122,15079,15129,123,0.85,0.53,0,-1.15,3.02,-6.39,31.49,-56.35,-9,-2.68,-29.75,-7.38,-4.82,Left Fall while Sitting
13:47.1,311,551,826.5,1001,254,3.03,330.3,1.24,20724.22,249,123,122.8,122,15079,30258,246,0.86,0.53,-0.03,-3.23,1.74,-5.54,31.17,-56.62,-9.27,-2.7,-30.23,-7.66,-4.86,Left Fall while Sitting
13:47.2,351,545,817.5,1001,255,3.01,332.03,1.25,20724.22,249,124,122.8,122,15079,45634,370,0.87,0.54,-0.02,-3.19,-0.63,-9.61,30.92,-56.88,-9.54,-2.97,-31.12,-7.92,-5.12,Left Fall while Sitting
13:47.3,438,542,813,1001,255,3.01,332.03,1.25,20724.22,249,124,122.8,122,15079,61010,494,0.84,0.55,-0.03,-2.75,0.92,-11.37,32.47,-55.3,-9.75,-3.07,-32.17,-8.07,-5.16,Left Fall while Sitting
13:47.4,379,537,805.5,1001,256,3,333.77,1.25,20724.22,249,124,122.8,122,15079,76386,618,0.83,0.56,-0.04,-4.59,-1.49,-13.85,33.2,-54.53,-10.16,-3.43,-33.49,-8.43,-5.47,Left Fall while Sitting
13:47.5,419,533,799.5,1001,257,2.98,335.51,1.26,20724.22,249,124,122.8,122,15079,91762,742,0.76,0.59,-0.01,-7.52,0.54,-9.45,36.99,-50.84,-10.86,-3.57,-34.37,-8.95,-5.46,Left Fall while Sitting
13:47.6,486,532,798,1001,257,2.98,335.51,1.26,20724.22,249,124,122.8,122,15079,107138,866,0.79,0.6,0,-1.07,2.1,-4.72,36.79,-51.05,-10.92,-3.56,-34.76,-9.01,-5.46,Left Fall while Sitting
13:47.7,483,531,796.5,1001,256,3,333.77,1.25,20724.22,249,124,122.8,122,15079,122514,990,0.78,0.61,-0.03,-0.53,2.02,1.76,37.45,-50.35,-10.91,-3.56,-34.5,-8.98,-5.43,Left Fall while Sitting
13:47.8,496,530,795,1001,256,3,333.77,1.25,20724.22,249,124,122.8,122,15079,137890,1114,0.81,0.59,0,-1.6,-2.61,5.23,35.51,-52.33,-11.02,-4.03,-33.89,-9.16,-5.96,Left Fall while Sitting
13:47.9,562,531,796.5,1001,255,3.01,332.03,1.25,20724.3,255,125,123.9,123,15350,0,0,0.81,0.57,-0.02,1.7,1.91,-0.57,34.59,-53.22,-10.79,-4.04,-33.87,-8.98,-6,Left Fall while Sitting
13:48.0,560,531,796.5,1001,255,3.01,332.03,1.25,20724.3,255,125,123.9,123,15350,15625,125,0.83,0.58,-0.05,-1.86,0.27,-4.73,34.53,-53.19,-10.92,-4.21,-34.27,-9.1,-6.17,Left Fall while Sitting
13:48.1,432,529,793.5,1001,253,3.04,328.57,1.24,20724.3,255,124,123.9,123,15350,31001,249,0.78,0.59,-0.02,-3.64,-0.82,-0.34,36.69,-51.12,-11.23,-4.49,-34.22,-9.31,-6.36,Left Fall while Sitting
13:48.2,482,528,792,1001,251,3.08,325.13,1.23,20724.3,255,123,123.9,123,15350,46130,372,0.79,0.6,-0.02,1.41,3.11,8.33,36.74,-51.07,-11.03,-4.38,-33.3,-9.12,-6.25,Left Fall while Sitting
13:48.3,378,524,786,1001,249,3.11,321.71,1.22,20724.3,255,123,123.9,123,15350,61259,495,0.84,0.58,-0.03,1.47,3.35,11.61,34.08,-53.69,-10.83,-4.24,-32.06,-9.03,-6.22,Left Fall while Sitting
13:48.4,410,522,783,1001,248,3.13,320,1.21,20724.3,255,122,123.9,123,15350,76143,617,0.86,0.54,-0.04,-1.13,1.29,7.79,31.54,-56.21,-10.88,-4.32,-31.2,-9.19,-6.39,Left Fall while Sitting
13:48.5,490,521,781.5,1001,246,3.16,316.6,1.2,20724.3,255,122,123.9,123,15350,91027,739,0.85,0.53,-0.03,-2.55,-0.23,4.06,31.5,-56.28,-11.09,-4.54,-30.71,-9.38,-6.61,Left Fall while Sitting
13:48.6,496,520,780,1001,245,3.18,314.91,1.2,20724.3,255,122,123.9,123,15350,105911,861,0.82,0.53,-0.02,-0.21,0.73,5.26,32.3,-55.5,-11.05,-4.67,-30.11,-9.32,-6.7,Left Fall while Sitting
13:48.7,525,521,781.5,1001,244,3.19,313.22,1.19,20724.3,255,122,123.9,123,15350,120795,983,0.83,0.53,-0.05,1.28,1.69,13.02,31.99,-55.67,-10.87,-4.7,-28.73,-9.15,-6.74,Left Fall while Sitting
13:48.8,490,520,780,1001,243,3.21,311.54,1.19,20724.3,255,122,123.9,123,15350,135679,1105,0.83,0.5,-0.04,-0.87,1.5,20.56,30.29,-57.46,-10.9,-4.75,-26.57,-9.25,-6.86,Left Fall while Sitting
13:48.9,578,521,781.5,1001,243,3.21,311.54,1.19,20724.2,247,122,122.7,122,15055,0,0,0.87,0.45,-0.05,0.63,-0.27,25.76,26.8,-60.87,-10.78,-4.98,-23.94,-9.28,-7.21,Left Fall while Sitting
13:49.0,545,522,783,1001,242,3.23,309.86,1.18,20724.2,247,122,122.7,122,15055,14884,122,0.92,0.41,-0.04,2.28,2.79,27.24,23.62,-64.08,-10.5,-4.9,-21.14,-9.13,-7.26,Left Fall while Sitting
13:49.1,661,524,786,1001,242,3.23,309.86,1.18,20724.2,247,122,122.7,122,15055,29768,244,0.98,0.35,-0.05,-0.7,1.49,22.71,19.21,-68.42,-10.51,-4.95,-18.76,-9.32,-7.49,Left Fall while Sitting
13:49.2,606,526,789,1001,242,3.23,309.86,1.18,20724.2,247,122,122.7,122,15055,44652,366,0.95,0.32,-0.03,-0.73,3.24,22.18,18.13,-69.63,-10.53,-4.82,-16.44,-9.38,-7.42,Left Fall while Sitting
13:49.3,575,527,790.5,1001,242,3.23,309.86,1.18,20724.2,247,122,122.7,122,15055,59536,488,0.96,0.28,-0.03,2.15,4.12,24.02,15.92,-71.8,-10.26,-4.61,-13.96,-9.21,-7.3,Left Fall while Sitting
13:49.4,521,527,790.5,1001,242,3.23,309.86,1.18,20724.2,247,122,122.7,122,15055,74420,610,0.98,0.24,-0.06,-2.03,3.21,26.84,13.14,-74.21,-10.41,-4.49,-11.17,-9.46,-7.28,Left Fall while Sitting
13:49.5,571,527,790.5,1001,243,3.21,311.54,1.19,20724.2,247,124,122.7,122,15055,89796,734,0.98,0.19,-0.03,-8.14,1.22,25.33,10.39,-77.35,-11.16,-4.57,-8.56,-10.3,-7.48,Left Fall while Sitting
13:49.6,510,527,790.5,1001,244,3.19,313.22,1.19,20724.2,247,124,122.7,122,15055,105172,858,1.03,0.15,-0.04,-2.56,6.26,23.4,7.81,-79.8,-11.37,-4.14,-6.12,-10.6,-7.16,Left Fall while Sitting
13:49.7,672,530,795,1001,250,3.09,323.42,1.22,20724.2,247,122,122.7,122,15055,120056,980,1,0.11,-0.01,-4.94,9.37,22.96,5.46,-82.38,-11.8,-3.4,-3.74,-11.11,-6.56,Left Fall while Sitting
13:49.8,519,529,793.5,1001,245,3.18,314.91,1.2,20724.2,247,123,122.7,122,15055,135185,1103,1.02,0.07,0.01,-5.76,9.3,21.21,3.29,-84.54,-12.32,-2.67,-1.54,-11.7,-5.95,Left Fall while Sitting
13:49.9,489,529,793.5,1001,246,3.16,316.6,1.2,20724.16,243,124,122.7,122,15055,0,0,1.01,0.02,0.02,-7.57,6.35,23.37,0.78,-86.5,-13.02,-2.24,0.87,-12.47,-5.61,Left Fall while Sitting
13:50.0,584,530,795,1001,250,3.09,323.42,1.22,20724.16,243,143,122.7,122,15055,20449,143,1.04,-0.03,0.04,-3.47,6.69,20.81,-2.05,-85.83,-13.32,-1.77,3.03,-12.86,-5.13,Left Fall while Sitting
13:50.1,951,537,805.5,1001,253,3.04,328.57,1.24,20724.16,243,141,122.7,122,15055,40330,284,1.06,-0.09,0.04,-9.3,-4.07,10.9,-5.25,-83.35,-14.19,-2.37,4.2,-13.83,-5.61,Left Fall while Sitting
13:50.2,572,537,805.5,1001,255,3.01,332.03,1.25,20724.16,243,136,122.7,122,15055,58826,420,1.05,-0.08,0.03,-4.9,-5.32,-7.69,-4.71,-83.92,-14.63,-3.11,3.51,-14.23,-6.34,Left Fall while Sitting
13:50.3,471,536,804,1001,252,3.06,326.85,1.23,20724.16,243,125,122.7,122,15055,74451,545,1.01,-0.03,0.01,0.91,-8.54,-10.94,-2.28,-86.69,-14.48,-4.17,2.49,-13.99,-7.47,Left Fall while Sitting
13:50.4,362,533,799.5,1001,250,3.09,323.42,1.22,20724.16,243,126,122.7,122,15055,90327,671,1.01,-0.02,-0.02,2.69,-14.23,-10.02,-1.75,-86.81,-14.15,-5.79,1.57,-13.66,-9.03,Left Fall while Sitting
13:50.5,333,530,795,1001,250,3.09,323.42,1.22,20724.16,243,125,122.7,122,15055,105952,796,1.02,-0.01,-0.05,5,-12.85,-8.69,-0.91,-85.58,-13.59,-7.3,0.76,-13.08,-10.43,Left Fall while Sitting
13:50.6,306,527,790.5,1001,250,3.09,323.42,1.22,20724.16,243,125,122.7,122,15055,121577,921,1.01,0.01,-0.08,1.18,-11.66,-5.78,0,-84.07,-13.41,-8.67,0.26,-12.88,-11.69,Left Fall while Sitting
13:50.7,383,525,787.5,1001,252,3.06,326.85,1.23,20724.16,243,123,122.7,122,15055,136706,1044,1.01,0.02,-0.11,2.64,-5.95,-2.7,0.82,-81.88,-13.09,-9.47,0.07,-12.53,-12.37,Left Fall while Sitting
13:50.8,329,522,783,1001,251,3.08,325.13,1.23,20724.16,243,122,122.7,122,15055,151590,1166,1,0.01,-0.1,0.08,-2.78,0.92,0.23,-82.37,-13.03,-9.96,0.24,-12.5,-12.85,Left Fall while Sitting
13:50.9,379,520,780,1001,252,3.06,326.85,1.23,20724.25,251,125,129.31,129,16720,0,0,1.03,0.01,-0.12,-2.26,1.75,0.79,0.04,-81.95,-13.19,-9.98,0.4,-12.66,-12.86,Left Fall while Sitting
13:51.0,424,518,777,1001,255,3.01,332.03,1.25,20724.25,251,132,129.31,129,16720,17424,132,1.01,0.01,-0.1,-0.53,7.37,-0.32,-0.21,-82.81,-13.19,-9.44,0.44,-12.67,-12.38,Left Fall while Sitting
13:51.1,486,518,777,1001,257,2.98,335.51,1.26,20724.25,251,125,129.31,129,16720,33049,257,1.02,0,-0.09,-1.21,6.02,-0.13,-0.5,-83.44,-13.26,-9.04,0.51,-12.75,-12.01,Left Fall while Sitting
13:54.0,376,376,564,376,270,2.79,358.57,1.32,0,0,128,0,0,0,32768,256,1.01,0,-0.01,-4.99,0.66,-2.27,-0.4,-88.02,-0.87,0.06,-0.54,-0.85,-3.46,Right Fall while Sitting
13:54.1,718,547,820.5,718,271,2.77,360.37,1.32,0,0,134,0,0,0,50724,390,1.02,0.01,-0.05,-0.91,1.4,-2.87,0.01,-85.81,-0.9,0,-0.74,-0.87,-3.43,Right Fall while Sitting
13:54.2,430,508,762,718,274,2.73,365.82,1.34,0,0,141,0,0,0,70605,531,1.01,0.01,0,-4.53,-2.35,2.02,0.2,-87.62,-1.29,-0.42,-0.47,-1.23,-3.91,Right Fall while Sitting
13:54.3,745,567,850.5,745,284,2.6,384.3,1.39,0,0,158,0,0,0,95569,689,1.01,0.02,-0.05,-1.98,5.02,1.71,0.52,-85.26,-1.43,-0.13,-0.23,-1.35,-3.53,Right Fall while Sitting
13:54.4,599,573,859.5,745,288,2.55,391.84,1.41,0,0,162,0,0,0,121813,851,1.03,0.02,-0.04,-12.95,6.89,4.34,0.42,-85.82,-2.64,0.35,0.28,-2.52,-3.09,Right Fall while Sitting
13:54.5,516,564,846,745,289,2.54,393.73,1.41,0,0,162,0,0,0,148057,1013,0.97,0.01,-0.01,-2.62,3.82,15.96,0.06,-87.41,-2.84,0.53,1.9,-2.72,-2.99,Right Fall while Sitting
13:54.6,371,536,804,745,283,2.61,382.43,1.38,0,0,131,0,0,0,165218,1144,0.99,-0.06,0,-2.56,10.05,22.36,-3.97,-85.03,-3.03,1.31,4.15,-3.07,-2.14,Right Fall while Sitting
13:54.7,215,496,744,745,278,2.68,373.15,1.36,0,0,132,0,0,0,182642,1276,1.04,-0.14,0.03,1.18,9.32,25.32,-8.33,-80.51,-2.86,2.04,6.73,-3.08,-1.27,Right Fall while Sitting
13:54.8,339,478,717,745,277,2.69,371.31,1.35,110.12,278,129,141.17,140,19927,0,0,1.05,-0.15,0.01,-1.52,8.11,16.07,-8.78,-80.2,-2.95,2.63,8.37,-3.19,-0.68,Right Fall while Sitting
13:54.9,267,457,685.5,745,274,2.73,365.82,1.34,110.12,278,128,141.17,140,19927,16384,128,1,-0.16,0.04,0.32,8.11,10.09,-9.56,-79.21,-2.87,3.23,9.44,-3.14,-0.06,Right Fall while Sitting
13:55.0,294,442,663,745,274,2.73,365.82,1.34,110.12,278,130,141.17,140,19927,33284,258,0.97,-0.18,0.04,1.15,7.44,18.38,-11.18,-77.58,-2.7,3.77,11.34,-3.04,0.52,Right Fall while Sitting
13:55.1,367,436,654,745,274,2.73,365.82,1.34,110.12,278,136,141.17,140,19927,51780,394,1,-0.2,0.06,-0.4,10.07,23.67,-11.88,-76.58,-2.68,4.58,13.79,-3.05,1.33,Right Fall while Sitting
13:55.2,471,439,658.5,745,275,2.72,367.65,1.34,110.12,278,135,141.17,140,19927,70005,529,1.11,-0.29,0.07,-1.85,5.61,10.66,-15,-73.52,-2.81,4.94,14.92,-3.3,1.8,Right Fall while Sitting
13:55.3,570,448,672,745,278,2.68,373.15,1.36,110.12,278,130,141.17,140,19927,86905,659,0.95,-0.28,0.08,-4.03,7.44,17.09,-16.81,-71.49,-3.15,5.47,16.69,-3.7,2.4,Right Fall while Sitting
13:55.4,654,462,693,745,277,2.69,371.31,1.35,110.12,278,131,141.17,140,19927,104066,790,0.97,-0.31,0.09,-1.67,4.08,15.33,-18.35,-69.85,-3.27,5.68,18.32,-3.87,2.66,Right Fall while Sitting
13:55.5,639,473,709.5,745,276,2.71,369.48,1.35,110.12,278,133,141.17,140,19927,121755,923,0.94,-0.36,0.08,0.76,2.04,14.86,-21.27,-67.21,-3.13,5.69,19.87,-3.86,2.77,Right Fall while Sitting
13:55.6,639,482,723,745,276,2.71,369.48,1.35,110.12,278,123,141.17,140,19927,136884,1046,0.94,-0.37,0.07,-2.02,4.29,12.5,-21.85,-66.75,-3.28,5.92,21.19,-4.02,3.01,Right Fall while Sitting
13:55.7,527,485,727.5,745,273,2.75,364,1.33,110.12,278,123,141.17,140,19927,152013,1169,0.94,-0.38,0.09,-3.27,6.4,12.28,-22.57,-65.82,-3.55,6.36,22.51,-4.31,3.47,Right Fall while Sitting
13:55.8,971,510,765,971,272,2.76,362.18,1.33,100.18,274,123,129.28,129,16713,0,0,0.92,-0.41,0.1,-0.22,0.52,11.45,-24.38,-63.93,-3.52,6.21,23.71,-4.35,3.41,Right Fall while Sitting
13:55.9,507,510,765,971,271,2.77,360.37,1.32,100.18,274,122,129.28,129,16713,14884,122,0.9,-0.42,0.09,-1.98,0.47,11.22,-25.15,-63.28,-3.66,6.06,24.89,-4.52,3.29,Right Fall while Sitting
13:56.0,643,517,775.5,971,272,2.76,362.18,1.33,100.18,274,122,129.28,129,16713,29768,244,0.93,-0.43,0.09,-1.26,-6.6,10.68,-25.05,-63.44,-3.73,5.2,26.04,-4.58,2.46,Right Fall while Sitting
13:56.1,572,519,778.5,971,271,2.77,360.37,1.32,100.18,274,122,129.28,129,16713,44652,366,0.86,-0.44,0.06,-5.65,-1.83,13.27,-27.31,-61.43,-4.23,4.82,27.43,-5.16,2.17,Right Fall while Sitting
13:56.2,610,523,784.5,971,271,2.77,360.37,1.32,100.18,274,122,129.28,129,16713,59536,488,0.89,-0.49,0.11,-7.27,2.66,4.27,-29.48,-58.81,-4.91,4.89,27.94,-5.89,2.34,Right Fall while Sitting
13:56.3,506,522,783,971,271,2.77,360.37,1.32,100.18,274,122,129.28,129,16713,74420,610,0.91,-0.5,0.08,-0.8,5.74,2.05,-29.41,-59.21,-4.93,5.26,28.22,-5.91,2.68,Right Fall while Sitting
13:56.4,473,520,780,971,272,2.76,362.18,1.33,100.18,274,123,129.28,129,16713,89549,733,0.88,-0.51,0.17,-1.64,5.82,7.45,-30.27,-57.04,-5.04,5.64,29.04,-6.05,3.13,Right Fall while Sitting
13:56.5,500,519,778.5,971,272,2.76,362.18,1.33,100.18,274,122,129.28,129,16713,104433,855,0.87,-0.51,0.12,-5.71,-2.98,7.29,-30.68,-57.44,-5.55,5.15,29.84,-6.55,2.64,Right Fall while Sitting
13:56.6,469,518,777,971,272,2.76,362.18,1.33,100.18,274,122,129.28,129,16713,119317,977,0.88,-0.52,0.08,-3.02,-12.5,5.71,-31.18,-57.4,-5.79,3.7,30.49,-6.81,1.25,Right Fall while Sitting
13:56.7,423,514,771,971,272,2.76,362.18,1.33,100.18,274,121,129.28,129,16713,133958,1098,0.88,-0.53,0.02,0.08,-8.11,0.44,-31.58,-57.39,-5.73,2.69,30.61,-6.76,0.28,Right Fall while Sitting
13:56.8,450,512,768,971,271,2.77,360.37,1.32,90.42,271,120,121.8,121,14834,0,0,0.87,-0.53,0.06,1.71,4.27,-2.07,-31.94,-56.86,-5.51,2.91,30.49,-6.57,0.52,Right Fall while Sitting
13:56.9,362,507,760.5,971,271,2.77,360.37,1.32,90.42,271,120,121.8,121,14834,14400,120,0.88,-0.53,0.09,-0.73,10.63,-2.29,-31.48,-57.08,-5.53,3.77,30.34,-6.56,1.34,Right Fall while Sitting
13:57.0,391,503,754.5,971,271,2.77,360.37,1.32,90.42,271,120,121.8,121,14834,28800,240,0.87,-0.51,0.08,0.82,1.4,-2.4,-30.97,-57.62,-5.39,3.71,30.18,-6.41,1.26,Right Fall while Sitting
13:57.1,406,500,750,971,271,2.77,360.37,1.32,90.42,271,121,121.8,121,14834,43441,361,0.88,-0.52,0.09,-1.39,-0.84,0.6,-31.14,-57.4,-5.47,3.43,30.32,-6.5,1,Right Fall while Sitting
13:57.2,352,496,744,971,272,2.76,362.18,1.33,90.42,271,120,121.8,121,14834,57841,481,0.88,-0.52,0.07,-3.02,1.73,0.37,-31.14,-57.55,-5.72,3.4,30.43,-6.73,0.96,Right Fall while Sitting
13:57.3,303,490,735,971,271,2.77,360.37,1.32,90.42,271,120,121.8,121,14834,72241,601,0.87,-0.53,0.08,-2.81,2.63,-1.16,-31.74,-56.81,-5.94,3.47,30.39,-6.97,1.05,Right Fall while Sitting
13:57.4,343,486,729,971,272,2.76,362.18,1.33,90.42,271,120,121.8,121,14834,86641,721,0.87,-0.52,0.08,-1.62,0.65,-3.35,-31.49,-57.06,-6.05,3.33,30.14,-7.06,0.92,Right Fall while Sitting
13:57.5,352,482,723,971,272,2.76,362.18,1.33,90.42,271,121,121.8,121,14834,101282,842,0.88,-0.51,0.09,-1.19,-2.92,-2.18,-30.88,-57.66,-6.11,2.84,30,-7.1,0.42,Right Fall while Sitting
13:57.6,404,480,720,971,273,2.75,364,1.33,90.42,271,120,121.8,121,14834,115682,962,0.88,-0.52,0.07,-0.89,-1.16,-0.29,-30.92,-57.77,-6.14,2.53,30.05,-7.13,0.11,Right Fall while Sitting
13:57.7,453,479,718.5,971,273,2.75,364,1.33,90.42,271,121,121.8,121,14834,130323,1083,0.87,-0.52,0.07,-2.03,2.8,-0.98,-31.43,-57.27,-6.29,2.61,30.03,-7.29,0.21,Right Fall while Sitting
13:57.8,468,479,718.5,971,273,2.75,364,1.33,91.62,271,120,120.3,120,14471,0,0,0.88,-0.52,0.1,-2.82,0.99,-4.92,-31.3,-57.08,-6.51,2.51,29.62,-7.5,0.12,Right Fall while Sitting
13:57.9,517,480,720,971,273,2.75,364,1.33,91.62,271,122,120.3,120,14471,14884,122,0.89,-0.51,0.09,-1.49,-4.14,-5.51,-30.57,-57.97,-6.6,1.91,29.16,-7.56,-0.49,Right Fall while Sitting
13:58.0,511,481,721.5,971,274,2.73,365.82,1.34,91.62,271,121,120.3,120,14471,29525,243,0.88,-0.52,0.06,-3.4,-2.12,-8.77,-30.91,-57.85,-6.89,1.49,28.36,-7.85,-0.88,Right Fall while Sitting
13:58.1,435,479,718.5,971,274,2.73,365.82,1.34,91.62,271,122,120.3,120,14471,44409,365,0.88,-0.53,0.05,-4.63,-2.31,-19.99,-31.53,-57.28,-7.29,1.06,26.44,-8.26,-1.27,Right Fall while Sitting
13:58.2,374,477,715.5,971,274,2.73,365.82,1.34,91.62,271,121,120.3,120,14471,59050,486,0.89,-0.43,0.07,0.14,-3.56,-25.67,-26.55,-62.11,-7.22,0.51,23.98,-8,-1.99,Right Fall while Sitting
13:58.3,342,474,711,971,274,2.73,365.82,1.34,91.62,271,121,120.3,120,14471,73691,607,0.94,-0.4,0.05,-1.11,2.58,-12.64,-23.76,-65.01,-7.28,0.57,22.79,-7.94,-2.05,Right Fall while Sitting
13:58.4,248,469,703.5,971,274,2.73,365.82,1.34,91.62,271,120,120.3,120,14471,88091,727,0.93,-0.41,0.06,-4.64,3.56,-11.36,-24.22,-64.5,-7.69,0.73,21.74,-8.35,-1.88,Right Fall while Sitting
13:58.5,335,466,699,971,274,2.73,365.82,1.34,91.62,271,120,120.3,120,14471,102491,847,0.95,-0.39,0.07,-3.18,-0.76,-18.47,-23.13,-65.52,-7.95,0.45,19.97,-8.56,-2.19,Right Fall while Sitting
13:58.6,382,464,696,971,275,2.72,367.65,1.34,91.62,271,120,120.3,120,14471,116891,967,0.95,-0.35,0.08,-2.41,-4.08,-19.95,-20.98,-67.52,-8.13,-0.15,18.07,-8.65,-2.85,Right Fall while Sitting
13:58.7,399,463,694.5,971,275,2.72,367.65,1.34,91.62,271,122,120.3,120,14471,131775,1089,0.96,-0.32,0.04,-1.1,-3.56,-21.28,-19.02,-69.84,-8.19,-0.71,16,-8.62,-3.48,Right Fall while Sitting
13:58.8,434,462,693,971,277,2.69,371.31,1.35,98.79,274,124,121.31,121,14714,0,0,0.98,-0.27,0.03,-1.92,0.43,-21.78,-16.08,-72.79,-8.32,-0.87,13.92,-8.63,-3.75,Right Fall while Sitting
13:58.9,365,460,690,971,277,2.69,371.31,1.35,98.79,274,122,121.31,121,14714,14884,122,0.99,-0.24,0.06,-0.45,-0.3,-13.19,-13.91,-74.67,-8.31,-1.1,12.7,-8.54,-4.04,Right Fall while Sitting
13:59.0,294,457,685.5,971,277,2.69,371.31,1.35,98.79,274,121,121.31,121,14714,29525,243,1,-0.25,0.07,-2.62,-2.77,-7.71,-14.48,-74.02,-8.52,-1.58,12,-8.76,-4.48,Right Fall while Sitting
13:59.1,329,455,682.5,971,277,2.69,371.31,1.35,98.79,274,121,121.31,121,14714,44166,364,1,-0.24,0.04,-2.54,-4.92,-8.74,-14.17,-74.68,-8.72,-2.26,11.21,-8.93,-5.16,Right Fall while Sitting
13:59.2,419,454,681,971,277,2.69,371.31,1.35,98.79,274,121,121.31,121,14714,58807,485,1,-0.2,0.02,-2.87,-4.9,-7.85,-11.94,-77.01,-8.95,-2.95,10.51,-9.07,-5.92,Right Fall while Sitting
13:59.3,453,454,681,971,277,2.69,371.31,1.35,98.79,274,120,121.31,121,14714,73207,605,1,-0.22,0.01,-5.25,-5.18,-2.82,-13.02,-75.96,-9.42,-3.67,10.3,-9.56,-6.56,Right Fall while Sitting
13:59.4,504,455,682.5,971,277,2.69,371.31,1.35,98.79,274,122,121.31,121,14714,88091,727,1,-0.22,0,-3.76,-7.54,-2.71,-13.18,-75.81,-9.74,-4.63,10.11,-9.87,-7.47,Right Fall while Sitting
13:59.5,581,457,685.5,971,277,2.69,371.31,1.35,98.79,274,121,121.31,121,14714,102732,848,1,-0.2,-0.03,-3.86,-8.37,-2.65,-12.13,-76.75,-10.06,-5.65,9.93,-10.15,-8.5,Right Fall while Sitting
13:59.6,590,459,688.5,971,277,2.69,371.31,1.35,98.79,274,121,121.31,121,14714,117373,969,1,-0.2,-0.04,-3.18,-7.5,-1.82,-11.73,-77.01,-10.33,-6.61,9.82,-10.38,-9.43,Right Fall while Sitting
13:59.7,615,462,693,971,276,2.71,369.48,1.35,98.79,274,122,121.31,121,14714,132257,1091,1,-0.2,-0.06,-2.47,-5.46,-1.83,-12.1,-76.43,-10.52,-7.36,9.72,-10.58,-10.12,Right Fall while Sitting
13:59.8,622,465,697.5,971,276,2.71,369.48,1.35,105.27,276,121,121.2,121,14688,0,0,1.01,-0.2,-0.08,-2.41,-2.21,-1.77,-11.88,-76.31,-10.7,-7.78,9.62,-10.75,-10.52,Right Fall while Sitting
13:59.9,638,468,702,971,274,2.73,365.82,1.34,105.27,276,121,121.2,121,14688,14641,121,1.01,-0.2,-0.06,-3.25,-1.08,-2.7,-11.54,-76.93,-10.97,-8.09,9.43,-11,-10.84,Right Fall while Sitting
14:00.0,645,470,705,971,274,2.73,365.82,1.34,105.27,276,120,121.2,121,14688,29041,241,1.01,-0.2,-0.07,-2.36,-0.82,-1.58,-12,-76.32,-11.16,-8.37,9.35,-11.19,-11.09,Right Fall while Sitting
14:00.1,641,473,709.5,971,273,2.75,364,1.33,105.27,276,120,121.2,121,14688,43441,361,1.01,-0.2,-0.07,-1.86,0.08,-1.33,-11.85,-76.39,-11.29,-8.56,9.29,-11.31,-11.28,Right Fall while Sitting
14:08.9,572,572,858,572,293,2.49,401.37,1.43,0,0,121,0,0,0,28097,237,1.02,-0.2,-0.08,2.29,12.56,-1.69,-11.71,-76.33,0.43,3,-0.28,-0.06,-0.17,Forward Fall while Sitting
14:09.0,462,517,775.5,572,292,2.5,399.45,1.43,0,0,120,0,0,0,42497,357,1.01,-0.19,-0.05,2.93,10.94,-2.42,-11.51,-77.16,0.77,3.87,-0.44,0.28,0.62,Forward Fall while Sitting
14:09.1,434,489,733.5,572,293,2.49,401.37,1.43,0,0,114,0,0,0,55493,471,1.04,-0.19,-0.07,-3.52,12.59,-4.5,-10.96,-77.38,0.48,4.89,-0.8,0.02,1.6,Forward Fall while Sitting
14:09.2,344,453,679.5,572,292,2.5,399.45,1.43,0,0,114,0,0,0,68489,585,1.07,-0.19,-0.05,0.61,30.67,-18.26,-10.63,-78.09,0.59,7.67,-2.49,0.14,4.24,Forward Fall while Sitting
14:09.3,397,441,661.5,572,293,2.49,401.37,1.43,0,0,114,0,0,0,81485,699,0.97,-0.1,-0.03,-17.6,11.74,-12.96,-6.66,-82.11,-1.08,8.63,-3.69,-1.3,5,Forward Fall while Sitting
14:09.4,223,405,607.5,572,293,2.49,401.37,1.43,0,0,114,0,0,0,94481,813,0.94,-0.1,0.03,-18.48,-23.89,3.59,-6.95,-81.78,-2.83,6.09,-3.26,-3,2.58,Forward Fall while Sitting
14:09.5,221,379,568.5,572,293,2.49,401.37,1.43,0,0,115,0,0,0,107706,928,1.01,-0.16,0.09,14.9,-5,2.89,-9.66,-77.99,-1.33,5.41,-2.9,-1.67,2.08,Forward Fall while Sitting
14:09.6,155,351,526.5,572,293,2.49,401.37,1.43,0,0,115,0,0,0,120931,1043,1.01,-0.18,0.05,3.27,9.66,4.21,-10.69,-77.99,-0.95,6.17,-2.4,-1.34,2.8,Forward Fall while Sitting
14:09.7,122,325,487.5,572,294,2.48,403.29,1.44,142.32,292,119,116.23,116,13508,0,0,1.05,-0.12,-0.03,-2.4,-3.19,10.33,-7.08,-81.67,-1.13,5.67,-1.33,-1.37,2.17,Forward Fall while Sitting
14:09.8,140,307,460.5,572,295,2.47,405.22,1.44,142.32,292,119,116.23,116,13508,14161,119,1,-0.2,0.03,-0.65,-20.21,8.43,-11.98,-76.85,-1.14,3.45,-0.4,-1.57,0.23,Forward Fall while Sitting
14:09.9,84,286,429,572,295,2.47,405.22,1.44,142.32,292,118,116.23,116,13508,28085,237,1.06,-0.24,-0.02,5.87,-34.51,8.24,-13.54,-75.42,-0.5,-0.2,0.5,-1.02,-3.21,Forward Fall while Sitting
14:10.0,39,266,399,572,295,2.47,405.22,1.44,142.32,292,118,116.23,116,13508,42009,355,0.97,-0.21,-0.09,3.08,-37.83,-0.26,-12.93,-74.9,-0.14,-4.15,0.55,-0.65,-6.98,Forward Fall while Sitting
14:10.1,121,254,381,572,295,2.47,405.22,1.44,142.32,292,118,116.23,116,13508,55933,473,1.01,-0.25,-0.16,8.56,-42.67,-3.22,-14.14,-72.16,0.77,-8.62,0.31,0.18,-11.16,Forward Fall while Sitting
14:10.2,87,242,363,572,296,2.46,407.15,1.45,142.32,292,118,116.23,116,13508,69857,591,1,-0.2,-0.26,6.49,-46.11,-7.14,-11.39,-70.13,1.48,-13.43,-0.33,0.96,-15.69,Forward Fall while Sitting
14:10.3,114,234,351,572,296,2.46,407.15,1.45,142.32,292,118,116.23,116,13508,83781,709,0.99,-0.21,-0.35,4.57,-44.15,-8.37,-12.07,-66.05,1.99,-18.04,-1.09,1.43,-19.96,Forward Fall while Sitting
14:10.4,209,232,348,572,296,2.46,407.15,1.45,142.32,292,115,116.23,116,13508,97006,824,0.98,-0.2,-0.45,-3.92,-31.04,-5.94,-11.27,-61.65,1.66,-21.31,-1.59,1.14,-22.93,Forward Fall while Sitting
14:10.5,717,261,391.5,717,296,2.46,407.15,1.45,142.32,292,116,116.23,116,13508,110462,940,0.92,-0.18,-0.48,-1.61,-23.36,-2.18,-10.4,-59.45,1.55,-23.9,-1.74,1.08,-25.32,Forward Fall while Sitting
14:10.6,462,272,408,717,298,2.43,411.03,1.46,142.32,292,123,116.23,116,13508,125591,1063,0.91,-0.19,-0.46,-2.74,-22.35,-2.31,-11.21,-59.62,1.34,-26.33,-1.89,0.83,-27.67,Forward Fall while Sitting
14:10.7,599,289,433.5,717,298,2.43,411.03,1.46,148.6,296,122,118.52,118,14046,0,0,0.88,-0.18,-0.53,-2.29,-35.39,-4.85,-10.52,-55.91,1.16,-30.04,-2.29,0.7,-31.07,Forward Fall while Sitting
14:10.8,586,304,456,717,299,2.42,412.98,1.46,148.6,296,122,118.52,118,14046,14884,122,0.89,-0.16,-0.64,0.15,-38.54,-4.88,-9.11,-52.12,1.24,-34.13,-2.7,0.82,-34.85,Forward Fall while Sitting
14:10.9,590,318,477,717,300,2.41,414.94,1.47,148.6,296,123,118.52,118,14046,30013,245,0.82,-0.17,-0.69,-3.57,-24.15,-4.34,-9.84,-47.81,0.94,-36.72,-3.05,0.51,-37.16,Forward Fall while Sitting
14:11.0,465,324,486,717,300,2.41,414.94,1.47,148.6,296,125,118.52,118,14046,45638,370,0.81,-0.16,-0.67,-1.86,-16.52,-4.55,-9.31,-47.99,0.81,-38.57,-3.43,0.4,-38.95,Forward Fall while Sitting
14:11.1,488,331,496.5,717,302,2.39,418.86,1.48,148.6,296,125,118.52,118,14046,61263,495,0.79,-0.16,-0.7,-0.82,-20.27,-2.04,-9.4,-46.13,0.78,-40.82,-3.56,0.37,-41.03,Forward Fall while Sitting
14:11.2,614,343,514.5,717,302,2.39,418.86,1.48,148.6,296,125,118.52,118,14046,76888,620,0.75,-0.16,-0.69,-3.39,-25.53,-2.52,-9.35,-45.06,0.5,-43.57,-3.73,0.1,-43.63,Forward Fall while Sitting
14:11.3,644,355,532.5,717,303,2.38,420.83,1.48,148.6,296,128,118.52,118,14046,93272,748,0.72,-0.16,-0.77,-4.22,-26.56,-1.55,-8.95,-40.78,0.13,-46.4,-3.81,-0.23,-46.18,Forward Fall while Sitting
14:11.4,651,366,549,717,303,2.38,420.83,1.48,148.6,296,128,118.52,118,14046,109656,876,0.69,-0.15,-0.82,-4.94,-12.42,0.17,-8.75,-37.99,-0.31,-47.87,-3.71,-0.65,-47.48,Forward Fall while Sitting
14:11.5,581,374,561,717,303,2.38,420.83,1.48,148.6,296,123,118.52,118,14046,124785,999,0.7,-0.16,-0.79,-1.47,-14.69,1.5,-9.14,-39.3,-0.4,-49.54,-3.48,-0.75,-49.13,Forward Fall while Sitting
14:11.6,406,375,562.5,717,301,2.4,416.9,1.47,148.6,296,123,118.52,118,14046,139914,1122,0.66,-0.17,-0.81,-2.54,-25.21,-1.27,-9.55,-36.72,-0.6,-52.26,-3.53,-0.96,-51.64,Forward Fall while Sitting
14:11.7,263,372,558,717,301,2.4,416.9,1.47,159.08,301,124,124.62,124,15528,0,0,0.64,-0.17,-0.89,-3.76,-21.57,-1.8,-9.18,-33.42,-0.92,-54.62,-3.63,-1.25,-53.77,Forward Fall while Sitting
14:11.8,380,372,558,717,299,2.42,412.98,1.46,159.08,301,123,124.62,124,15528,15129,123,0.71,-0.17,-0.97,-3.77,-6.27,-0.86,-8.51,-33.91,-1.24,-55.45,-3.63,-1.53,-54.59,Forward Fall while Sitting
14:11.9,460,375,562.5,717,298,2.43,411.03,1.46,159.08,301,123,124.62,124,15528,30258,246,0.62,-0.16,-0.88,-3.63,-3.44,-0.69,-9.02,-33.2,-1.55,-55.99,-3.62,-1.85,-55.08,Forward Fall while Sitting
14:12.0,642,383,574.5,717,298,2.43,411.03,1.46,159.08,301,125,124.62,124,15528,45883,371,0.59,-0.16,-0.89,-2.67,-5.76,-0.91,-9.11,-31.31,-1.76,-56.77,-3.64,-2.06,-55.76,Forward Fall while Sitting
14:12.1,834,397,595.5,834,296,2.46,407.15,1.45,159.08,301,124,124.62,124,15528,61259,495,0.71,-0.17,-1.05,-4.11,2.45,-1.76,-8.45,-32.29,-2.12,-56.73,-3.73,-2.37,-55.75,Forward Fall while Sitting
14:12.2,986,414,621,986,294,2.48,403.29,1.44,159.08,301,123,124.62,124,15528,76388,618,0.62,-0.15,-0.91,-1.96,3.37,-1.82,-8.42,-32.61,-2.26,-56.59,-3.84,-2.51,-55.63,Forward Fall while Sitting
14:12.3,999,431,646.5,999,292,2.5,399.45,1.43,159.08,301,122,124.62,124,15528,91272,740,0.6,-0.15,-0.89,-1.56,1.69,-0.79,-8.57,-32.15,-2.36,-56.62,-3.84,-2.61,-55.64,Forward Fall while Sitting
14:12.4,1000,446,669,1000,290,2.53,395.63,1.42,159.08,301,121,124.62,124,15528,105913,861,0.59,-0.16,-0.9,-1.86,3.43,-1.38,-8.8,-31.47,-2.49,-56.48,-3.9,-2.74,-55.48,Forward Fall while Sitting
14:12.5,1001,461,691.5,1001,288,2.55,391.84,1.41,159.08,301,120,124.62,124,15528,120313,981,0.6,-0.15,-0.89,-1.9,8.43,-1.36,-8.34,-32.4,-2.63,-55.83,-3.96,-2.85,-54.89,Forward Fall while Sitting
14:12.6,1000,476,714,1001,286,2.58,388.06,1.4,159.08,301,120,124.62,124,15528,134713,1101,0.62,-0.15,-0.87,-1.12,11.85,-0.3,-8.35,-33.34,-2.68,-54.84,-3.91,-2.91,-53.98,Forward Fall while Sitting
14:12.7,1000,489,733.5,1001,285,2.59,386.18,1.39,141.79,292,122,122.31,122,14958,0,0,0.64,-0.16,-0.86,-1.7,10.42,-0.42,-9.07,-34.46,-2.8,-54,-3.87,-3.05,-53.22,Forward Fall while Sitting
14:12.8,1000,502,753,1001,283,2.61,382.43,1.38,141.79,292,119,122.31,122,14958,14161,119,0.64,-0.15,-0.86,-1.88,13.42,0.5,-8.73,-34.88,-2.93,-52.85,-3.74,-3.16,-52.13,Forward Fall while Sitting
14:12.9,1000,514,771,1001,282,2.63,380.57,1.38,141.79,292,121,122.31,122,14958,28802,240,0.66,-0.16,-0.86,-1.85,11.8,0.03,-9.08,-35.37,-3.06,-51.87,-3.66,-3.3,-51.21,Forward Fall while Sitting
14:13.0,1000,526,789,1001,280,2.65,376.85,1.37,141.79,292,118,122.31,122,14958,42726,358,0.67,-0.17,-0.83,-0.15,7.6,-0.44,-9.39,-36.85,-3.02,-51.31,-3.62,-3.27,-50.73,Forward Fall while Sitting
14:13.1,999,537,805.5,1001,280,2.65,376.85,1.37,141.79,292,119,122.31,122,14958,56887,477,0.68,-0.16,-0.81,-1.12,13.37,0.4,-9.16,-37.9,-3.07,-50.16,-3.5,-3.32,-49.67,Forward Fall while Sitting
14:13.2,997,547,820.5,1001,279,2.67,375,1.36,141.79,292,120,122.31,122,14958,71287,597,0.69,-0.17,-0.79,-0.57,7.28,0.18,-9.75,-38.79,-3.07,-49.63,-3.4,-3.34,-49.2,Forward Fall while Sitting
14:13.3,892,555,832.5,1001,279,2.67,375,1.36,141.79,292,120,122.31,122,14958,85687,717,0.68,-0.16,-0.81,-1.48,7.74,-0.1,-9.28,-37.79,-3.17,-49.06,-3.33,-3.41,-48.61,Forward Fall while Sitting
14:13.4,883,562,843,1001,279,2.67,375,1.36,141.79,292,120,122.31,122,14958,100087,837,0.71,-0.17,-0.8,-0.85,13.9,-0.58,-9.48,-39.61,-3.2,-47.86,-3.31,-3.45,-47.53,Forward Fall while Sitting
14:13.5,637,563,844.5,1001,279,2.67,375,1.36,141.79,292,120,122.31,122,14958,114487,957,0.72,-0.18,-0.77,-0.38,12.56,0.05,-10.13,-40.81,-3.18,-46.8,-3.23,-3.46,-46.56,Forward Fall while Sitting
14:13.6,639,565,847.5,1001,279,2.67,375,1.36,141.79,292,120,122.31,122,14958,128887,1077,0.74,-0.18,-0.75,-1.44,12.43,-0.17,-10.11,-42,-3.27,-45.75,-3.17,-3.54,-45.6,Forward Fall while Sitting
14:13.7,481,563,844.5,1001,279,2.67,375,1.36,113.18,279,120,119.7,119,14327,0,0,0.75,-0.17,-0.74,0.87,12.34,-0.2,-9.58,-43.16,-3.12,-44.71,-3.11,-3.38,-44.65,Forward Fall while Sitting
14:13.8,400,560,840,1001,279,2.67,375,1.36,113.18,279,120,119.7,119,14327,14400,120,0.76,-0.18,-0.73,0.3,16.56,0.81,-10.35,-43.54,-3.04,-43.26,-2.95,-3.33,-43.27,Forward Fall while Sitting
14:13.9,304,555,832.5,1001,281,2.64,378.71,1.37,113.18,279,121,119.7,119,14327,29041,241,0.78,-0.19,-0.73,-1.58,25.1,1.88,-10.52,-44.71,-3.14,-40.95,-2.68,-3.44,-41.1,Forward Fall while Sitting
14:14.0,445,553,829.5,1001,281,2.64,378.71,1.37,113.18,279,120,119.7,119,14327,43441,361,0.8,-0.2,-0.69,-4.66,38.37,2.47,-11.33,-46.61,-3.56,-37.27,-2.35,-3.87,-37.65,Forward Fall while Sitting
14:14.1,482,551,826.5,1001,282,2.63,380.57,1.38,113.18,279,121,119.7,119,14327,58082,482,0.86,-0.2,-0.62,-7.85,48.44,3.11,-11.34,-51.13,-4.28,-32.63,-1.96,-4.57,-33.37,Forward Fall while Sitting
14:14.2,584,552,828,1001,282,2.63,380.57,1.38,113.18,279,121,119.7,119,14327,72723,603,0.89,-0.21,-0.51,-13.24,55.24,3.32,-12.32,-56.34,-5.57,-27.25,-1.55,-5.84,-28.41,Forward Fall while Sitting
14:14.3,532,552,828,1001,283,2.61,382.43,1.38,113.18,279,121,119.7,119,14327,87364,724,0.91,-0.16,-0.43,-13.06,51.73,5.7,-9.75,-61.68,-6.83,-22.23,-0.89,-6.94,-23.8,Forward Fall while Sitting
14:14.4,542,551,826.5,1001,284,2.6,384.3,1.39,113.18,279,121,119.7,119,14327,102005,845,0.94,-0.19,-0.33,-8.51,36.23,8.1,-11.53,-66.42,-7.62,-18.8,0,-7.78,-20.71,Forward Fall while Sitting
14:14.5,523,551,826.5,1001,283,2.61,382.43,1.38,113.18,279,121,119.7,119,14327,116646,966,0.9,-0.23,-0.29,-18.82,43.18,10.2,-14.53,-65.98,-9.47,-14.65,1.11,-9.67,-16.7,Forward Fall while Sitting
14:14.6,456,549,823.5,1001,284,2.6,384.3,1.39,113.18,279,121,119.7,119,14327,131287,1087,0.98,-0.22,-0.25,-24.98,40.24,7.6,-13.06,-69.44,-11.93,-10.78,1.96,-11.98,-13.13,Forward Fall while Sitting
14:14.7,746,553,829.5,1001,285,2.59,386.18,1.39,119.23,282,121,120.8,120,14591,0,0,0.99,-0.22,-0.2,-18.63,25.73,9,-12.58,-72,-13.72,-8.43,2.92,-13.68,-10.98,Forward Fall while Sitting
14:14.8,455,551,826.5,1001,286,2.58,388.06,1.4,119.23,282,122,120.8,120,14591,14884,122,0.99,-0.25,-0.18,-11.92,22.56,14.37,-14.54,-71.14,-14.88,-6.34,4.47,-14.87,-8.93,Forward Fall while Sitting
14:14.9,591,552,828,1001,286,2.58,388.06,1.4,119.23,282,121,120.8,120,14591,29525,243,0.98,-0.28,-0.15,-11.25,32.29,13.64,-16.11,-70.58,-15.95,-3.31,5.91,-15.96,-6,Forward Fall while Sitting
14:15.0,572,552,828,1001,287,2.56,389.95,1.4,119.23,282,122,120.8,120,14591,44409,365,0.99,-0.31,-0.08,-8.66,23.53,7.29,-17.91,-70.52,-16.76,-1.15,6.72,-16.81,-3.93,Forward Fall while Sitting
