Datetime, ECGRaw , AvgECG , ampECG , MAX , GSRRaw , Resistance , GSR(kohm) , SCL , GSRRMS , GSRMAV , EMGRaw , EMGRMS , EMGMAV , EMGVAR , EMGSSI , IEMG , AccX , AccY, AccZ , GyroX , GyroY , GyroZ , Aroll , Apitch , Groll , Gpitch, Gyaw , Combroll , Combpitch,Features
39:18.9,425,425,637.5,425,421,1.43,699.34,2.06,0,0,183,0,0,0,4294903938,368,0.97,0.11,0.21,0.4,4.29,2.11,5.55,-74.63,0.56,1.44,0.81,0.76,-1.6,Standing
39:19.0,439,432,648,439,421,1.43,699.34,2.06,0,0,184,0,0,0,4294872258,552,0.97,0.09,0.23,-8.26,-5.23,0.29,4.58,-73.99,-0.38,0.56,0.95,-0.18,-2.42,Standing
39:19.2,996,620,930,996,422,1.42,702.16,2.06,0,0,185,0,0,0,4294840947,737,0.97,0.1,0.24,-4.4,0.92,-2.44,5.3,-73.54,-0.85,0.43,0.74,-0.61,-2.53,Standing
39:19.3,493,588,882,996,422,1.42,702.16,2.06,0,0,183,0,0,0,4294808900,920,0.96,0.11,0.27,-2.21,13.05,-8.15,5.73,-71.72,-1.06,1.79,-0.16,-0.79,-1.15,Standing
39:19.4,599,590,885,996,422,1.42,702.16,2.06,0,0,186,0,0,0,4294777960,1106,0.95,0.13,0.26,-1.95,-1.44,-4.02,6.84,-71.31,-1.23,1.36,-0.56,-0.91,-1.54,Standing
39:19.5,533,580,870,996,422,1.42,702.16,2.06,0,0,186,0,0,0,4294747020,1292,0.94,0.11,0.27,-2.54,-4.34,0.73,5.98,-71.24,-1.47,0.58,-0.37,-1.18,-2.29,Standing
39:19.6,506,570,855,996,422,1.42,702.16,2.06,0,0,186,0,0,0,4294716080,1478,0.95,0.12,0.23,1.5,0.75,-1.01,6.25,-73.35,-1.22,0.43,-0.4,-0.92,-2.52,Standing
39:19.8,458,556,834,996,422,1.42,702.16,2.06,0,0,186,0,0,0,4294685140,1664,0.95,0.12,0.25,2.41,1.55,1.18,6.69,-72.23,-0.85,0.37,-0.16,-0.55,-2.53,Standing
39:19.9,411,540,810,996,423,1.42,705,2.07,20723.85,421,188,20723.55,185,429465504,0,0,0.97,0.11,0.25,-0.82,-2.03,2.61,5.67,-72.47,-0.88,-0.13,0.27,-0.62,-3.02,Standing
39:20.0,570,543,814.5,996,423,1.42,705,2.07,20723.85,421,189,20723.55,185,429465504,4294937481,189,0.97,0.11,0.27,3.69,0.66,-1.01,5.46,-71.67,-0.35,-0.29,0.24,-0.12,-3.15,Standing
39:20.1,586,546,819,996,423,1.42,705,2.07,20723.85,421,185,20723.55,185,429465504,4294906170,374,0.96,0.12,0.22,0.4,-2.73,0.19,6.35,-74.05,-0.23,-0.89,0.36,0.03,-3.82,Standing
39:20.3,450,538,807,996,423,1.42,705,2.07,20723.85,421,188,20723.55,185,429465504,4294875978,562,0.97,0.11,0.22,-0.46,1.5,-1.02,5.86,-73.98,-0.22,-0.95,0.33,0.03,-3.87,Standing
39:20.4,482,534,801,996,423,1.42,705,2.07,20723.85,421,188,20723.55,185,429465504,4294845786,750,0.96,0.12,0.23,-2.08,-0.89,0.46,6.4,-73.49,-0.41,-1.31,0.49,-0.14,-4.2,Standing
39:20.5,950,564,846,996,423,1.42,705,2.07,20723.85,421,186,20723.55,185,429465504,4294814846,936,0.96,0.1,0.26,-0.23,1.75,1.43,5.24,-72.19,-0.37,-1.35,0.77,-0.14,-4.18,Standing
39:20.6,386,552,828,996,423,1.42,705,2.07,20723.85,421,184,20723.55,185,429465504,4294783166,1120,0.97,0.11,0.23,0.63,0.39,-1.06,5.68,-73.49,-0.21,-1.55,0.74,0.02,-4.43,Standing
39:20.8,391,542,813,996,423,1.42,705,2.07,20723.85,421,184,20723.55,185,429465504,4294751486,1304,0.97,0.1,0.24,-1.73,0.6,0.66,4.92,-73.65,-0.36,-1.73,0.92,-0.15,-4.6,Standing
39:20.9,479,538,807,996,422,1.42,702.16,2.06,20723.85,421,184,20723.55,185,429465504,4294719806,1488,0.97,0.11,0.23,0.52,0.85,-1.58,5.46,-73.77,-0.23,-1.87,0.82,0,-4.75,Standing
39:21.0,439,532,798,996,422,1.42,702.16,2.06,20723.85,421,183,20723.55,185,429465504,4294687759,1671,0.98,0.11,0.24,0.21,-0.59,-1.37,5.45,-73.54,-0.13,-2.2,0.75,0.09,-5.05,Standing
39:21.1,472,529,793.5,996,422,1.42,702.16,2.06,20723.87,422,188,20723.56,185,429465760,0,0,0.96,0.1,0.21,0.6,-1.4,-0.7,4.94,-74.81,0.02,-2.62,0.76,0.21,-5.51,Standing
39:21.3,425,524,786,996,422,1.42,702.16,2.06,20723.87,422,187,20723.56,185,429465760,4294936729,187,0.97,0.1,0.21,-2.3,1.36,-1.65,5.35,-74.99,-0.2,-2.7,0.65,0.02,-5.59,Standing
39:21.4,554,525,787.5,996,422,1.42,702.16,2.06,20723.87,422,188,20723.56,185,429465760,4294906537,375,0.97,0.12,0.21,-1.94,1.98,-3,6.17,-74.35,-0.38,-2.7,0.37,-0.11,-5.57,Standing
39:21.5,417,520,780,996,422,1.42,702.16,2.06,20723.87,422,185,20723.56,185,429465760,4294875226,560,0.97,0.11,0.22,-1.03,-1.34,-2.04,5.97,-74.22,-0.44,-3.13,0.21,-0.18,-5.97,Standing
39:21.7,451,517,775.5,996,422,1.42,702.16,2.06,20723.87,422,187,20723.56,185,429465760,4294844659,747,0.96,0.11,0.23,-2.81,1.76,-2.35,5.98,-73.66,-0.72,-3.16,0.01,-0.45,-5.98,Standing
39:21.8,558,519,778.5,996,423,1.42,705,2.07,20723.87,422,184,20723.56,185,429465760,4294812979,931,0.98,0.12,0.21,-3.23,0.24,-0.62,6.4,-74.36,-1.06,-3.38,0.04,-0.76,-6.22,Standing
39:21.9,416,515,772.5,996,423,1.42,705,2.07,20723.87,422,187,20723.56,185,429465760,4294782412,1118,0.97,0.11,0.23,-2.86,-0.51,-0.88,5.97,-73.65,-1.35,-3.7,0.03,-1.06,-6.5,Standing
39:22.0,475,513,769.5,996,423,1.42,705,2.07,20723.87,422,187,20723.56,185,429465760,4294751845,1305,0.96,0.11,0.23,-0.25,2.79,-1.79,5.52,-73.44,-1.31,-3.6,-0.1,-1.04,-6.39,Standing
39:22.2,542,514,771,996,422,1.42,702.16,2.06,20723.87,422,188,20723.56,185,429465760,4294721653,1493,0.96,0.11,0.23,-0.02,0.63,0.66,5.94,-73.33,-1.24,-3.77,0.08,-0.95,-6.55,Standing
39:22.3,458,512,768,996,422,1.42,702.16,2.06,20723.87,422,186,20723.56,185,429465760,4294690713,1679,0.97,0.11,0.23,-0.32,0.74,-0.29,5.58,-73.96,-1.21,-3.93,0.15,-0.94,-6.73,Standing
39:22.4,473,511,766.5,996,423,1.42,705,2.07,20723.86,422,184,20723.56,186,429465888,0,0,0.99,0.11,0.21,1.05,0.04,-1.95,5.65,-74.74,-1.01,-4.18,0,-0.74,-7,Standing
39:22.5,485,510,765,996,423,1.42,705,2.07,20723.86,422,185,20723.56,186,429465888,4294935985,185,0.97,0.11,0.2,-0.44,0.12,-2.04,5.69,-75.16,-0.99,-4.41,-0.16,-0.73,-7.24,Standing
39:22.7,518,510,765,996,423,1.42,705,2.07,20723.86,422,185,20723.56,186,429465888,4294904674,370,0.96,0.12,0.2,-0.24,1.09,-1.24,6.12,-74.84,-0.95,-4.53,-0.21,-0.67,-7.34,Standing
39:22.8,438,508,762,996,423,1.42,705,2.07,20723.86,422,186,20723.56,186,429465888,4294873734,556,0.97,0.12,0.2,-1.17,-0.23,-0.06,6.39,-74.73,-1.03,-4.81,-0.12,-0.73,-7.61,Standing
39:22.9,517,508,762,996,423,1.42,705,2.07,20723.86,422,187,20723.56,186,429465888,4294843167,743,0.98,0.11,0.22,-0.76,2.27,-0.25,5.82,-74.17,-1.06,-4.77,-0.05,-0.78,-7.55,Standing
39:23.0,530,509,763.5,996,423,1.42,705,2.07,20723.86,422,187,20723.56,186,429465888,4294812600,930,0.97,0.11,0.21,-1.21,-0.71,0.31,6.01,-74.65,-1.14,-5.12,0.09,-0.85,-7.9,Standing
39:23.2,395,506,759,996,423,1.42,705,2.07,20723.86,422,188,20723.56,186,429465888,4294782408,1118,0.98,0.1,0.21,-0.45,1.69,-1.73,5.23,-74.94,-1.13,-5.16,-0.03,-0.87,-7.95,Standing
39:23.3,523,506,759,996,424,1.41,707.85,2.07,20723.86,422,188,20723.56,186,429465888,4294752216,1306,0.96,0.12,0.21,-1.26,3.44,-2.34,6.34,-74.5,-1.21,-4.98,-0.23,-0.91,-7.76,Standing
39:23.4,503,506,759,996,424,1.41,707.85,2.07,20723.86,422,187,20723.56,186,429465888,4294721649,1493,0.97,0.12,0.21,-2.65,-0.89,-0.53,6.39,-74.67,-1.48,-5.34,-0.19,-1.16,-8.12,Standing
39:23.5,429,504,756,996,423,1.42,705,2.07,20723.86,422,186,20723.56,186,429465888,4294690709,1679,0.99,0.12,0.21,-3.11,-1.83,-0.47,6.12,-74.93,-1.8,-5.83,-0.15,-1.49,-8.59,Standing
39:23.7,514,504,756,996,423,1.42,705,2.07,20723.88,423,187,20723.56,186,429466016,0,0,0.99,0.12,0.22,-1.03,2.56,-3.41,6.27,-74.2,-1.86,-5.76,-0.48,-1.54,-8.5,Standing
39:23.8,509,504,756,996,423,1.42,705,2.07,20723.88,423,188,20723.56,186,429466016,4294937104,188,0.96,0.12,0.21,2.66,-0.63,-1.67,6.12,-74.37,-1.46,-6.09,-0.59,-1.15,-8.82,Standing
39:23.9,451,503,754.5,996,423,1.42,705,2.07,20723.88,423,187,20723.56,186,429466016,4294906537,375,0.96,0.12,0.21,2.65,4.17,-1.44,6.62,-74.15,-1.05,-5.82,-0.67,-0.74,-8.55,Standing
39:24.1,459,502,753,996,424,1.41,707.85,2.07,20723.88,423,188,20723.56,186,429466016,4294876345,563,0.99,0.13,0.18,2.73,1.27,-1.64,6.92,-75.71,-0.63,-5.91,-0.78,-0.33,-8.7,Standing
39:24.2,525,503,754.5,996,423,1.42,705,2.07,20723.88,423,188,20723.56,186,429466016,4294846153,751,1,0.1,0.22,-6.77,-8.77,0.8,5.01,-74.86,-1.42,-7.27,-0.58,-1.16,-9.97,Standing
39:24.3,428,501,751.5,996,423,1.42,705,2.07,20723.88,423,188,20723.56,186,429466016,4294815961,939,0.99,0.12,0.21,2.27,-0.69,-5.23,6.18,-74.6,-1.06,-7.61,-1.14,-0.77,-10.29,Standing
39:24.4,418,499,748.5,996,424,1.41,707.85,2.07,20723.88,423,188,20723.56,186,429466016,4294785769,1127,0.97,0.11,0.19,3.34,-3.36,-0.61,5.86,-75.75,-0.56,-8.29,-1.12,-0.31,-10.99,Standing
39:24.6,564,500,750,996,424,1.41,707.85,2.07,20723.88,423,189,20723.56,186,429466016,4294755954,1316,0.99,0.11,0.19,2.63,4.2,0.28,5.82,-75.92,-0.16,-8.01,-0.99,0.08,-10.73,Standing
39:24.7,445,499,748.5,996,424,1.41,707.85,2.07,20723.88,423,190,20723.56,186,429466016,4294726518,1506,0.98,0.12,0.19,2.27,11.73,-4.77,6.13,-75.69,0.2,-6.78,-1.49,0.44,-9.54,Standing
39:24.8,449,498,747,996,423,1.42,705,2.07,20723.88,423,187,20723.56,186,429466016,4294695951,1693,0.97,0.13,0.21,-2.05,5.95,-4.61,7.16,-73.93,0.01,-6.29,-1.97,0.3,-8.99,Standing
39:24.9,996,508,762,996,424,1.41,707.85,2.07,20723.89,423,189,20723.58,188,429466624,0,0,0.95,0.15,0.22,-4.24,3.34,-3.59,8,-72.78,-0.45,-6.12,-2.32,-0.11,-8.79,Standing
39:25.1,474,508,762,996,424,1.41,707.85,2.07,20723.89,423,188,20723.58,188,429466624,4294937104,188,0.94,0.15,0.23,-1.49,2.64,-2.46,8.1,-72.03,-0.57,-6.04,-2.53,-0.22,-8.68,Standing
39:25.2,448,506,759,996,424,1.41,707.85,2.07,20723.89,423,189,20723.58,188,429466624,4294907289,377,0.97,0.16,0.23,-2.02,3.67,-6.42,8.38,-72.54,-0.75,-5.83,-3.24,-0.39,-8.5,Standing
39:25.3,516,507,760.5,996,424,1.41,707.85,2.07,20723.89,423,193,20723.58,188,429466624,4294879002,570,0.92,0.16,0.26,-2.18,2.74,-4.74,9.08,-69.98,-0.96,-5.73,-3.74,-0.55,-8.3,Standing
39:25.4,539,507,760.5,996,424,1.41,707.85,2.07,20723.89,423,191,20723.58,188,429466624,4294849947,761,0.95,0.17,0.23,-0.9,0.56,-0.93,9.25,-71.53,-1,-5.92,-3.75,-0.59,-8.54,Standing
39:25.6,505,507,760.5,996,423,1.42,705,2.07,20723.89,423,188,20723.58,188,429466624,4294819755,949,0.97,0.16,0.24,-3.1,-0.92,-2.63,8.69,-71.73,-1.32,-6.29,-3.99,-0.92,-8.9,Standing
39:25.7,469,506,759,996,423,1.42,705,2.07,20723.89,423,192,20723.58,188,429466624,4294791083,1141,0.97,0.18,0.23,-1.23,5.69,-5.5,9.51,-71.86,-1.4,-5.82,-4.58,-0.97,-8.46,Standing
39:25.8,512,507,760.5,996,423,1.42,705,2.07,20723.89,423,188,20723.58,188,429466624,4294760891,1329,0.92,0.19,0.21,-1.83,0.84,-4.85,10.6,-71.39,-1.57,-5.96,-5.1,-1.08,-8.58,Standing
39:25.9,424,505,757.5,996,423,1.42,705,2.07,20723.89,423,188,20723.58,188,429466624,4294730699,1517,0.94,0.19,0.22,-3.11,-0.84,3.85,10.83,-71.22,-1.89,-6.32,-4.51,-1.38,-8.92,Standing
39:26.1,514,505,757.5,996,424,1.41,707.85,2.07,20723.89,423,190,20723.58,188,429466624,4294701263,1707,0.98,0.14,0.24,-1.05,0.97,2.33,7.45,-72.53,-1.95,-6.46,-4.11,-1.57,-9.1,Standing
39:26.2,466,505,757.5,996,423,1.42,705,2.07,20723.89,423,189,20723.59,189,429467136,0,0,0.96,0.18,0.24,0.78,11.79,-6.16,9.82,-71.14,-1.78,-5.24,-4.78,-1.32,-7.88,Standing
39:26.3,455,504,756,996,423,1.42,705,2.07,20723.89,423,189,20723.59,189,429467136,4294937481,189,0.95,0.18,0.25,-4.58,2.58,-6.98,9.91,-70.53,-2.3,-5.17,-5.57,-1.81,-7.78,Standing
39:26.5,452,503,754.5,996,424,1.41,707.85,2.07,20723.89,423,190,20723.59,189,429467136,4294908045,379,0.92,0.19,0.26,-3.27,6.56,-6.06,10.88,-68.96,-2.64,-4.59,-6.23,-2.1,-7.17,Standing
39:26.6,541,503,754.5,996,424,1.41,707.85,2.07,20723.89,423,191,20723.59,189,429467136,4294878990,570,0.91,0.21,0.27,-4.76,0.94,1.1,12.09,-67.6,-3.17,-4.73,-5.99,-2.56,-7.24,Standing
39:26.7,440,502,753,996,424,1.41,707.85,2.07,20723.89,423,189,20723.59,189,429467136,4294849175,759,0.96,0.18,0.29,0.76,0.74,-0.95,9.71,-68.82,-3,-4.89,-6.01,-2.49,-7.44,Standing
39:26.8,420,501,751.5,996,424,1.41,707.85,2.07,20723.89,423,193,20723.59,189,429467136,4294820888,952,0.92,0.2,0.25,-0.08,-4.02,-2.47,11.36,-69.16,-2.94,-5.65,-6.22,-2.37,-8.19,Standing
39:27.0,543,502,753,996,424,1.41,707.85,2.07,20723.89,423,193,20723.59,189,429467136,4294792601,1145,0.91,0.21,0.22,-6.39,-12.36,6.96,12.12,-69.86,-3.68,-7.47,-5.24,-3.05,-9.97,Standing
39:27.1,431,501,751.5,996,424,1.41,707.85,2.07,20723.89,423,190,20723.59,189,429467136,4294763165,1335,0.9,0.21,0.22,-11.45,-5.94,6.76,12.17,-69.89,-5.06,-8.48,-4.28,-4.37,-10.94,Standing
39:27.2,464,500,750,996,424,1.41,707.85,2.07,20723.89,423,193,20723.59,189,429467136,4294734878,1528,0.9,0.17,0.24,-6.4,3.82,9.36,9.8,-70.42,-5.81,-8.25,-2.99,-5.18,-10.74,Standing
39:27.3,544,501,751.5,996,424,1.41,707.85,2.07,20723.89,423,194,20723.59,189,429467136,4294706978,1722,0.97,0.12,0.33,3.94,0.81,2.71,5.87,-68.44,-5.23,-8.4,-2.55,-4.79,-10.8,Standing
39:27.5,404,499,748.5,996,424,1.41,707.85,2.07,20723.9,423,191,20723.6,191,429467776,0,0,1.01,0.13,0.22,-0.71,-9.5,3.63,6.6,-74.18,-5.25,-9.83,-2,-4.78,-12.4,Standing
39:27.6,458,499,748.5,996,424,1.41,707.85,2.07,20723.9,423,190,20723.6,191,429467776,4294937860,190,1,0.09,0.21,-5.31,-10.12,0.08,4.67,-75.24,-5.86,-11.37,-1.89,-5.43,-13.92,Standing
39:27.7,545,499,748.5,996,424,1.41,707.85,2.07,20723.9,423,191,20723.6,191,429467776,4294908805,381,0.98,0.11,0.19,-9.37,-5.81,0.98,5.72,-75.7,-6.98,-12.36,-1.66,-6.47,-14.89,Standing
39:27.8,447,499,748.5,996,424,1.41,707.85,2.07,20723.9,423,190,20723.6,191,429467776,4294879369,571,0.99,0.08,0.2,-8.52,-1.3,0.25,3.72,-76.37,-7.99,-12.78,-1.53,-7.52,-15.32,Standing
39:28.0,465,498,747,996,424,1.41,707.85,2.07,20723.9,423,190,20723.6,191,429467776,4294849933,761,1,0.08,0.2,-6.79,-5.14,-2.75,3.73,-76.54,-8.78,-13.69,-1.78,-8.28,-16.2,Standing
39:28.1,513,498,747,996,424,1.41,707.85,2.07,20723.9,423,194,20723.6,191,429467776,4294822033,955,0.98,0.07,0.13,0.61,1.34,-0.18,3.4,-80.02,-8.63,-13.77,-1.7,-8.15,-16.42,Standing
39:28.2,463,498,747,996,424,1.41,707.85,2.07,20723.9,423,190,20723.6,191,429467776,4294792597,1145,0.96,0.1,0.14,4.18,1.55,2.11,5.35,-78.44,-8.03,-13.83,-1.34,-7.5,-16.41,Standing
39:28.4,460,497,745.5,996,424,1.41,707.85,2.07,20723.9,423,190,20723.6,191,429467776,4294763161,1335,0.99,0.08,0.18,7.54,4.53,6.3,4.23,-76.85,-7,-13.5,-0.44,-6.55,-16.04,Standing
39:28.5,549,498,747,996,424,1.41,707.85,2.07,20723.9,423,194,20723.6,191,429467776,4294735261,1529,1.01,0.08,0.14,6.79,0.05,0.94,4.14,-79.24,-6.07,-13.75,-0.22,-5.66,-16.37,Standing
39:28.6,462,498,747,996,424,1.41,707.85,2.07,20723.9,423,191,20723.6,191,429467776,4294706206,1720,1,0.1,0.11,11.04,18.09,-2.65,5.09,-80.17,-4.6,-11.71,-0.45,-4.21,-14.45,Standing
39:28.7,431,497,745.5,996,424,1.41,707.85,2.07,20723.9,424,196,20723.61,191,429467904,0,0,0.96,0.06,0.17,1.03,15.66,0.21,2.88,-77.98,-4.4,-10.01,-0.33,-4.11,-12.73,Standing
39:28.9,557,498,747,996,424,1.41,707.85,2.07,20723.9,424,197,20723.61,191,429467904,4294940569,197,0.99,0.1,0.21,-4.02,5.69,0.77,5.22,-75.04,-4.83,-9.55,-0.13,-4.43,-12.17,Standing
39:29.0,459,497,745.5,996,424,1.41,707.85,2.07,20723.9,424,193,20723.61,191,429467904,4294912282,390,0.98,0.09,0.21,-4.24,0.18,0.85,4.81,-75.04,-5.3,-9.78,0.07,-4.9,-12.39,Standing
39:29.1,426,496,744,996,424,1.41,707.85,2.07,20723.9,424,196,20723.61,191,429467904,4294885162,586,0.98,0.07,0.25,-3.89,8.05,-3.11,3.12,-73.53,-5.72,-9.02,-0.22,-5.37,-11.6,Standing
39:29.2,534,497,745.5,996,424,1.41,707.85,2.07,20723.9,424,194,20723.61,191,429467904,4294857262,780,0.95,0.1,0.27,-0.79,8.08,-1.04,5.06,-71.71,-5.75,-8.25,-0.25,-5.32,-10.78,Standing
39:29.4,424,496,744,996,424,1.41,707.85,2.07,20723.9,424,196,20723.61,191,429467904,4294830142,976,0.95,0.09,0.27,-4.77,1.85,3.36,4.57,-71.65,-6.28,-8.26,0.28,-5.85,-10.8,Standing
39:29.5,440,495,742.5,996,424,1.41,707.85,2.07,20723.9,424,193,20723.61,191,429467904,4294801855,1169,0.98,0.08,0.29,-4.25,4.69,2.47,3.69,-71.22,-6.75,-7.92,0.69,-6.33,-10.46,Standing
39:29.6,513,495,742.5,996,424,1.41,707.85,2.07,20723.9,424,194,20723.61,191,429467904,4294773955,1363,0.99,0.07,0.26,-2.31,-0.93,-1.79,3.4,-73,-6.97,-8.3,0.56,-6.56,-10.88,Standing
39:29.7,479,495,742.5,996,424,1.41,707.85,2.07,20723.9,424,193,20723.61,191,429467904,4294745668,1556,0.97,0.08,0.24,-3.78,-2.6,-3.2,3.77,-73.76,-7.38,-8.88,0.25,-6.93,-11.48,Standing
39:29.9,443,494,741,996,424,1.41,707.85,2.07,20723.9,424,192,20723.61,191,429467904,4294716996,1748,0.94,0.08,0.22,-1.69,-1.39,-1.05,4.04,-74.27,-7.52,-9.31,0.22,-7.06,-11.91,Standing
39:30.0,497,495,742.5,996,424,1.41,707.85,2.07,20723.9,424,194,20723.63,194,429468896,0,0,0.96,0.06,0.24,-2.41,-1.18,3.61,3.13,-74.12,-7.75,-9.7,0.77,-7.32,-12.28,Standing
39:30.1,517,495,742.5,996,424,1.41,707.85,2.07,20723.9,424,196,20723.63,194,429468896,4294940176,196,0.99,0.07,0.24,0.53,0.12,-0.22,3.19,-74.1,-7.62,-9.94,0.85,-7.18,-12.51,Standing
39:30.2,428,494,741,996,424,1.41,707.85,2.07,20723.9,424,195,20723.63,194,429468896,4294912665,391,0.99,0.06,0.26,-0.73,2.05,-0.79,2.94,-73,-7.64,-9.94,0.85,-7.21,-12.46,Standing
39:30.4,482,494,741,996,424,1.41,707.85,2.07,20723.9,424,194,20723.63,194,429468896,4294884765,585,0.97,0.05,0.25,-1.39,-0.97,-1.57,2.37,-73.75,-7.74,-10.31,0.75,-7.34,-12.85,Standing
39:30.5,522,494,741,996,424,1.41,707.85,2.07,20723.9,424,194,20723.63,194,429468896,4294856865,779,0.97,0.07,0.23,-1.37,-2.4,-2.5,3.39,-74.45,-7.84,-10.87,0.53,-7.4,-13.42,Standing
39:30.6,399,493,739.5,996,424,1.41,707.85,2.07,20723.9,424,194,20723.63,194,429468896,4294828965,973,0.98,0.06,0.24,-1.51,3.31,-1.58,2.66,-74.49,-7.96,-10.71,0.43,-7.54,-13.26,Standing
39:30.8,504,493,739.5,996,424,1.41,707.85,2.07,20723.9,424,195,20723.63,194,429468896,4294801454,1168,0.97,0.07,0.23,0.22,1.76,-1.06,3.61,-74.28,-7.87,-10.74,0.4,-7.41,-13.28,Standing
39:35.7,509,509,763.5,509,424,1.41,707.85,2.07,0,0,201,0,0,0,4294915434,398,0.93,0.15,0.1,1.07,1.2,-4.37,8.29,-77.8,0.78,0.63,-2.38,1.08,-2.51,Left Fall while Standing
39:35.8,544,526,789,544,425,1.41,710.7,2.08,0,0,202,0,0,0,4294890702,600,0.98,0.14,0.16,-3.93,0.82,-0.32,7.25,-76.32,0.36,0.49,-2.32,0.64,-2.58,Left Fall while Standing
39:36.0,586,546,819,586,425,1.41,710.7,2.08,0,0,203,0,0,0,4294866375,803,0.94,0.09,0.15,-5.6,-5.47,10.05,4.79,-78.08,-0.26,-0.43,-0.99,-0.05,-3.54,Left Fall while Standing
39:36.1,589,557,835.5,589,425,1.41,710.7,2.08,0,0,202,0,0,0,4294841643,1005,0.98,0.07,0.21,-4.98,6.11,5.83,3.55,-75.61,-0.8,0.08,-0.16,-0.63,-2.95,Left Fall while Standing
39:36.2,528,551,826.5,589,425,1.41,710.7,2.08,0,0,201,0,0,0,4294816508,1206,1.01,0.08,0.18,0.62,-6.24,1.44,3.85,-77.16,-0.66,-0.93,0.11,-0.48,-3.98,Left Fall while Standing
39:36.3,435,531,796.5,589,424,1.41,707.85,2.07,0,0,201,0,0,0,4294791373,1407,1,0.09,0.15,2.31,-20.69,-12.93,4.48,-78.65,-0.31,-3.73,-1.38,-0.12,-6.72,Left Fall while Standing
39:36.5,469,522,783,589,425,1.41,710.7,2.08,0,0,202,0,0,0,4294766641,1609,1.04,0.06,0.14,-1.07,-6.34,-11.69,2.89,-79.86,-0.37,-4.74,-2.71,-0.24,-7.75,Left Fall while Standing
39:36.6,480,517,775.5,589,425,1.41,710.7,2.08,0,0,202,0,0,0,4294741909,1811,0.96,0.11,0.09,13.25,4.8,-16.31,6.22,-79.86,1.34,-4.4,-4.64,1.54,-7.41,Left Fall while Standing
39:36.7,550,521,781.5,589,425,1.41,710.7,2.08,20723.91,424,206,20723.7,201,429471872,0,0,0.97,0.15,0.1,-2.56,3.23,1.12,8.03,-77.99,1.09,-4.24,-4.4,1.37,-7.19,Left Fall while Standing
39:36.8,561,525,787.5,589,425,1.41,710.7,2.08,20723.91,424,202,20723.7,201,429471872,4294942564,202,1,0.11,0.14,5.95,11.06,-5.46,5.86,-78.15,1.92,-3.1,-4.99,2.07,-6.1,Left Fall while Standing
39:36.9,474,520,780,589,425,1.41,710.7,2.08,20723.91,424,204,20723.7,201,429471872,4294918644,406,0.99,0.17,0.18,5.66,-5.79,-10.42,8.93,-74.32,2.7,-4.08,-6.2,2.95,-6.89,Left Fall while Standing
39:37.1,472,516,774,589,425,1.41,710.7,2.08,20723.91,424,201,20723.7,201,429471872,4294893509,607,1.01,0.22,0.08,13.18,2.89,-32.93,11.64,-75.43,4.43,-3.97,-10.25,4.72,-6.83,Left Fall while Standing
39:37.2,603,523,784.5,603,425,1.41,710.7,2.08,20723.91,424,202,20723.7,201,429471872,4294868777,809,0.93,0.28,0.06,6.5,17.52,-28.42,15.94,-71.46,5.33,-2,-13.76,5.75,-4.78,Left Fall while Standing
39:37.3,467,519,778.5,603,425,1.41,710.7,2.08,20723.91,424,204,20723.7,201,429471872,4294844857,1013,0.95,0.33,0.12,-2.33,6.24,-20.47,18.56,-67.91,5.1,-1.46,-16.26,5.64,-4.12,Left Fall while Standing
39:37.5,527,519,778.5,603,425,1.41,710.7,2.08,20723.91,424,202,20723.7,201,429471872,4294820125,1215,0.91,0.37,0.16,-1.11,-1.46,-19.92,21.41,-64.31,5.03,-1.9,-18.69,5.69,-4.4,Left Fall while Standing
39:37.6,617,525,787.5,617,425,1.41,710.7,2.08,20723.91,424,206,20723.7,201,429471872,4294797025,1421,0.89,0.41,0.13,0.05,2.27,-21.78,23.88,-62.72,5.11,-1.86,-21.35,5.86,-4.3,Left Fall while Standing
39:37.7,479,522,783,617,424,1.41,707.85,2.07,20723.91,424,206,20723.7,201,429471872,4294773925,1627,0.89,0.44,0.13,-4.92,0.96,-21.14,25.7,-60.98,4.56,-1.99,-23.92,5.4,-4.35,Left Fall while Standing
39:37.8,551,524,786,617,425,1.41,710.7,2.08,20723.91,424,208,20723.7,201,429471872,4294751653,1835,0.97,0.45,0.09,1.21,-6.08,-22.73,24.46,-62.91,4.78,-3.02,-26.7,5.57,-5.42,Left Fall while Standing
39:38.0,576,527,790.5,617,425,1.41,710.7,2.08,20723.92,424,208,20723.73,204,429472928,0,0,0.83,0.53,0.14,-1.01,-3.24,-17.03,31.58,-55.1,4.73,-3.68,-28.73,5.8,-5.73,Left Fall while Standing
39:38.1,497,525,787.5,617,425,1.41,710.7,2.08,20723.92,424,204,20723.73,204,429472928,4294943376,204,0.82,0.55,0.16,5.34,2.84,-13.34,32.88,-53.34,5.47,-3.57,-30.33,6.57,-5.56,Left Fall while Standing
39:38.2,536,526,789,617,425,1.41,710.7,2.08,20723.92,424,208,20723.73,204,429472928,4294921104,412,0.8,0.57,0.1,3.58,1.92,-13.48,34.72,-52.53,6,-3.58,-31.93,7.14,-5.54,Left Fall while Standing
39:38.3,982,546,819,982,425,1.41,710.7,2.08,20723.92,424,206,20723.73,204,429472928,4294898004,618,0.78,0.58,0.11,0.88,1.27,-12.6,35.66,-51.46,6.18,-3.67,-33.43,7.36,-5.58,Left Fall while Standing
39:38.5,475,543,814.5,982,424,1.41,707.85,2.07,20723.92,424,208,20723.73,204,429472928,4294875732,826,0.78,0.6,0.12,0.57,-0.92,-15.22,36.59,-50.33,6.32,-4.04,-35.26,7.53,-5.89,Left Fall while Standing
39:38.6,501,542,813,982,425,1.41,710.7,2.08,20723.92,424,208,20723.73,204,429472928,4294853460,1034,0.75,0.65,0.09,3.31,-1.59,-18.44,40.19,-47.17,6.81,-4.49,-37.48,8.15,-6.2,Left Fall while Standing
39:38.7,588,543,814.5,982,425,1.41,710.7,2.08,20723.92,424,205,20723.73,204,429472928,4294829949,1239,0.75,0.67,0.04,-1.89,1.4,-16.98,41.32,-46.43,6.64,-4.57,-39.54,8.03,-6.24,Left Fall while Standing
39:38.8,430,539,808.5,982,422,1.42,702.16,2.06,20723.92,424,168,20723.73,204,429472928,4294858173,1407,0.65,0.68,0.13,-4.88,8.98,-13.17,45.16,-41.64,6.09,-3.68,-41.11,7.66,-5.2,Left Fall while Standing
39:39.0,551,539,808.5,982,405,1.53,655.34,1.98,20723.92,424,137,20723.73,204,429472928,4294876942,1544,0.68,0.7,0.13,0.11,2.41,-11.12,44.68,-42.15,6.18,-3.63,-42.42,7.72,-5.17,Left Fall while Standing
39:39.1,534,539,808.5,982,404,1.53,652.67,1.97,20723.92,424,156,20723.73,204,429472928,4294901278,1700,0.67,0.72,0.11,4.28,-3.22,-11.82,46.14,-41.04,6.79,-4.29,-43.82,8.37,-5.76,Left Fall while Standing
39:39.2,503,538,807,982,407,1.51,660.71,1.99,20723.95,418,159,20724.21,185,429492640,0,0,0.63,0.74,0.05,-3.23,1.61,-7.5,48.87,-38.78,6.46,-4.34,-44.66,8.16,-5.72,Left Fall while Standing
39:39.4,497,537,805.5,982,408,1.51,663.41,1.99,20723.95,418,162,20724.21,185,429492640,26244,162,0.64,0.74,0.1,-7.31,6.74,-5.34,48.36,-38.9,5.62,-3.75,-45.22,7.33,-5.16,Left Fall while Standing
39:39.5,601,539,808.5,982,409,1.5,666.12,2,20723.95,418,160,20724.21,185,429492640,51844,322,0.63,0.75,0.12,-2.82,3.21,-6.95,48.86,-38.12,5.33,-3.6,-46,7.08,-4.98,Left Fall while Standing
39:39.6,549,539,808.5,982,409,1.5,666.12,2,20723.95,418,160,20724.21,185,429492640,77444,482,0.61,0.75,0.11,1.12,-0.24,-4.37,49.74,-37.34,5.55,-3.88,-46.45,7.31,-5.22,Left Fall while Standing
39:39.7,424,535,802.5,982,409,1.5,666.12,2,20723.95,418,159,20724.21,185,429492640,102725,641,0.6,0.76,0.1,-0.08,0.56,-4.34,50.79,-36.38,5.61,-4.06,-46.9,7.41,-5.35,Left Fall while Standing
39:39.9,536,535,802.5,982,409,1.5,666.12,2,20723.95,418,161,20724.21,185,429492640,128646,802,0.6,0.76,0.09,-1.63,5.15,-4.45,50.93,-36.36,5.47,-3.66,-47.36,7.29,-4.97,Left Fall while Standing
39:40.0,542,536,804,982,409,1.5,666.12,2,20723.95,418,165,20724.21,185,429492640,155871,967,0.6,0.79,0.09,-2.73,1.16,-5.19,51.57,-35.79,5.2,-3.77,-47.91,7.05,-5.05,Left Fall while Standing
39:40.1,435,533,799.5,982,409,1.5,666.12,2,20723.95,418,164,20724.21,185,429492640,182767,1131,0.55,0.77,0.12,-5.02,0.54,-3.32,52.97,-33.84,4.64,-3.95,-48.23,6.57,-5.15,Left Fall while Standing
39:40.2,434,530,795,982,409,1.5,666.12,2,20723.95,418,161,20724.21,185,429492640,208688,1292,0.59,0.77,0.1,-2.89,2.23,0.94,51.7,-35.52,4.34,-3.92,-48.01,6.24,-5.19,Left Fall while Standing
39:40.4,539,530,795,982,409,1.5,666.12,2,20723.95,418,167,20724.21,185,429492640,236577,1459,0.6,0.78,0.14,-0.56,1.24,1.69,50.86,-35.84,4.34,-4.02,-47.7,6.2,-5.29,Left Fall while Standing
39:40.5,435,528,792,982,408,1.51,663.41,1.99,20723.59,408,165,162.42,162,26379,0,0,0.61,0.77,0.1,-1.71,3.68,-1.97,50.57,-36.63,4.2,-3.81,-47.85,6.05,-5.12,Left Fall while Standing
39:40.6,467,526,789,982,409,1.5,666.12,2,20723.59,408,164,162.42,162,26379,26896,164,0.59,0.76,0.12,-2.02,0.99,-1.5,51.27,-35.59,4.02,-3.94,-47.93,5.91,-5.2,Left Fall while Standing
39:40.7,445,524,786,982,410,1.5,668.84,2,20723.59,408,166,162.42,162,26379,54452,330,0.59,0.77,0.13,-1.05,0.16,2.33,51.46,-35.36,3.96,-4.17,-47.54,5.86,-5.41,Left Fall while Standing
39:40.9,512,524,786,982,409,1.5,666.12,2,20723.59,408,169,162.42,162,26379,83013,499,0.61,0.76,0.13,-1.15,3.54,6.5,50.12,-36.76,3.88,-3.97,-46.63,5.73,-5.28,Left Fall while Standing
39:41.0,522,524,786,982,409,1.5,666.12,2,20723.59,408,164,162.42,162,26379,109909,663,0.63,0.76,0.14,3.84,-2.27,2.43,49.25,-37.46,4.43,-4.5,-46.23,6.22,-5.82,Left Fall while Standing
39:41.1,454,522,783,982,409,1.5,666.12,2,20723.59,408,168,162.42,162,26379,138133,831,0.62,0.73,0.07,1.97,-3.85,5.25,49.22,-38.32,4.74,-5.23,-45.48,6.52,-6.56,Left Fall while Standing
39:41.2,396,520,780,982,409,1.5,666.12,2,20723.59,408,170,162.42,162,26379,167033,1001,0.6,0.75,0.11,-2.45,0.04,8.63,50.11,-37,4.51,-5.48,-44.3,6.33,-6.74,Left Fall while Standing
39:41.4,528,520,780,982,410,1.5,668.84,2,20723.59,408,171,162.42,162,26379,196274,1172,0.68,0.73,0.08,2.95,4.79,6.51,46.43,-41.07,4.94,-5.13,-43.4,6.6,-6.57,Left Fall while Standing
39:41.5,548,520,780,982,409,1.5,666.12,2,20723.59,408,166,162.42,162,26379,223830,1338,0.69,0.72,0.06,-2.37,1.73,6.92,45.44,-42.22,4.72,-5.17,-42.44,6.35,-6.65,Left Fall while Standing
39:41.6,462,519,778.5,982,409,1.5,666.12,2,20723.59,408,168,162.42,162,26379,252054,1506,0.68,0.74,0.12,-6.21,0.1,9.15,46.19,-40.86,4.01,-5.4,-41.2,5.7,-6.82,Left Fall while Standing
39:41.7,360,516,774,982,409,1.5,666.12,2,20723.6,409,169,167.51,167,28060,0,0,0.68,0.7,0.11,-2.95,-3.53,14.05,44.67,-42.39,3.72,-6.09,-39.36,5.35,-7.54,Left Fall while Standing
39:41.9,439,514,771,982,409,1.5,666.12,2,20723.6,409,171,167.51,167,28060,29241,171,0.7,0.67,0.08,4.37,0.58,16.68,42.79,-44.66,4.33,-6.27,-37.17,5.87,-7.8,Left Fall while Standing
39:42.0,498,514,771,982,409,1.5,666.12,2,20723.6,409,171,167.51,167,28060,58482,342,0.74,0.64,0.04,-4.11,-1.69,17.5,40.13,-47.61,3.89,-6.73,-34.91,5.34,-8.36,Left Fall while Standing
39:42.1,451,513,769.5,982,409,1.5,666.12,2,20723.6,409,168,167.51,167,28060,86706,510,0.84,0.61,-0.02,-11.12,1.06,32.22,35.21,-52.61,2.57,-6.84,-30.78,3.88,-8.67,Left Fall while Standing
39:42.2,302,509,763.5,982,404,1.53,652.67,1.97,20723.6,409,152,167.51,167,28060,109810,662,0.83,0.53,0.11,-23.26,-5.66,35.19,32.07,-54.94,-0.27,-7.8,-26.28,1.03,-9.69,Left Fall while Standing
39:42.4,305,505,757.5,982,400,1.56,642.05,1.96,20723.6,409,148,167.51,167,28060,131714,810,0.88,0.47,0.06,-7.15,-6.41,18.53,27.48,-60.14,-1.1,-8.86,-23.85,0.05,-10.91,Left Fall while Standing
39:42.5,419,503,754.5,982,399,1.56,639.42,1.95,20723.6,409,148,167.51,167,28060,153618,958,0.9,0.43,0.07,-10.27,9.24,19.61,24.74,-62.72,-2.31,-7.95,-21.3,-1.23,-10.15,Left Fall while Standing
39:42.6,381,501,751.5,982,398,1.57,636.8,1.95,20723.6,409,146,167.51,167,28060,174934,1104,0.9,0.37,0.12,-12.37,20.73,18.31,21.81,-64.89,-3.8,-5.59,-18.89,-2.77,-7.97,Left Fall while Standing
39:42.7,313,498,747,982,398,1.57,636.8,1.95,20723.6,409,150,167.51,167,28060,197434,1254,0.91,0.36,0.14,-19.09,-0.02,22.66,21,-65.24,-6.12,-5.85,-15.96,-5.03,-8.22,Left Fall while Standing
39:42.9,431,497,745.5,982,398,1.57,636.8,1.95,20723.6,409,149,167.51,167,28060,219635,1403,0.93,0.25,0.19,-15.02,-2.83,25.77,14.37,-69.7,-7.94,-6.46,-12.62,-7.05,-8.99,Left Fall while Standing
39:43.0,490,497,745.5,982,398,1.57,636.8,1.95,105.14,402,151,155.7,155,24242,0,0,0.87,0.24,0.22,-18.37,-4.31,22.04,14.27,-68.16,-10.13,-7.23,-9.81,-9.15,-9.67,Left Fall while Standing
39:43.1,430,495,742.5,982,399,1.56,639.42,1.95,105.14,402,152,155.7,155,24242,23104,152,0.95,0.17,0.19,-11.65,4.3,24.53,9.5,-73.42,-11.51,-6.95,-6.64,-10.67,-9.6,Left Fall while Standing
39:43.2,428,494,741,982,400,1.56,642.05,1.96,105.14,402,153,155.7,155,24242,46513,305,1.02,0.13,0.18,-10.43,-4.01,16.76,6.51,-76.38,-12.75,-7.7,-4.45,-11.98,-10.44,Left Fall while Standing
39:43.4,498,494,741,982,400,1.56,642.05,1.96,105.14,402,155,155.7,155,24242,70538,460,1,0.09,0.13,-4.09,6.92,6.15,4.28,-79.79,-13.19,-7.08,-3.58,-12.49,-9.99,Left Fall while Standing
39:43.5,536,495,742.5,982,400,1.56,642.05,1.96,105.14,402,154,155.7,155,24242,94254,614,1,0.05,0.18,-11,5.08,2.12,2.04,-78.18,-14.49,-6.7,-3.22,-13.83,-9.56,Left Fall while Standing
39:43.6,519,495,742.5,982,400,1.56,642.05,1.96,105.14,402,155,155.7,155,24242,118279,769,1.01,0.05,0.19,-8.34,-3.74,0.13,2.17,-77.38,-15.47,-7.41,-3.1,-14.76,-10.21,Left Fall while Standing
39:43.7,427,494,741,982,400,1.56,642.05,1.96,105.14,402,154,155.7,155,24242,141995,923,1,0.06,0.18,-1.44,2.07,-6.33,2.88,-77.36,-15.58,-7.41,-3.79,-14.84,-10.2,Left Fall while Standing
39:43.9,487,494,741,982,401,1.55,644.69,1.96,105.14,402,156,155.7,155,24242,166331,1079,1,0.07,0.14,-4.76,0.08,-2.31,3.59,-79.37,-16.1,-7.64,-3.98,-15.31,-10.51,Left Fall while Standing
39:44.0,589,496,744,982,400,1.56,642.05,1.96,105.14,402,155,155.7,155,24242,190356,1234,1,0.06,0.17,-3.76,-0.61,-5.46,2.87,-77.93,-16.5,-7.97,-4.57,-15.73,-10.77,Left Fall while Standing
39:44.1,452,495,742.5,982,400,1.56,642.05,1.96,105.14,402,156,155.7,155,24242,214692,1390,0.98,0.1,0.18,-2.87,-1.02,-6.37,4.96,-76.81,-16.79,-8.35,-5.26,-15.92,-11.09,Left Fall while Standing
39:44.2,415,494,741,982,401,1.55,644.69,1.96,170.32,400,155,154.5,154,23870,0,0,0.97,0.09,0.15,-3.18,-5.75,-0.93,4.53,-78.38,-17.11,-9.31,-5.28,-16.25,-12.07,Left Fall while Standing
39:44.4,484,494,741,982,400,1.56,642.05,1.96,170.32,400,156,154.5,154,23870,24336,156,0.98,0.08,0.17,-6.62,-2.5,-1.9,4.27,-77.6,-17.87,-9.87,-5.42,-16.99,-12.58,Left Fall while Standing
39:47.2,457,457,685.5,457,400,1.56,642.05,1.96,0,0,155,0,0,0,48674,312,0.99,0,0.21,-2.83,1.79,-12.41,-0.65,-76.7,-1.03,-0.24,-1.43,-1.02,-3.3,Right Fall while Standing
39:47.3,497,477,715.5,497,399,1.56,639.42,1.95,0,0,155,0,0,0,72699,467,0.98,0.03,0.17,-2.85,4.69,-12.66,1.43,-78.27,-1.31,0.09,-2.89,-1.2,-3.04,Right Fall while Standing
39:47.4,995,649,973.5,995,400,1.56,642.05,1.96,0,0,155,0,0,0,96724,622,0.95,0.04,0.18,-10.11,-4.69,-3.21,1.69,-77.61,-2.48,-0.72,-3.18,-2.31,-3.8,Right Fall while Standing
39:47.5,505,613,919.5,995,399,1.56,639.42,1.95,0,0,155,0,0,0,120749,777,0.95,0.02,0.22,-18.08,-5.6,10.98,0.58,-75.36,-4.63,-1.66,-1.73,-4.42,-4.61,Right Fall while Standing
39:47.7,559,602,903,995,399,1.56,639.42,1.95,0,0,157,0,0,0,145398,934,0.99,-0.01,0.2,-5.26,1.72,21.62,-1.05,-76.81,-5.21,-1.69,1.02,-5.05,-4.7,Right Fall while Standing
39:47.8,515,588,882,995,398,1.57,636.8,1.95,0,0,155,0,0,0,169423,1089,0.98,-0.07,0.2,-5.05,10.76,16.81,-4.51,-76.44,-5.76,-0.62,3.19,-5.71,-3.65,Right Fall while Standing
39:47.9,476,572,858,995,399,1.56,639.42,1.95,0,0,154,0,0,0,193139,1243,1.05,-0.11,0.11,-11.89,2.24,19.97,-6.41,-80.18,-7.15,-0.59,5.72,-7.12,-3.77,Right Fall while Standing
39:48.0,896,612,918,995,398,1.57,636.8,1.95,0,0,154,0,0,0,216855,1397,0.95,-0.15,0.22,-13.68,-3.98,19.63,-9.59,-72.86,-8.76,-1.32,8.23,-8.79,-4.18,Right Fall while Standing
39:48.1,374,586,879,995,398,1.57,636.8,1.95,167.72,399,152,154.9,154,23994,0,0,0.98,-0.21,0.18,-4.09,-2.3,23.08,-12.41,-72.78,-9.2,-1.85,11.19,-9.33,-4.69,Right Fall while Standing
39:48.3,472,574,861,995,397,1.58,634.19,1.94,167.72,399,155,154.9,154,23994,24025,155,0.93,-0.26,0.17,-5.39,-4.71,21.08,-16.01,-70.02,-9.8,-2.69,13.92,-10.05,-5.39,Right Fall while Standing
39:48.4,538,571,856.5,995,397,1.58,634.19,1.94,167.72,399,155,154.9,154,23994,48050,310,0.84,-0.31,0.26,-12.75,1.88,20.63,-19.84,-62.75,-11.32,-2.71,16.6,-11.67,-5.11,Right Fall while Standing
39:48.5,455,561,841.5,995,396,1.58,631.58,1.94,167.72,399,152,154.9,154,23994,71154,462,0.97,-0.35,0.17,-3.34,-0.37,18.32,-19.91,-66.71,-11.67,-3,18.99,-12,-5.55,Right Fall while Standing
39:48.6,718,573,859.5,995,397,1.58,634.19,1.94,167.72,399,152,154.9,154,23994,94258,614,0.95,-0.39,0.13,-2.73,-1.5,13.33,-22.63,-65.06,-11.95,-3.45,20.77,-12.37,-5.91,Right Fall while Standing
39:48.8,465,565,847.5,995,396,1.58,631.58,1.94,167.72,399,153,154.9,154,23994,117667,767,0.96,-0.44,0.11,-7,-1.59,11.07,-24.99,-63.27,-12.75,-3.89,22.25,-13.24,-6.27,Right Fall while Standing
39:48.9,539,564,846,995,396,1.58,631.58,1.94,167.72,399,154,154.9,154,23994,141383,921,0.91,-0.43,0.11,-4.53,-0.24,10.4,-25.99,-62.07,-13.25,-4.18,23.66,-13.76,-6.49,Right Fall while Standing
39:49.0,406,554,831,995,397,1.58,634.19,1.94,167.72,399,153,154.9,154,23994,164792,1074,0.86,-0.46,0.11,-7.27,-1.13,16.63,-28.47,-59.67,-14.09,-4.57,25.84,-14.66,-6.77,Right Fall while Standing
39:49.2,431,546,819,995,397,1.58,634.19,1.94,167.72,399,153,154.9,154,23994,188201,1227,0.91,-0.49,0.11,-6.78,-2.38,10.82,-28.84,-59.45,-14.87,-5.12,27.3,-15.43,-7.29,Right Fall while Standing
39:49.3,494,544,816,995,397,1.58,634.19,1.94,167.72,399,155,154.9,154,23994,212226,1382,0.91,-0.51,0.09,0.53,-2.76,4.73,-29.67,-58.84,-14.74,-5.72,28,-15.33,-7.84,Right Fall while Standing
39:49.4,478,540,810,995,397,1.58,634.19,1.94,162.17,396,154,153.6,153,23593,0,0,0.89,-0.52,0.08,-3.31,-2.73,3.45,-31.04,-57.59,-15.08,-6.31,28.52,-15.72,-8.36,Right Fall while Standing
39:49.5,422,534,801,995,397,1.58,634.19,1.94,162.17,396,153,153.6,153,23593,23409,153,0.86,-0.53,0.07,-3.27,-7.13,3.24,-31.95,-56.78,-15.41,-7.44,29.02,-16.07,-9.41,Right Fall while Standing
39:49.6,470,531,796.5,995,397,1.58,634.19,1.94,162.17,396,153,153.6,153,23593,46818,306,0.89,-0.55,0.05,-6.44,-6.24,1.76,-32.17,-56.69,-16.15,-8.47,29.34,-16.79,-10.4,Right Fall while Standing
39:49.8,597,534,801,995,397,1.58,634.19,1.94,162.17,396,155,153.6,153,23593,70843,461,0.86,-0.54,0.06,-1.52,-4.41,0.87,-32.59,-56.18,-16.27,-9.28,29.55,-16.92,-11.15,Right Fall while Standing
39:49.9,487,532,798,995,398,1.57,636.8,1.95,162.17,396,153,153.6,153,23593,94252,614,0.86,-0.55,0.03,-3.31,-3.7,1.96,-33.2,-55.75,-16.61,-9.99,29.89,-17.28,-11.82,Right Fall while Standing
39:50.0,433,528,792,995,397,1.58,634.19,1.94,162.17,396,153,153.6,153,23593,117661,767,0.86,-0.55,0.02,-5.11,-1.52,0.53,-33.24,-55.73,-17.18,-10.43,30.06,-17.82,-12.24,Right Fall while Standing
39:50.2,513,527,790.5,995,398,1.57,636.8,1.95,162.17,396,155,153.6,153,23593,141686,922,0.85,-0.56,0.01,-4.27,-6.11,3.51,-33.88,-55.11,-17.65,-11.45,30.6,-18.3,-13.2,Right Fall while Standing
39:50.3,588,530,795,995,398,1.57,636.8,1.95,162.17,396,154,153.6,153,23593,165402,1076,0.85,-0.57,0.01,-2.53,-6.49,3.6,-34.4,-54.59,-17.9,-12.52,31.15,-18.56,-14.2,Right Fall while Standing
39:50.4,464,527,790.5,995,398,1.57,636.8,1.95,162.17,396,154,153.6,153,23593,189118,1230,0.85,-0.58,-0.03,-1.54,-4.2,2.43,-34.77,-54.19,-18.02,-13.3,31.56,-18.69,-14.94,Right Fall while Standing
39:50.5,433,524,786,995,398,1.57,636.8,1.95,162.17,396,154,153.6,153,23593,212834,1384,0.87,-0.58,-0.04,-1.47,-1.94,1.32,-34.39,-54.52,-18.14,-13.8,31.82,-18.79,-15.42,Right Fall while Standing
39:50.7,567,525,787.5,995,398,1.57,636.8,1.95,164.36,397,156,154,154,23716,0,0,0.85,-0.59,-0.04,-3.21,0.98,0.4,-35.31,-53.61,-18.47,-13.92,31.97,-19.14,-15.51,Right Fall while Standing
39:50.8,535,525,787.5,995,398,1.57,636.8,1.95,164.36,397,153,154,154,23716,23409,153,0.81,-0.58,-0.02,-2.92,-1.46,0.36,-36.39,-52.58,-18.76,-14.36,32.12,-19.47,-15.89,Right Fall while Standing
39:50.9,465,524,786,995,398,1.57,636.8,1.95,164.36,397,153,154,154,23716,46818,306,0.85,-0.59,-0.04,-1.6,0.44,1.44,-35.02,-53.89,-18.89,-14.55,32.4,-19.54,-16.13,Right Fall while Standing
39:51.0,533,524,786,995,399,1.56,639.42,1.95,164.36,397,154,154,154,23716,70534,460,0.84,-0.6,-0.04,-1.95,0.53,-1.66,-35.95,-52.95,-19.07,-14.74,32.29,-19.74,-16.27,Right Fall while Standing
39:51.2,528,524,786,995,398,1.57,636.8,1.95,164.36,397,154,154,154,23716,94250,614,0.83,-0.6,-0.03,-3.18,-1.79,-1.68,-36.19,-52.77,-19.4,-15.22,32.18,-20.07,-16.72,Right Fall while Standing
39:51.3,468,522,783,995,398,1.57,636.8,1.95,164.36,397,153,154,154,23716,117659,767,0.85,-0.61,-0.04,-5.15,-1.05,-1.81,-36.25,-52.64,-19.98,-15.6,32.05,-20.63,-17.08,Right Fall while Standing
39:51.4,490,521,781.5,995,399,1.56,639.42,1.95,164.36,397,154,154,154,23716,141375,921,0.84,-0.59,-0.02,-1.12,2.92,-3.79,-35.69,-53.29,-20.05,-15.48,31.67,-20.67,-17,Right Fall while Standing
39:51.5,605,524,786,995,399,1.56,639.42,1.95,164.36,397,155,154,154,23716,165400,1076,0.85,-0.59,-0.05,-0.21,0.13,-5.84,-35.22,-53.66,-20,-15.72,31.03,-20.61,-17.24,Right Fall while Standing
39:51.7,553,524,786,995,398,1.57,636.8,1.95,164.36,397,153,154,154,23716,188809,1229,0.84,-0.57,-0.04,1.32,3.28,-6.63,-34.59,-54.31,-19.76,-15.56,30.3,-20.36,-17.11,Right Fall while Standing
39:51.8,451,522,783,995,399,1.56,639.42,1.95,164.36,397,152,154,154,23716,211913,1381,0.86,-0.55,-0.04,-0.37,1.87,-3.33,-33.17,-55.74,-19.74,-15.58,29.98,-20.28,-17.18,Right Fall while Standing
39:51.9,567,524,786,995,398,1.57,636.8,1.95,166.28,398,156,153.7,153,23623,0,0,0.9,-0.55,-0.04,0.17,6.4,-10.77,-32.14,-56.75,-19.65,-15.02,28.73,-20.15,-16.69,Right Fall while Standing
39:52.0,619,526,789,995,398,1.57,636.8,1.95,166.28,398,153,153.7,153,23623,23409,153,0.93,-0.52,-0.02,-8.43,-2.69,-31.76,-29.83,-59.14,-20.63,-15.61,24.86,-21,-17.35,Right Fall while Standing
39:52.2,466,524,786,995,398,1.57,636.8,1.95,166.28,398,152,153.7,153,23623,46513,305,0.88,-0.47,0.02,11.02,3.41,-42.63,-28.79,-60.17,-19.17,-15.43,19.59,-19.56,-17.22,Right Fall while Standing
39:52.3,485,524,786,995,399,1.56,639.42,1.95,166.28,398,153,153.7,153,23623,69922,458,0.9,-0.38,-0.03,11.47,8.93,-19.35,-23.37,-65.55,-17.66,-14.56,17.25,-17.89,-16.6,Right Fall while Standing
39:52.4,816,530,795,995,399,1.56,639.42,1.95,166.28,398,155,153.7,153,23623,93947,613,0.94,-0.35,-0.01,-4.24,2.5,-8.68,-21.25,-67.74,-18.12,-14.5,16.26,-18.25,-16.63,Right Fall while Standing
39:52.5,438,528,792,995,399,1.56,639.42,1.95,166.28,398,152,153.7,153,23623,117051,765,1,-0.35,0.01,-4.14,3.11,-13.64,-19.7,-69.28,-18.57,-14.36,14.64,-18.62,-16.56,Right Fall while Standing
39:52.7,411,526,789,995,399,1.56,639.42,1.95,166.28,398,154,153.7,153,23623,140767,919,1.02,-0.3,0,-3.3,3.84,-30.53,-16.91,-72.09,-18.92,-14.13,10.89,-18.84,-16.44,Right Fall while Standing
39:52.8,475,524,786,995,399,1.56,639.42,1.95,166.28,398,154,153.7,153,23623,164483,1073,0.93,-0.23,0.1,1.24,6.71,-44.03,-14.53,-73.14,-18.69,-13.53,5.44,-18.52,-15.92,Right Fall while Standing
39:52.9,520,524,786,995,399,1.56,639.42,1.95,166.28,398,154,153.7,153,23623,188199,1227,0.99,-0.14,0.03,11.21,16.61,-29.47,-8.88,-79.89,-17.21,-11.69,1.83,-16.87,-14.42,Right Fall while Standing
39:53.0,417,522,783,995,400,1.56,642.05,1.96,166.28,398,154,153.7,153,23623,211915,1381,1.02,-0.09,0.09,-9.31,-10.64,-12.98,-5.43,-81.49,-18.3,-13.27,0.31,-17.79,-16,Right Fall while Standing
39:53.2,412,520,780,995,400,1.56,642.05,1.96,167.72,399,157,153.81,153,23655,0,0,1.03,-0.07,0.02,-9.79,-7.46,-21.42,-4.37,-84.49,-19.46,-14.45,-2.27,-18.85,-17.26,Right Fall while Standing
39:53.3,525,520,780,995,400,1.56,642.05,1.96,167.72,399,153,153.81,153,23655,23409,153,1.03,-0.04,-0.01,-11.95,-4.18,-21.35,-2.94,-86.04,-20.89,-15.23,-4.86,-20.17,-18.06,Right Fall while Standing
39:53.4,453,519,778.5,995,398,1.57,636.8,1.95,167.72,399,148,153.81,153,23655,45313,301,1.02,0.03,0.02,-14.57,2.25,-26.56,1.01,-86.34,-22.66,-15.2,-8.11,-21.71,-18.05,Right Fall while Standing
39:53.5,412,517,775.5,995,396,1.58,631.58,1.94,167.72,399,147,153.81,153,23655,66922,448,0.97,0.1,0,-10.1,-10.96,-22.35,5.46,-82.38,-23.85,-16.82,-10.8,-22.68,-19.44,Right Fall while Standing
39:53.7,516,517,775.5,995,396,1.58,631.58,1.94,167.72,399,148,153.81,153,23655,88826,596,0.97,0.13,-0.02,-8.4,-8.4,-13.99,6.94,-80.75,-24.84,-18.13,-12.47,-23.57,-20.64,Right Fall while Standing
39:53.8,611,518,777,995,396,1.58,631.58,1.94,167.72,399,148,153.81,153,23655,110730,744,0.99,0.13,-0.01,-7.93,5.91,-11.19,6.85,-80.97,-25.77,-17.64,-13.78,-24.46,-20.17,Right Fall while Standing
39:53.9,444,517,775.5,995,396,1.58,631.58,1.94,167.72,399,148,153.81,153,23655,132634,892,1,0.15,-0.02,-9.84,9.65,-6.31,8.14,-79.6,-26.94,-16.68,-14.47,-25.53,-19.19,Right Fall while Standing
39:54.0,445,516,774,995,395,1.59,628.98,1.93,167.72,399,145,153.81,153,23655,153659,1037,1.02,0.19,0.01,-16.17,-2.18,-8.95,9.7,-78.13,-28.87,-17.19,-15.49,-27.33,-19.63,Right Fall while Standing
39:54.2,539,516,774,995,393,1.6,623.81,1.92,167.72,399,144,153.81,153,23655,174395,1181,1,0.17,-0.01,-7.54,-7.14,-3.2,9.28,-78.55,-29.75,-18.35,-15.79,-28.19,-20.75,Right Fall while Standing
39:54.3,505,516,774,995,393,1.6,623.81,1.92,167.72,399,143,153.81,153,23655,194844,1324,0.96,0.19,0,-5.2,0.84,-1.6,10.55,-77.29,-30.33,-18.49,-15.89,-28.7,-20.84,Right Fall while Standing
39:54.4,543,516,774,995,393,1.6,623.81,1.92,159.47,395,143,146.73,146,21528,0,0,0.98,0.17,0.03,-2.47,-0.67,6.73,9,-78.72,-30.57,-18.82,-14.96,-28.99,-21.22,Right Fall while Standing
39:54.6,440,515,772.5,995,393,1.6,623.81,1.92,159.47,395,143,146.73,146,21528,20449,143,1,0.14,0.01,2.02,-3.74,10.66,7.37,-80.45,-30.25,-19.55,-13.52,-28.74,-21.98,Right Fall while Standing
39:54.7,534,515,772.5,995,392,1.61,621.24,1.92,159.47,395,144,146.73,146,21528,41185,287,1.03,0.11,0,2.22,0.62,7.05,5.37,-82.46,-29.9,-19.72,-12.54,-28.49,-22.23,Right Fall while Standing
39:54.8,467,515,772.5,995,393,1.6,623.81,1.92,159.47,395,144,146.73,146,21528,61921,431,1,0.1,-0.02,2.61,2.18,1.99,5.36,-82.4,-29.5,-19.7,-12.19,-28.11,-22.2,Right Fall while Standing
39:54.9,431,513,769.5,995,394,1.6,626.39,1.93,159.47,395,144,146.73,146,21528,82657,575,1.02,0.1,-0.01,0.33,1.14,2.91,5.08,-82.72,-29.39,-19.8,-11.73,-28.01,-22.32,Right Fall while Standing
39:57.6,211,211,316.5,211,395,1.59,628.98,1.93,0,0,145,0,0,0,42634,292,1.03,-0.05,0.02,-18.67,-59.69,11.71,-3.16,-85.51,-3.22,-9.2,1.9,-3.21,-12.25,Forward Fall while Standing
39:57.7,226,218,327,226,394,1.6,626.39,1.93,0,0,146,0,0,0,63950,438,1.01,-0.06,-0.19,-9.01,-40.27,-1.92,-3.83,-77.51,-4.26,-14.4,1.76,-4.24,-16.92,Forward Fall while Standing
39:57.8,648,361,541.5,648,393,1.6,623.81,1.92,0,0,144,0,0,0,84686,582,0.58,0.25,-0.43,-17.11,-57.11,-4.73,18.86,-47.74,-6.31,-21.73,1.27,-5.3,-22.77,Forward Fall while Standing
39:57.9,387,368,552,648,391,1.62,618.67,1.91,0,0,142,0,0,0,104850,724,1,-0.03,-0.39,6.9,-26.6,-5.21,-2.24,-66.89,-5.39,-25.25,0.73,-5.26,-26.91,Forward Fall while Standing
39:58.1,533,401,601.5,648,391,1.62,618.67,1.91,0,0,144,0,0,0,125586,868,0.98,-0.02,-0.53,-2.04,-33.11,2.4,-1.77,-59.66,-5.57,-29.6,1.12,-5.42,-30.8,Forward Fall while Standing
39:58.2,498,417,625.5,648,390,1.62,616.11,1.91,0,0,139,0,0,0,144907,1007,0.89,-0.07,-0.44,0.02,-35.47,5.05,-4.34,-61.91,-5.5,-34.21,1.84,-5.46,-35.32,Forward Fall while Standing
39:58.3,483,426,639,648,389,1.63,613.56,1.9,0,0,140,0,0,0,164507,1147,0.79,-0.08,-0.51,8.12,-30.64,1.04,-5.43,-55.38,-4.43,-38.22,2.07,-4.47,-38.91,Forward Fall while Standing
39:58.4,997,497,745.5,997,393,1.6,623.81,1.92,0,0,147,0,0,0,186116,1294,0.92,-0.07,-0.73,2.95,-22.83,1.02,-3.85,-50.1,-4,-41.28,2.29,-4,-41.63,Forward Fall while Standing
39:58.6,522,500,750,997,394,1.6,626.39,1.93,151.62,392,148,144.23,144,20801,0,0,0.83,-0.07,-0.61,-8.95,-20.57,-0.78,-4.64,-52.02,-5.04,-44.08,2.29,-5.03,-44.4,Forward Fall while Standing
39:58.7,648,515,772.5,997,395,1.59,628.98,1.93,151.62,392,158,144.23,144,20801,24964,158,0.65,-0.09,-0.57,-1.82,-23.57,2.91,-6.63,-46.75,-5.2,-47.27,2.75,-5.26,-47.25,Forward Fall while Standing
39:58.8,699,532,798,997,403,1.54,650,1.97,151.62,392,166,144.23,144,20801,52520,324,0.81,-0.09,-0.81,-1.45,-7.6,0.85,-4.9,-43.31,-5.31,-48.48,2.96,-5.3,-48.28,Forward Fall while Standing
39:58.9,577,535,802.5,997,408,1.51,663.41,1.99,151.62,392,171,144.23,144,20801,81761,495,0.77,-0.08,-0.72,-11.53,-10.67,0.09,-4.71,-45.1,-6.68,-50.07,3.07,-6.6,-49.87,Forward Fall while Standing
39:59.1,996,571,856.5,997,411,1.49,671.57,2.01,151.62,392,175,144.23,144,20801,112386,670,0.74,-0.07,-0.77,-11.32,-16.18,-1.88,-4.26,-42.01,-8.03,-52.34,2.93,-7.88,-51.93,Forward Fall while Standing
39:59.2,585,572,858,997,411,1.49,671.57,2.01,151.62,392,176,144.23,144,20801,143362,846,0.73,-0.04,-0.78,-9.82,-8.02,-1.63,-2.63,-41.55,-9.2,-53.6,2.83,-8.93,-53.12,Forward Fall while Standing
39:59.3,536,569,853.5,997,411,1.49,671.57,2.01,151.62,392,175,144.23,144,20801,173987,1021,0.73,-0.06,-0.8,-2.98,-10.23,-0.35,-4.02,-40.68,-9.5,-55.13,2.88,-9.28,-54.55,Forward Fall while Standing
39:59.4,433,561,841.5,997,411,1.49,671.57,2.01,151.62,392,177,144.23,144,20801,205316,1198,0.69,-0.06,-0.82,-1.66,-0.58,2.53,-3.95,-38.61,-9.64,-55.46,3.3,-9.41,-54.78,Forward Fall while Standing
39:59.6,529,559,838.5,997,412,1.48,674.3,2.01,151.62,392,180,144.23,144,20801,237716,1378,0.7,-0.07,-0.8,-2.68,-3.25,1.93,-4.32,-39.54,-9.9,-56.11,3.64,-9.68,-55.45,Forward Fall while Standing
39:59.7,570,559,838.5,997,412,1.48,674.3,2.01,151.62,392,180,144.23,144,20801,270116,1558,0.71,-0.08,-0.83,1.39,0.7,3.49,-4.56,-38.87,-9.66,-56.28,4.18,-9.45,-55.58,Forward Fall while Standing
39:59.8,459,554,831,997,414,1.47,679.8,2.02,20723.91,408,182,154.18,174,23769,0,0,0.72,-0.11,-0.83,-4.48,-2.13,0.69,-6.15,-39.07,-10.14,-56.79,4.36,-9.98,-56.08,Forward Fall while Standing
39:59.9,462,549,823.5,997,415,1.47,682.57,2.03,20723.91,408,184,154.18,174,23769,4294935616,184,0.7,-0.09,-0.84,-4.17,-4.98,-2.88,-5.23,-37.78,-10.6,-57.67,4.1,-10.38,-56.87,Forward Fall while Standing
40:00.1,561,550,825,997,415,1.47,682.57,2.03,20723.91,408,184,154.18,174,23769,4294903936,368,0.66,-0.06,-0.84,-6.4,-9.08,-3.66,-3.95,-36.59,-11.34,-59.08,3.73,-11.04,-58.18,Forward Fall while Standing
40:00.2,540,550,825,997,416,1.46,685.34,2.03,20723.91,408,187,154.18,174,23769,4294873369,555,0.66,-0.06,-0.87,-4.66,-1.9,-1.08,-3.57,-35.73,-11.86,-59.57,3.7,-11.53,-58.62,Forward Fall while Standing
40:00.3,450,545,817.5,997,417,1.45,688.12,2.04,20723.91,408,188,154.18,174,23769,4294843177,743,0.65,-0.06,-0.84,-2.71,-3.63,-0.35,-4.05,-35.84,-12.13,-60.28,3.75,-11.81,-59.3,Forward Fall while Standing
40:00.4,546,545,817.5,997,419,1.44,693.71,2.05,20723.91,408,193,154.18,174,23769,4294814890,936,0.67,-0.05,-0.86,0.71,3.66,-1.07,-3.46,-36.29,-11.97,-60.06,3.72,-11.63,-59.11,Forward Fall while Standing
40:00.6,571,546,819,997,419,1.44,693.71,2.05,20723.91,408,191,154.18,174,23769,4294785835,1127,0.69,-0.08,-0.89,1.02,11.64,-2.4,-4.53,-35.91,-11.77,-58.85,3.51,-11.48,-57.93,Forward Fall while Standing
40:00.7,449,542,813,997,420,1.44,696.52,2.05,20723.91,408,193,154.18,174,23769,4294757548,1320,0.68,-0.06,-0.85,-4.53,6.29,-3.45,-3.63,-37.07,-12.27,-58.3,3.18,-11.93,-57.45,Forward Fall while Standing
40:00.8,562,543,814.5,997,420,1.44,696.52,2.05,20723.91,408,192,154.18,174,23769,4294728876,1512,0.69,-0.05,-0.82,-5.88,1.11,-3.77,-3.36,-38.34,-12.95,-58.42,2.8,-12.56,-57.61,Forward Fall while Standing
40:00.9,568,544,816,997,420,1.44,696.52,2.05,20723.91,408,194,154.18,174,23769,4294700976,1706,0.7,-0.04,-0.85,-6.1,1.07,-4.76,-2.81,-37.81,-13.64,-58.53,2.3,-13.21,-57.71,Forward Fall while Standing
40:01.1,833,554,831,997,420,1.44,696.52,2.05,20723.78,418,193,20723.59,189,429467264,0,0,0.67,-0.02,-0.81,-3.28,3.99,-4.28,-1.74,-38.16,-13.99,-58.28,1.86,-13.5,-57.48,Forward Fall while Standing
40:01.2,512,553,829.5,997,419,1.44,693.71,2.05,20723.78,418,191,20723.59,189,429467264,4294938241,191,0.71,-0.04,-0.82,-0.87,6.16,-3.62,-2.74,-38.96,-14.03,-57.75,1.5,-13.58,-57,Forward Fall while Standing
40:01.3,524,552,828,997,420,1.44,696.52,2.05,20723.78,418,191,20723.59,189,429467264,4294909186,382,0.73,-0.03,-0.81,3.92,24.03,-4.02,-1.95,-40.19,-13.46,-54.95,1.09,-13,-54.36,Forward Fall while Standing
40:01.4,451,548,822,997,421,1.43,699.34,2.06,20723.78,418,195,20723.59,189,429467264,4294881675,577,0.77,-0.06,-0.81,3.16,40.96,-1.94,-3.62,-41.73,-12.98,-49.97,0.94,-12.61,-49.64,Forward Fall while Standing
40:01.6,571,549,823.5,997,420,1.44,696.52,2.05,20723.78,418,195,20723.59,189,429467264,4294854164,772,0.83,-0.05,-0.67,1.16,58.87,-1.8,-3.25,-49.4,-12.76,-42.74,0.81,-12.38,-43.01,Forward Fall while Standing
40:01.7,466,547,820.5,997,421,1.43,699.34,2.06,20723.78,418,194,20723.59,189,429467264,4294826264,966,0.9,-0.03,-0.59,4.08,47.37,-3.93,-2.1,-55.23,-12.17,-36.93,0.41,-11.77,-37.67,Forward Fall while Standing
40:01.8,460,544,816,997,421,1.43,699.34,2.06,20723.78,418,196,20723.59,189,429467264,4294799144,1162,0.98,-0.03,-0.52,0.04,28.34,-8.78,-1.92,-60.29,-12.09,-33.59,-0.61,-11.69,-34.66,Forward Fall while Standing
40:02.0,546,544,816,997,420,1.44,696.52,2.05,20723.78,418,195,20723.59,189,429467264,4294771633,1357,0.96,0,-0.42,-1.29,32.78,-10.53,-0.83,-64.72,-12.19,-29.65,-1.85,-11.73,-31.05,Forward Fall while Standing
40:02.1,424,541,811.5,997,420,1.44,696.52,2.05,20723.78,418,193,20723.59,189,429467264,4294743346,1550,0.99,0,-0.41,-4.32,35.95,-11.05,-0.59,-65.77,-12.67,-25.27,-3.18,-12.19,-26.89,Forward Fall while Standing
40:02.2,496,540,810,997,421,1.43,699.34,2.06,20723.78,418,199,20723.59,189,429467264,4294717411,1749,1.01,0.04,-0.31,-5.16,46.58,-12.86,1.37,-71.18,-13.26,-19.56,-4.72,-12.68,-21.63,Forward Fall while Standing
40:02.3,416,537,805.5,997,421,1.43,699.34,2.06,20723.83,420,196,20723.64,194,429469024,0,0,1.03,0.06,-0.19,-4.31,37.84,-5.47,2.51,-77.37,-13.73,-15.05,-5.31,-13.08,-17.54,Forward Fall while Standing
40:02.5,468,535,802.5,997,421,1.43,699.34,2.06,20723.83,420,198,20723.64,194,429469024,4294940964,198,1,0.04,-0.11,-4.97,40.4,-0.07,1.73,-81.98,-14.29,-10.17,-5.22,-13.65,-13.04,Forward Fall while Standing
40:02.6,549,535,802.5,997,422,1.42,702.16,2.06,20723.83,420,198,20723.64,194,429469024,4294914632,396,0.97,0.06,-0.05,0.66,39.12,-6.31,2.78,-84,-14.14,-5.42,-5.93,-13.46,-8.56,Forward Fall while Standing
40:02.7,476,534,801,997,423,1.42,705,2.07,20723.83,420,199,20723.64,194,429469024,4294888697,595,0.99,0.04,0.1,-1.82,36.84,3.54,1.64,-82.27,-14.3,-0.99,-5.38,-13.66,-4.24,Forward Fall while Standing
40:02.8,486,533,799.5,997,423,1.42,705,2.07,20723.83,420,200,20723.64,194,429469024,4294863161,795,0.97,0.06,0.26,1.71,47.31,1.01,3.03,-73.15,-14.01,4.71,-5.15,-13.33,1.6,Forward Fall while Standing
40:03.0,504,532,798,997,422,1.42,702.16,2.06,20723.83,420,202,20723.64,194,429469024,4294838429,997,0.95,0.07,0.23,-5.99,-0.51,-2.18,3.62,-74,-14.7,4.4,-5.33,-13.97,1.26,Forward Fall while Standing
40:03.1,474,531,796.5,997,422,1.42,702.16,2.06,20723.83,420,203,20723.64,194,429469024,4294814102,1200,1.03,0.03,0.16,-4.93,-14.11,0.6,1.3,-79.65,-15.26,2.35,-5.15,-14.59,-0.93,Forward Fall while Standing
40:03.2,553,531,796.5,997,423,1.42,705,2.07,20723.83,420,205,20723.64,194,429469024,4294790591,1405,0.98,0.02,0.18,-5.92,-3.98,0.19,0.59,-77.87,-15.94,1.59,-5.02,-15.28,-1.59,Forward Fall while Standing
40:03.4,746,536,804,997,423,1.42,705,2.07,20723.83,420,210,20723.64,194,429469024,4294769155,1615,0.98,0.04,0.14,0.02,-3.15,-3.26,1.74,-79.89,-15.86,0.94,-5.34,-15.16,-2.3,Forward Fall while Standing
40:03.5,459,534,801,997,423,1.42,705,2.07,20723.83,420,210,20723.64,194,429469024,4294747719,1825,0.98,0.04,0.09,-3.52,-5.15,2.78,1.98,-82.61,-16.24,0.04,-4.89,-15.51,-3.27,Forward Fall while Standing
40:03.6,491,533,799.5,997,424,1.41,707.85,2.07,20723.87,422,212,20723.72,203,429472704,0,0,1.02,0.02,0.09,-1.18,-0.49,3.14,0.42,-83.41,-16.31,-0.28,-4.4,-15.64,-3.6,Forward Fall while Standing
40:03.7,527,533,799.5,997,424,1.41,707.85,2.07,20723.87,422,213,20723.72,203,429472704,4294947129,213,1.01,0.01,0.09,-3.76,-2.44,1.05,0.11,-83.13,-16.72,-0.84,-4.16,-16.05,-4.13,Forward Fall while Standing
40:03.9,454,532,798,997,424,1.41,707.85,2.07,20723.87,422,214,20723.72,203,429472704,4294927389,427,1.02,-0.01,0.1,2.11,-3.06,-1.21,-0.91,-82.95,-16.38,-1.48,-4.22,-15.76,-4.74,Forward Fall while Standing
40:04.0,467,530,795,997,424,1.41,707.85,2.07,20723.87,422,208,20723.72,203,429472704,4294905117,635,1.01,0.03,0.07,1.92,2.01,-2.95,1.06,-84.18,-16.07,-1.48,-4.49,-15.38,-4.79,Forward Fall while Standing
40:04.1,458,529,793.5,997,423,1.42,705,2.07,20723.87,422,208,20723.72,203,429472704,4294882845,843,1.01,0.02,0.08,-1.46,1.76,-1.91,0.65,-83.8,-16.18,-1.51,-4.63,-15.51,-4.8,Forward Fall while Standing
40:04.2,401,527,790.5,997,422,1.42,702.16,2.06,20723.87,422,207,20723.72,203,429472704,4294860158,1050,1.01,0.03,0.07,-3.82,0.86,-3.56,0.92,-83.92,-16.59,-1.66,-4.99,-15.89,-4.95,Forward Fall while Standing
40:04.4,422,525,787.5,997,423,1.42,705,2.07,20723.87,422,205,20723.72,203,429472704,4294836647,1255,1.01,0.03,0.09,-3.12,0.12,-0.66,0.96,-82.94,-16.92,-1.9,-4.97,-16.2,-5.14,Forward Fall while Standing
40:04.5,486,524,786,997,423,1.42,705,2.07,20723.87,422,209,20723.72,203,429472704,4294814792,1464,1.02,0.01,0.13,-1.74,2.2,-1.97,-0.06,-81.31,-17.07,-1.87,-5.12,-16.39,-5.05,Forward Fall while Standing
40:04.6,432,522,783,997,423,1.42,705,2.07,20723.87,422,211,20723.72,203,429472704,4294793777,1675,1.01,0.03,0.12,0.8,4.98,-1.76,0.95,-81.65,-16.9,-1.49,-5.24,-16.18,-4.7,Forward Fall while Standing
40:11.0,465,465,697.5,465,424,1.41,707.85,2.07,0,0,223,0,0,0,4294936578,448,1,0.03,0.12,-2.37,-2.92,0.5,1.28,-81.56,0.08,-0.07,-0.05,0.12,-3.33,Sitting
40:11.1,483,474,711,483,425,1.41,710.7,2.08,0,0,223,0,0,0,4294920771,671,1.02,0.02,0.13,-3.01,4.98,-4.61,0.46,-81.17,-0.22,0.3,-0.52,-0.2,-2.96,Sitting
40:11.2,506,484,726,506,424,1.41,707.85,2.07,0,0,225,0,0,0,4294905860,896,0.99,0.04,0.17,-4.17,2.45,-4.8,1.54,-78.51,-0.67,0.35,-1.01,-0.58,-2.8,Sitting
40:11.3,521,493,739.5,521,424,1.41,707.85,2.07,0,0,225,0,0,0,4294890949,1121,0.99,0.04,0.19,-2.83,1.14,-3.32,1.68,-77.06,-0.95,0.25,-1.32,-0.84,-2.85,Sitting
40:11.5,513,497,745.5,521,425,1.41,710.7,2.08,0,0,225,0,0,0,4294876038,1346,0.99,0.04,0.17,-1.22,-3.04,-0.69,1.67,-78.47,-1.03,-0.37,-1.31,-0.92,-3.5,Sitting
40:11.6,459,491,736.5,521,425,1.41,710.7,2.08,0,0,225,0,0,0,4294861127,1571,1,0.03,0.14,0.31,-0.94,-0.96,1.31,-80.13,-0.92,-0.74,-1.33,-0.83,-3.91,Sitting
40:11.7,512,494,741,521,425,1.41,710.7,2.08,0,0,223,0,0,0,4294845320,1794,0.99,0.03,0.14,-0.62,-0.98,-2.58,1.36,-80.21,-0.93,-1.1,-1.55,-0.84,-4.27,Sitting
40:11.8,491,493,739.5,521,425,1.41,710.7,2.08,0,0,226,0,0,0,4294830860,2020,0.97,0.03,0.14,1.85,1.07,1.23,1.4,-80.21,-0.63,-1.22,-1.3,-0.55,-4.38,Sitting
40:12.0,497,494,741,521,425,1.41,710.7,2.08,20723.91,424,228,20723.94,224,429481728,0,0,1,0.03,0.11,-1.88,-3.59,2.39,1.33,-81.68,-0.8,-1.92,-0.9,-0.71,-5.11,Sitting
40:12.1,474,492,738,521,425,1.41,710.7,2.08,20723.91,424,225,20723.94,224,429481728,4294952385,225,0.99,0.03,0.11,-4.68,-1.2,0.97,1.13,-82.03,-1.32,-2.32,-0.68,-1.22,-5.51,Sitting
40:12.2,417,485,727.5,521,425,1.41,710.7,2.08,20723.91,424,225,20723.94,224,429481728,4294937474,450,1,0.01,0.13,-2.54,2.31,0.53,-0.19,-81.28,-1.57,-2.28,-0.51,-1.51,-5.44,Sitting
40:12.3,511,487,730.5,521,425,1.41,710.7,2.08,20723.91,424,226,20723.94,224,429481728,4294923014,676,1.01,0,0.15,-5.79,-0.86,-0.67,-0.51,-80.05,-2.23,-2.64,-0.5,-2.16,-5.74,Sitting
40:12.5,459,485,727.5,521,425,1.41,710.7,2.08,20723.91,424,225,20723.94,224,429481728,4294908103,901,1,0.02,0.12,0.54,2.59,-1.34,0.51,-81.64,-2.09,-2.57,-0.57,-1.98,-5.73,Sitting
40:12.6,469,484,726,521,424,1.41,707.85,2.07,20723.91,424,227,20723.94,224,429481728,4294894096,1128,1,0.02,0.11,-2.98,-0.18,-1.33,0.64,-82.19,-2.39,-2.84,-0.63,-2.27,-6.02,Sitting
40:12.7,537,487,730.5,537,425,1.41,710.7,2.08,20723.91,424,226,20723.94,224,429481728,4294879636,1354,1,0.02,0.12,-2.43,0.11,0.08,0.33,-81.58,-2.63,-3.08,-0.52,-2.51,-6.22,Sitting
40:12.8,993,519,778.5,993,425,1.41,710.7,2.08,20723.91,424,227,20723.94,224,429481728,4294865629,1581,1.01,0.02,0.13,-1.96,1.89,-0.34,0.27,-81.25,-2.81,-3.09,-0.47,-2.68,-6.22,Sitting
40:13.0,465,516,774,993,425,1.41,710.7,2.08,20723.91,424,229,20723.94,224,429481728,4294852534,1810,1.01,0.02,0.13,-1.95,-2,-2.25,0.27,-81.23,-2.98,-3.6,-0.65,-2.85,-6.71,Sitting
40:13.1,505,515,772.5,993,425,1.41,710.7,2.08,20723.91,424,228,20723.94,224,429481728,4294838982,2038,0.97,0.02,0.12,-1.54,0.26,-0.69,0.44,-81.56,-3.11,-3.82,-0.64,-2.97,-6.93,Sitting
40:13.2,471,513,769.5,993,424,1.41,707.85,2.07,20723.91,424,229,20723.96,226,429482592,0,0,1,0.01,0.13,-2.61,-0.98,1.37,-0.17,-81.12,-3.36,-4.19,-0.37,-3.24,-7.27,Sitting
40:13.3,464,510,765,993,425,1.41,710.7,2.08,20723.91,424,225,20723.96,226,429482592,4294952385,225,1,0,0.13,-1.53,-2.46,-5.79,-0.5,-81.28,-3.49,-4.76,-1.01,-3.37,-7.82,Sitting
40:13.5,497,509,763.5,993,425,1.41,710.7,2.08,20723.91,424,225,20723.96,226,429482592,4294937474,450,0.99,0.02,0.13,-3.94,-0.97,-10.16,0.8,-81.08,-3.92,-5.14,-2.2,-3.73,-8.17,Sitting
40:13.6,440,506,759,993,424,1.41,707.85,2.07,20723.91,424,226,20723.96,226,429482592,4294923014,676,1.02,0.05,0.12,1.63,1.34,-0.81,2.45,-81.1,-3.64,-5.22,-2.2,-3.39,-8.26,Sitting
40:13.7,486,505,757.5,993,424,1.41,707.85,2.07,20723.91,424,226,20723.96,226,429482592,4294908554,902,1.05,0.03,0.08,-3.54,-1.72,-0.73,0.81,-83.99,-4.01,-5.69,-2.19,-3.82,-8.82,Sitting
40:13.8,488,505,757.5,993,425,1.41,710.7,2.08,20723.91,424,229,20723.96,226,429482592,4294895459,1131,1.02,0.05,0.08,-2.57,2.53,-8.98,2,-83.13,-4.27,-5.62,-3.23,-4.02,-8.72,Sitting
40:14.0,475,503,754.5,993,425,1.41,710.7,2.08,20723.91,424,226,20723.96,226,429482592,4294880999,1357,1.01,0.07,0.08,-6.31,0.26,-5.02,3.27,-82.56,-5,-5.84,-3.77,-4.67,-8.91,Sitting
40:14.1,480,503,754.5,993,425,1.41,710.7,2.08,20723.91,424,226,20723.96,226,429482592,4294866539,1583,1.03,0.07,0.09,-3.78,1.65,-8.24,3.16,-82.25,-5.41,-5.89,-4.71,-5.06,-8.94,Sitting
40:14.2,504,503,754.5,993,425,1.41,710.7,2.08,20723.91,424,227,20723.96,226,429482592,4294852532,1810,0.99,0.09,0.08,-2.8,3.12,-5.32,4.85,-81.12,-5.69,-5.75,-5.28,-5.27,-8.76,Sitting
40:14.4,450,501,751.5,993,424,1.41,707.85,2.07,20723.91,424,227,20723.96,226,429482592,4294838525,2037,1.01,0.1,0.08,-2.87,-3.79,-4.32,4.94,-81.43,-5.98,-6.48,-5.73,-5.55,-9.48,Sitting
40:14.5,492,500,750,993,425,1.41,710.7,2.08,20723.91,424,227,20723.96,226,429482464,0,0,0.97,0.11,0.05,-12.45,-6.5,-3.6,6,-81.1,-7.47,-7.54,-6.08,-6.93,-10.49,Sitting
40:14.6,486,500,750,993,425,1.41,710.7,2.08,20723.91,424,229,20723.96,226,429482464,4294954201,229,1.01,0.1,0.1,-16.59,0.14,-0.36,5.24,-80.19,-9.51,-7.78,-6.03,-8.92,-10.68,Sitting
40:14.7,490,500,750,993,425,1.41,710.7,2.08,20723.91,424,229,20723.96,226,429482464,4294941106,458,1,0.09,0.1,-16.03,-3.07,-6.05,4.44,-80.86,-11.47,-8.42,-6.7,-10.83,-11.32,Sitting
40:14.9,473,499,748.5,993,425,1.41,710.7,2.08,20723.91,424,227,20723.96,226,429482464,4294927099,685,0.98,0.08,0.11,-14.24,-9.54,-3.69,4.21,-80.4,-13.19,-9.88,-7.06,-12.5,-12.7,Sitting
40:15.0,530,500,750,993,425,1.41,710.7,2.08,20723.91,424,226,20723.96,226,429482464,4294912639,911,0.99,0.11,0.07,-6.07,-12.99,-4.25,5.56,-80.92,-13.89,-11.78,-7.5,-13.11,-14.55,Sitting
40:15.1,444,498,747,993,424,1.41,707.85,2.07,20723.91,424,226,20723.96,226,429482464,4294898179,1137,0.96,0.14,-0.01,-2.47,5.32,0.81,7.96,-79.84,-14.14,-11.36,-7.3,-13.25,-14.1,Sitting
40:15.2,485,498,747,993,424,1.41,707.85,2.07,20723.91,424,230,20723.96,226,429482464,4294885543,1367,1.05,0.11,0.02,-2.34,-11.29,4.24,5.57,-82.16,-14.36,-13.04,-6.66,-13.57,-15.81,Sitting
40:15.4,497,498,747,993,425,1.41,710.7,2.08,20723.91,424,229,20723.96,226,429482464,4294872448,1596,1.01,0.08,0.02,8.26,-5.86,-1.89,4.2,-83.51,-13.23,-14.05,-6.8,-12.54,-16.83,Sitting
40:15.5,440,496,744,993,424,1.41,707.85,2.07,20723.91,424,229,20723.96,226,429482464,4294859353,1825,1,0.09,-0.09,10.1,0.16,2.18,4.42,-81.12,-11.88,-14.28,-6.42,-11.23,-16.96,Sitting
40:15.6,519,497,745.5,993,425,1.41,710.7,2.08,20723.91,424,225,20723.96,226,429482464,4294844442,2050,1.13,0.05,-0.12,4.71,-0.48,8.5,1.98,-82,-11.21,-14.6,-5.24,-10.68,-17.3,Sitting
40:15.8,522,497,745.5,993,425,1.41,710.7,2.08,20723.91,424,226,20723.97,227,429483008,0,0,1.04,0.04,-0.05,8.45,11.44,1.82,1.45,-85.16,-10.08,-13.41,-4.91,-9.62,-16.28,Sitting
40:15.9,996,510,765,996,425,1.41,710.7,2.08,20723.91,424,228,20723.97,227,429483008,4294953744,228,1.02,0.04,0.01,-13.98,-8.32,-1.15,1.54,-86.14,-11.78,-14.72,-4.96,-11.25,-17.58,Sitting
40:16.0,470,509,763.5,996,424,1.41,707.85,2.07,20723.91,424,225,20723.97,227,429483008,4294938833,453,1.02,0.04,0.01,-4.27,4.75,-4.64,1.59,-86.17,-12.25,-14.37,-5.45,-11.7,-17.24,Sitting
40:16.1,497,508,762,996,424,1.41,707.85,2.07,20723.91,424,225,20723.97,227,429483008,4294923922,678,1,0.07,-0.01,-3.92,4.92,-1.05,3.33,-84.49,-12.68,-14,-5.48,-12.04,-16.82,Sitting
40:16.3,467,507,760.5,996,424,1.41,707.85,2.07,20723.91,424,226,20723.97,227,429483008,4294909462,904,0.96,0.09,-0.03,-11.14,1.2,1,4.5,-83.07,-14.02,-14.1,-5.25,-13.28,-16.86,Sitting
40:16.4,501,507,760.5,996,425,1.41,710.7,2.08,20723.91,424,226,20723.97,227,429483008,4294895002,1130,1.02,0.03,0.1,-0.31,8.48,7.56,1.02,-82.69,-13.99,-13.28,-4.19,-13.39,-16.05,Sitting
40:16.5,505,507,760.5,996,424,1.41,707.85,2.07,20723.91,424,226,20723.97,227,429483008,4294880542,1356,1.04,0.03,0.06,5.95,8.69,-1.73,0.98,-84.72,-13.16,-12.42,-4.31,-12.59,-15.31,Sitting
40:16.6,994,518,777,996,425,1.41,710.7,2.08,20723.91,424,228,20723.97,227,429483008,4294866990,1584,1,0.05,0.01,-8.15,4.07,-0.13,2.03,-85.79,-14.12,-12.16,-4.23,-13.48,-15.1,Sitting
40:16.8,481,517,775.5,996,425,1.41,710.7,2.08,20723.91,424,228,20723.97,227,429483008,4294853438,1812,1,0.03,0.12,-7.54,-15.65,4.79,0.99,-81.44,-15.01,-14.4,-3.52,-14.37,-17.08,Sitting
40:16.9,497,517,775.5,996,425,1.41,710.7,2.08,20723.91,424,228,20723.97,227,429483008,4294839886,2040,1.04,0.02,-0.02,8.6,-9.07,3.93,0.3,-87.05,-13.84,-15.82,-2.92,-13.27,-18.66,Sitting
40:17.0,478,516,774,996,425,1.41,710.7,2.08,20723.91,424,227,20723.96,226,429482592,0,0,1.04,0,-0.05,4.39,15.4,-4.24,-0.73,-85.39,-13.22,-14.14,-3.35,-12.72,-16.99,Sitting
40:17.2,501,515,772.5,996,425,1.41,710.7,2.08,20723.91,424,228,20723.96,226,429482592,4294953744,228,1.01,0.02,0.03,-11.59,2.5,-5.11,0.53,-86.46,-14.63,-14.08,-3.9,-14.02,-16.97,Sitting
40:17.3,476,515,772.5,996,425,1.41,710.7,2.08,20723.91,424,224,20723.96,226,429482592,4294938384,452,0.99,0.03,0.06,-5.96,-11.1,2.18,1.27,-84.28,-15.32,-15.74,-3.52,-14.65,-18.48,Sitting
40:17.4,504,514,771,996,425,1.41,710.7,2.08,20723.91,424,228,20723.96,226,429482592,4294924832,680,1.02,0,0.01,-2.24,-4.27,3.21,-0.51,-88.11,-15.53,-16.54,-3.01,-14.93,-19.4,Sitting
40:17.5,456,513,769.5,996,424,1.41,707.85,2.07,20723.91,424,229,20723.96,226,429482592,4294911737,909,1.03,-0.01,0,-3.15,3.1,-3.83,-0.9,-88.09,-15.86,-16.4,-3.4,-15.26,-19.26,Sitting
40:17.7,516,513,769.5,996,424,1.41,707.85,2.07,20723.91,424,229,20723.96,226,429482592,4294898642,1138,1.01,0.03,0.03,-6.53,2.39,-2.34,1.24,-85.78,-16.62,-16.35,-3.6,-15.9,-19.12,Sitting
40:17.8,506,513,769.5,996,424,1.41,707.85,2.07,20723.91,424,229,20723.96,226,429482592,4294885547,1367,1.03,0,0.06,-1.67,-3.2,3.82,-0.69,-85,-16.76,-17.01,-3.01,-16.12,-19.73,Sitting
40:17.9,448,512,768,996,425,1.41,710.7,2.08,20723.91,424,228,20723.96,226,429482592,4294871995,1595,1.05,0.01,-0.01,5.73,-0.14,-1.66,-0.19,-87.91,-15.95,-17.29,-3.12,-15.32,-20.11,Sitting
40:18.0,484,512,768,996,424,1.41,707.85,2.07,20723.91,424,231,20723.96,226,429482592,4294859820,1826,1.04,0.02,-0.05,6.02,16.43,-4.18,0.41,-85.53,-15.12,-15.45,-3.55,-14.5,-18.26,Sitting
40:18.2,484,511,766.5,996,425,1.41,710.7,2.08,20723.91,424,227,20723.96,226,429482592,4294845813,2053,1.01,0.02,0,-1.69,0.65,-6.31,0.83,-87,-15.26,-15.63,-4.26,-14.62,-18.48,Sitting
40:18.3,417,509,763.5,996,425,1.41,710.7,2.08,20723.91,424,227,20723.98,228,429483168,0,0,0.99,0.02,0.07,-0.18,-1.33,-0.93,0.77,-84.43,-15.22,-16.04,-4.28,-14.58,-18.78,Sitting
40:18.4,512,510,765,996,425,1.41,710.7,2.08,20723.91,424,230,20723.98,228,429483168,4294954660,230,1.02,0.02,0.07,-3.37,-3.67,3.44,0.56,-84.32,-15.58,-16.77,-3.74,-14.93,-19.47,Sitting
40:18.6,456,509,763.5,996,424,1.41,707.85,2.07,20723.91,424,227,20723.98,228,429483168,4294940653,457,1.04,0,0.02,-7.35,-0.27,-1.96,-0.49,-87.16,-16.44,-17.06,-3.88,-15.8,-19.86,Sitting
40:18.7,431,507,760.5,996,425,1.41,710.7,2.08,20723.91,424,227,20723.98,228,429483168,4294926646,684,0.99,0,0.09,-3.89,6.05,1.69,-0.65,-83.21,-16.86,-16.54,-3.57,-16.21,-19.21,Sitting
40:18.8,460,507,760.5,996,425,1.41,710.7,2.08,20723.91,424,228,20723.98,228,429483168,4294913094,912,1.04,-0.01,0.08,-0.39,2.11,-4.46,-1.17,-84.02,-16.84,-16.53,-4.04,-16.21,-19.23,Sitting
40:18.9,773,511,766.5,996,425,1.41,710.7,2.08,20723.91,424,227,20723.98,228,429483168,4294899087,1139,1.02,0.02,0.05,-0.72,1.88,-2.24,0.82,-85.16,-16.86,-16.54,-4.22,-16.15,-19.29,Sitting
40:19.1,354,508,762,996,424,1.41,707.85,2.07,20723.91,424,228,20723.98,228,429483168,4294885535,1367,1.03,0.01,0.07,-2.8,0.01,-0.18,0,-84.24,-17.15,-16.8,-4.15,-16.46,-19.5,Sitting
40:19.2,453,507,760.5,996,425,1.41,710.7,2.08,20723.91,424,227,20723.98,228,429483168,4294871528,1594,1.02,0.01,0.03,-2.65,-4.57,-5.27,-0.1,-86.42,-17.41,-17.63,-4.71,-16.72,-20.39,Sitting
40:19.3,440,506,759,996,424,1.41,707.85,2.07,20723.91,424,228,20723.98,228,429483168,4294857976,1822,1.01,0.05,0,-2.45,-3.82,-5.78,2,-85.84,-17.65,-18.38,-5.35,-16.87,-21.08,Sitting
40:19.4,458,506,759,996,425,1.41,710.7,2.08,20723.91,424,226,20723.98,228,429483168,4294843516,2048,1.01,0.04,-0.01,-3.93,-0.12,-2,1.93,-85.82,-18.09,-18.65,-5.51,-17.29,-21.34,Sitting
40:19.6,480,505,757.5,996,425,1.41,710.7,2.08,20723.91,424,227,20723.97,227,429482944,0,0,1.03,0.01,0.02,-8.26,-0.31,-3.47,-0.07,-87.2,-19.05,-18.94,-5.84,-18.29,-21.67,Sitting
40:19.7,407,504,756,996,424,1.41,707.85,2.07,20723.91,424,230,20723.97,227,429482944,4294954660,230,0.99,0.05,0.02,-1.71,3.21,-1.22,2.53,-85.14,-19.2,-18.78,-5.9,-18.33,-21.44,Sitting
40:19.8,472,504,756,996,425,1.41,710.7,2.08,20723.91,424,230,20723.97,227,429482944,4294942024,460,1.07,0.01,0.03,-3.31,-3.17,-6.02,-0.21,-86.61,-19.54,-19.44,-6.56,-18.77,-22.13,Sitting
40:20.0,425,502,753,996,425,1.41,710.7,2.08,20723.91,424,230,20723.97,227,429482944,4294929388,690,0.99,0.08,0,-0.52,1.42,-3.58,4.29,-83.55,-19.54,-19.52,-6.92,-18.59,-22.08,Sitting
40:20.1,451,502,753,996,425,1.41,710.7,2.08,20723.91,424,228,20723.97,227,429482944,4294915836,918,1.01,0.05,0.02,-4.2,0.43,4.57,2.47,-85.08,-20,-19.72,-6.24,-19.1,-22.33,Sitting
40:20.2,540,502,753,996,425,1.41,710.7,2.08,20723.91,424,228,20723.97,227,429482944,4294902284,1146,1.03,0.04,-0.01,-2.89,-2.24,-0.18,1.59,-86.22,-20.3,-20.25,-6.16,-19.42,-22.89,Sitting
40:20.3,449,501,751.5,996,425,1.41,710.7,2.08,20723.91,424,228,20723.97,227,429482944,4294888732,1374,1,0.04,0,-2.89,-1.4,-1.69,1.92,-85.92,-20.59,-20.69,-6.28,-19.69,-23.3,Sitting
40:20.5,468,501,751.5,996,425,1.41,710.7,2.08,20723.91,424,228,20723.97,227,429482944,4294875180,1602,1.01,0.03,0.01,-3.13,1.4,-0.65,1.34,-86.37,-20.92,-20.76,-6.26,-20.03,-23.39,Sitting
40:20.6,540,502,753,996,424,1.41,707.85,2.07,20723.91,424,228,20723.97,227,429482944,4294861628,1830,1.02,0.05,0,-4.87,1.34,-2.25,2.13,-85.71,-21.47,-20.85,-6.44,-20.52,-23.44,Sitting
40:20.7,470,501,751.5,996,425,1.41,710.7,2.08,20723.91,424,229,20723.97,227,429482944,4294848533,2059,1.01,0.05,0.03,-2.87,1.31,-0.76,2.09,-85.33,-21.76,-20.94,-6.44,-20.81,-23.51,Sitting
40:20.8,512,501,751.5,996,425,1.41,710.7,2.08,20723.91,424,229,20723.99,228,429483552,0,0,1.01,0.04,0.02,-1.84,-1.09,-0.18,1.57,-85.89,-21.92,-21.32,-6.36,-20.98,-23.91,Sitting
40:21.0,535,502,753,996,424,1.41,707.85,2.07,20723.91,424,228,20723.99,228,429483552,4294953744,228,1.02,0.04,0,-1.66,-0.15,-0.62,1.57,-86.27,-22.07,-21.6,-6.34,-21.12,-24.19,Sitting
40:21.1,522,502,753,996,424,1.41,707.85,2.07,20723.91,424,228,20723.99,228,429483552,4294940192,456,1,0.06,-0.01,-0.32,0.37,-3.55,2.62,-85.21,-22.03,-21.81,-6.69,-21.05,-24.34,Sitting
40:21.2,544,502,753,996,425,1.41,710.7,2.08,20723.91,424,230,20723.99,228,429483552,4294927556,686,1,0.06,0,-3,2.4,0.31,2.67,-85.17,-22.35,-21.76,-6.55,-21.35,-24.29,Sitting
40:21.4,519,503,754.5,996,424,1.41,707.85,2.07,20723.91,424,229,20723.99,228,429483552,4294914461,915,1.01,0.05,0.03,-2.66,1.11,-1.07,2.09,-85.18,-22.61,-21.87,-6.59,-21.63,-24.4,Sitting
40:21.5,503,503,754.5,996,425,1.41,710.7,2.08,20723.91,424,231,20723.99,228,429483552,4294902286,1146,1.03,0.05,0.01,-0.73,1.36,-1.09,2.13,-85.59,-22.64,-21.95,-6.62,-21.64,-24.5,Sitting
40:21.6,552,503,754.5,996,424,1.41,707.85,2.07,20723.91,424,229,20723.99,228,429483552,4294889191,1375,1.01,0.04,0.03,-1.3,3.89,-0.72,1.49,-85.79,-22.73,-21.71,-6.61,-21.76,-24.28,Sitting
40:21.7,521,503,754.5,996,425,1.41,710.7,2.08,20723.91,424,228,20723.99,228,429483552,4294875639,1603,1.02,0.03,0.03,-1.27,-0.16,-0.66,1.38,-85.98,-22.82,-21.99,-6.6,-21.85,-24.55,Sitting
40:25.4,526,526,789,526,425,1.41,710.7,2.08,0,0,229,0,0,0,4294940194,456,0.99,0.12,0.01,0.13,-13.41,2.81,6.11,-81.68,0.43,-2.8,0.09,0.66,-5.96,Left Fall while Sitting
40:25.5,530,528,792,530,425,1.41,710.7,2.08,0,0,228,0,0,0,4294926642,684,0.99,0.05,-0.03,6.02,1.17,4.41,2.26,-85.21,1.24,-2.9,0.73,1.28,-6.2,Left Fall while Sitting
40:25.6,500,518,777,530,425,1.41,710.7,2.08,0,0,228,0,0,0,4294913090,912,1.06,0.04,0,1.34,10.46,1.83,1.65,-86.18,1.47,-1.87,1.05,1.48,-5.24,Left Fall while Sitting
40:25.8,456,503,754.5,530,424,1.41,707.85,2.07,0,0,228,0,0,0,4294899538,1140,1.07,0.08,0.02,-9.31,8.08,-11.38,3.56,-84.15,0.39,-1.12,-0.25,0.52,-4.45,Left Fall while Sitting
40:25.9,431,488,732,530,424,1.41,707.85,2.07,0,0,228,0,0,0,4294885986,1368,1.01,0.14,0.08,1.53,17.18,-13.02,7.45,-79.1,0.65,0.74,-1.76,0.92,-2.45,Left Fall while Sitting
40:26.0,565,501,751.5,565,425,1.41,710.7,2.08,0,0,228,0,0,0,4294872434,1596,0.95,0.07,0.14,-6.09,17.58,-11.42,3.7,-78.78,-0.03,2.66,-3.07,0.12,-0.6,Left Fall while Sitting
40:26.1,560,509,763.5,565,425,1.41,710.7,2.08,0,0,227,0,0,0,4294858427,1823,0.99,0.13,0.14,-4.73,22.53,-13.11,6.57,-77.49,-0.54,5.18,-4.58,-0.26,1.88,Left Fall while Sitting
40:26.2,609,522,783,609,425,1.41,710.7,2.08,0,0,229,0,0,0,4294845332,2052,1.01,0.19,0.23,12.66,24.02,-21.46,9.61,-71.94,1.08,7.89,-7.12,1.42,4.7,Left Fall while Sitting
40:26.4,583,528,792,609,424,1.41,707.85,2.07,20723.91,424,231,20723.98,228,429483328,0,0,0.95,0.22,0.22,21.62,-3.47,-27.51,12.3,-70.07,3.83,7.21,-10.44,4.17,4.12,Left Fall while Sitting
40:26.5,521,528,792,609,425,1.41,710.7,2.08,20723.91,424,230,20723.98,228,429483328,4294954660,230,0.86,0.34,0.25,23.53,-2.18,-21.93,20.47,-61.99,6.89,6.68,-13.12,7.44,3.94,Left Fall while Sitting
40:26.6,568,531,796.5,609,425,1.41,710.7,2.08,20723.91,424,230,20723.98,228,429483328,4294942024,460,0.87,0.37,0.16,20.43,11.86,-18.95,22.09,-63.65,9.54,7.93,-15.41,10.04,5.06,Left Fall while Sitting
40:26.7,594,536,804,609,425,1.41,710.7,2.08,20723.91,424,232,20723.98,228,429483328,4294930312,692,0.92,0.42,0.1,9.53,6.92,-27.65,23.73,-63.38,10.82,8.55,-18.82,11.34,5.67,Left Fall while Sitting
40:26.9,526,536,804,609,424,1.41,707.85,2.07,20723.91,424,229,20723.98,228,429483328,4294917217,921,0.86,0.46,0.12,9.31,2.31,-22.08,27.21,-59.69,12.07,8.59,-21.53,12.68,5.86,Left Fall while Sitting
40:27.0,540,536,804,609,425,1.41,710.7,2.08,20723.91,424,228,20723.98,228,429483328,4294903665,1149,0.83,0.5,0.13,0.14,2.69,-17.39,30,-56.74,12.16,8.68,-23.62,12.87,6.06,Left Fall while Sitting
40:27.1,585,539,808.5,609,425,1.41,710.7,2.08,20723.91,424,232,20723.98,228,429483328,4294891953,1381,0.86,0.54,0.12,-0.63,1.56,-19.89,31.42,-55.53,12.15,8.62,-26.04,12.92,6.06,Left Fall while Sitting
40:27.3,452,534,801,609,425,1.41,710.7,2.08,20723.91,424,227,20723.98,228,429483328,4294877946,1608,0.83,0.59,0.12,1.46,4.52,-18.5,34.52,-52.49,12.41,8.94,-28.29,13.29,6.49,Left Fall while Sitting
40:27.4,486,531,796.5,609,425,1.41,710.7,2.08,20723.91,424,229,20723.98,228,429483328,4294864851,1837,0.73,0.61,0.14,1.96,-1.27,-19.54,39.04,-47.57,12.73,8.53,-30.67,13.78,6.28,Left Fall while Sitting
40:27.5,926,553,829.5,926,425,1.41,710.7,2.08,20723.91,424,896,20723.98,228,429483328,4294881235,2733,0.75,0.64,0,1.38,3.24,-12.48,39.92,-47.92,12.97,8.68,-32.15,14.05,6.42,Left Fall while Sitting
40:27.6,996,576,864,996,425,1.41,710.7,2.08,20723.92,424,862,20724.15,359,429490336,0,0,0.73,0.66,0.11,-4.44,5.65,-9.54,41.06,-46.07,12.49,9.14,-33.24,13.63,6.93,Left Fall while Sitting
40:27.8,664,580,870,996,426,1.4,713.57,2.08,20723.92,424,802,20724.15,359,429490336,4294955140,802,0.73,0.67,0.17,1.82,1.78,-13.25,41.06,-45.19,12.79,9.11,-34.82,13.92,6.94,Left Fall while Sitting
40:27.9,310,568,852,996,425,1.41,710.7,2.08,20723.92,424,712,20724.15,359,429490336,4294937796,1514,0.7,0.69,0.15,7.01,-1.59,-14.89,43.4,-43.1,13.74,8.66,-36.6,14.93,6.59,Left Fall while Sitting
40:28.0,12,542,813,996,425,1.41,710.7,2.08,20723.92,424,360,20724.15,359,429490336,4294936324,1874,0.65,0.71,0.1,7.01,1.6,-11.48,46.3,-40.98,14.7,8.61,-37.96,15.97,6.62,Left Fall while Sitting
40:28.1,8,519,778.5,996,422,1.42,702.16,2.06,20723.92,424,293,20724.15,359,429490336,4294956637,2167,0.66,0.71,0.08,-2.73,5.05,-5.24,46.65,-40.85,14.43,8.99,-38.52,15.72,7,Left Fall while Sitting
40:28.3,207,506,759,996,413,1.48,677.05,2.02,20723.92,424,290,20724.15,359,429490336,7905,2457,0.67,0.72,0.12,-4.84,8.73,-7.93,46.09,-40.92,13.89,9.84,-39.42,15.18,7.81,Left Fall while Sitting
40:28.4,124,491,736.5,996,403,1.54,650,1.97,20723.92,424,287,20724.15,359,429490336,24738,2744,0.64,0.73,0.13,-2.27,7.27,-10.62,47.78,-39.07,13.68,10.5,-40.66,15.04,8.52,Left Fall while Sitting
40:28.5,284,483,724.5,996,395,1.59,628.98,1.93,20723.92,424,288,20724.15,359,429490336,42146,3032,0.63,0.76,0.13,-4.63,6.19,-7.69,49.29,-37.63,13.16,11.03,-41.53,14.61,9.09,Left Fall while Sitting
40:28.6,426,481,721.5,996,390,1.62,616.11,1.91,20723.92,424,291,20724.15,359,429490336,61291,3323,0.6,0.74,0.15,-5.7,7.68,-6.74,49.52,-36.84,12.52,11.75,-42.28,14,9.8,Left Fall while Sitting
40:28.8,410,478,717,996,387,1.64,608.49,1.89,20723.92,424,295,20724.15,359,429490336,82780,3618,0.6,0.75,0.18,-1.73,8.93,-10.15,49.87,-35.98,12.37,12.61,-43.45,13.87,10.67,Left Fall while Sitting
40:28.9,418,476,714,996,387,1.64,608.49,1.89,48.01,407,295,102.11,391,10425,0,0,0.57,0.77,0.18,1.21,9.47,-12.11,51.57,-34.19,12.59,13.54,-44.85,14.15,11.63,Left Fall while Sitting
40:29.0,588,480,720,996,387,1.64,608.49,1.89,48.01,407,297,102.11,391,10425,22673,297,0.53,0.78,0.17,-0.94,7.98,-8.83,54.06,-31.96,12.54,14.29,-45.85,14.2,12.44,Left Fall while Sitting
40:29.1,587,483,724.5,996,386,1.65,605.97,1.89,48.01,407,300,102.11,391,10425,47137,597,0.52,0.8,0.19,-4.63,7.97,-4.38,54.6,-30.89,12.04,15.03,-46.3,13.74,13.19,Left Fall while Sitting
40:29.3,509,484,726,996,386,1.65,605.97,1.89,48.01,407,304,102.11,391,10425,74017,901,0.53,0.79,0.21,-3.53,5.17,-4.18,54.04,-31.06,11.67,15.42,-46.72,13.36,13.56,Left Fall while Sitting
40:29.4,510,485,727.5,996,387,1.64,608.49,1.89,48.01,407,299,102.11,391,10425,97882,1200,0.53,0.81,0.22,-4.63,8.79,-3.09,53.89,-30.95,11.16,16.26,-47.01,12.87,14.38,Left Fall while Sitting
40:29.5,563,487,730.5,996,388,1.64,611.02,1.9,48.01,407,298,102.11,391,10425,121150,1498,0.51,0.79,0.24,-2.15,3.32,-1.53,53.91,-30.02,10.96,16.43,-47.1,12.68,14.57,Left Fall while Sitting
40:29.6,884,498,747,996,387,1.64,608.49,1.89,48.01,407,300,102.11,391,10425,145614,1798,0.53,0.79,0.23,2.99,-0.21,-6.92,53.36,-31.04,11.41,16.15,-47.87,13.08,14.27,Left Fall while Sitting
40:29.8,543,500,750,996,387,1.64,608.49,1.89,48.01,407,306,102.11,391,10425,173714,2104,0.45,0.83,0.17,-2.18,-3.15,1.11,59.19,-26.59,11.2,15.51,-47.63,13.12,13.83,Left Fall while Sitting
40:29.9,471,499,748.5,996,388,1.64,611.02,1.9,48.01,407,301,102.11,391,10425,198779,2405,0.46,0.81,0.19,-11.53,-3.02,19.5,57.87,-27.42,9.83,14.88,-45.09,11.75,13.19,Left Fall while Sitting
40:30.0,490,499,748.5,996,388,1.64,611.02,1.9,48.01,407,300,102.11,391,10425,223243,2705,0.52,0.74,0.22,-14.27,4.95,30.38,52.2,-32.25,8.12,15.25,-41.2,9.88,13.35,Left Fall while Sitting
40:30.1,518,499,748.5,996,387,1.64,608.49,1.89,137.02,387,300,157.38,300,24769,0,0,0.63,0.69,0.3,-11.15,0.21,33.38,44.03,-38.5,6.81,15.03,-36.99,8.3,12.89,Left Fall while Sitting
40:30.3,494,499,748.5,996,387,1.64,608.49,1.89,137.02,387,304,157.38,300,24769,26880,304,0.71,0.66,0.3,2.47,-3.58,31.85,40.26,-42.73,7.19,14.33,-32.91,8.51,12.05,Left Fall while Sitting
40:30.4,343,495,742.5,996,387,1.64,608.49,1.89,137.02,387,304,157.38,300,24769,53760,608,0.7,0.6,0.25,7.37,-12.28,28.65,38.45,-45.39,8.17,12.58,-29.29,9.38,10.26,Left Fall while Sitting
40:30.5,344,491,736.5,996,387,1.64,608.49,1.89,137.02,387,300,157.38,300,24769,78224,908,0.83,0.55,0.2,7.19,-9.98,28.1,32.45,-53.09,9.14,11.08,-25.68,10.07,8.51,Left Fall while Sitting
40:30.6,468,491,736.5,996,388,1.64,611.02,1.9,137.02,387,299,157.38,300,24769,102089,1207,0.83,0.5,0.14,4.24,-5.6,24.94,30.18,-56.38,9.73,10.14,-22.49,10.55,7.47,Left Fall while Sitting
40:30.8,390,489,733.5,996,388,1.64,611.02,1.9,137.02,387,301,157.38,300,24769,127154,1508,0.87,0.49,0.12,-3.4,6.54,35.4,28.39,-58.56,9.38,10.7,-17.97,10.14,7.93,Left Fall while Sitting
40:30.9,376,486,729,996,387,1.64,608.49,1.89,137.02,387,304,157.38,300,24769,154034,1812,0.87,0.39,0.15,-12.95,11.12,41.51,23.55,-62.42,7.83,11.84,-12.68,8.46,8.87,Left Fall while Sitting
40:31.0,326,483,724.5,996,387,1.64,608.49,1.89,137.02,387,300,157.38,300,24769,178498,2112,0.92,0.28,0.21,-13.67,13.18,33.05,16.16,-67.43,6.19,13.24,-8.45,6.59,10.01,Left Fall while Sitting
40:31.1,399,481,721.5,996,387,1.64,608.49,1.89,137.02,387,300,157.38,300,24769,202962,2412,0.94,0.24,0.25,-19.38,3.05,27.35,13.16,-68.09,3.84,13.37,-4.93,4.21,10.11,Left Fall while Sitting
40:31.3,398,479,718.5,996,387,1.64,608.49,1.89,137.02,387,300,157.38,300,24769,227426,2712,0.95,0.14,0.28,-20.54,-12.89,26.26,7.53,-70.2,1.36,11.53,-1.58,1.61,8.26,Left Fall while Sitting
40:31.4,510,480,720,996,387,1.64,608.49,1.89,137.3,387,303,159.28,301,25368,0,0,1.03,0.07,0.27,-16.51,-25.69,14.6,3.4,-73.17,-0.62,8.09,0.33,-0.46,4.84,Left Fall while Sitting
40:31.5,446,479,718.5,996,387,1.64,608.49,1.89,137.3,387,302,159.28,301,25368,25668,302,0.98,0.09,0.13,-2.84,-0.44,-2.72,4.85,-78.91,-0.9,7.79,0.09,-0.67,4.32,Left Fall while Sitting
40:31.6,440,478,717,996,387,1.64,608.49,1.89,137.3,387,300,159.28,301,25368,50132,602,0.96,0.06,0.18,-11.73,-6.13,3.95,3.05,-77.31,-2.29,6.78,0.68,-2.07,3.42,Left Fall while Sitting
40:31.8,474,478,717,996,387,1.64,608.49,1.89,137.3,387,300,159.28,301,25368,74596,902,1.02,0.11,0.2,6.73,19.68,-7.23,5.32,-75.72,-1.39,8.96,-0.11,-1.12,5.57,Left Fall while Sitting
40:31.9,554,480,720,996,387,1.64,608.49,1.89,137.3,387,300,159.28,301,25368,99060,1202,0.93,0.1,0.15,-10.49,13.73,-5.21,5.22,-77.74,-2.62,10.41,-0.66,-2.31,6.88,Left Fall while Sitting
40:32.0,485,480,720,996,386,1.65,605.97,1.89,137.3,387,302,159.28,301,25368,124728,1504,1,0.11,0.24,-22.92,11.31,-1.92,5.41,-73.61,-5.42,11.57,-0.8,-4.98,8.17,Left Fall while Sitting
40:32.1,430,479,718.5,996,387,1.64,608.49,1.89,137.3,387,299,159.28,301,25368,148593,1803,0.97,0.1,0.34,-13.66,5.09,-13.1,4.79,-68.46,-7.06,11.96,-2.34,-6.58,8.74,Left Fall while Sitting
40:32.3,443,478,717,996,387,1.64,608.49,1.89,137.3,387,301,159.28,301,25368,173658,2104,0.91,0.11,0.32,-10.16,-0.66,-6.87,6.03,-68.03,-8.26,11.63,-3.1,-7.68,8.44,Left Fall while Sitting
40:32.4,530,479,718.5,996,387,1.64,608.49,1.89,137.3,387,300,159.28,301,25368,198122,2404,0.95,0.12,0.32,-5.27,-5.74,-1.69,6.16,-68.91,-8.84,10.66,-3.21,-8.24,7.48,Left Fall while Sitting
40:32.5,534,480,720,996,386,1.65,605.97,1.89,137.3,387,304,159.28,301,25368,225002,2708,0.95,0.13,0.28,6,-8.56,-3.44,6.79,-70.53,-8.03,9.35,-3.54,-7.44,6.16,Left Fall while Sitting
40:32.6,423,479,718.5,996,387,1.64,608.49,1.89,136.17,386,301,158.13,300,25005,0,0,0.96,0.14,0.22,2.73,-3.73,-1.84,7.7,-73.08,-7.63,8.65,-3.67,-7.01,5.38,Left Fall while Sitting
40:32.7,378,477,715.5,996,388,1.64,611.02,1.9,136.17,386,300,158.13,300,25005,24464,300,0.96,0.13,0.24,-2.01,0.73,0.67,6.83,-72.74,-7.81,8.49,-3.49,-7.22,5.24,Left Fall while Sitting
40:32.9,502,478,717,996,387,1.64,608.49,1.89,136.17,386,301,158.13,300,25005,49529,601,0.97,0.12,0.25,2.16,2.35,-2.18,6.43,-72.51,-7.47,8.53,-3.66,-6.91,5.29,Left Fall while Sitting
40:33.0,542,479,718.5,996,386,1.65,605.97,1.89,136.17,386,301,158.13,300,25005,74594,902,0.94,0.15,0.2,2.37,1.44,-4.15,8.33,-73.36,-7.11,8.46,-4.08,-6.49,5.19,Left Fall while Sitting
40:33.1,546,480,720,996,386,1.65,605.97,1.89,136.17,386,303,158.13,300,25005,100867,1205,0.97,0.13,0.23,-6.45,-1.11,2.01,6.97,-73.28,-7.83,8.08,-3.74,-7.24,4.83,Left Fall while Sitting
40:36.9,498,498,747,498,385,1.66,603.45,1.88,0,0,301,0,0,0,51945,605,1.01,-0.03,0.14,-3.58,-2.95,11.16,-2.48,-80.43,-0.19,-0.36,1.95,-0.28,-3.57,Right Fall while Sitting
40:37.0,598,548,822,598,384,1.66,600.94,1.88,0,0,300,0,0,0,76409,905,1.01,-0.06,0.16,-5.87,-1.87,6.76,-3.74,-78.69,-0.84,-0.84,2.88,-0.95,-3.95,Right Fall while Sitting
40:37.2,593,563,844.5,598,384,1.66,600.94,1.88,0,0,302,0,0,0,102077,1207,0.97,-0.06,0.14,-15.49,-7.61,13.42,-4.23,-79.53,-2.67,-2.02,4.63,-2.74,-5.12,Right Fall while Sitting
40:37.3,608,574,861,608,384,1.66,600.94,1.88,0,0,302,0,0,0,127745,1509,0.98,-0.12,0.14,-10.69,-15.06,22.4,-7.56,-77.64,-3.92,-4.12,7.48,-4.07,-7.06,Right Fall while Sitting
40:37.4,466,552,828,608,384,1.66,600.94,1.88,0,0,306,0,0,0,155845,1815,0.97,-0.17,0.13,-7.69,-12.12,14.37,-10.54,-75.85,-4.8,-5.86,9.34,-5.03,-8.66,Right Fall while Sitting
40:37.5,464,537,805.5,608,384,1.66,600.94,1.88,0,0,300,0,0,0,180309,2115,0.96,-0.2,0.1,-7.32,-3.92,21.98,-12.29,-75.32,-5.64,-6.59,12.17,-5.9,-9.34,Right Fall while Sitting
40:37.6,526,536,804,608,384,1.66,600.94,1.88,0,0,300,0,0,0,204773,2415,1,-0.25,0.07,-4.39,2.41,9.4,-14.66,-73.77,-6.1,-6.54,13.41,-6.45,-9.23,Right Fall while Sitting
40:37.8,534,535,802.5,608,384,1.66,600.94,1.88,0,0,300,0,0,0,229237,2715,0.98,-0.26,0.03,-4.78,-3.87,11.09,-15.35,-73.56,-6.62,-7.26,14.87,-6.97,-9.91,Right Fall while Sitting
40:37.9,542,536,804,608,383,1.67,598.44,1.87,128.6,384,300,159.28,301,25369,0,0,0.99,-0.31,0.03,-8.87,-13.55,15.47,-18.05,-70.85,-7.65,-9.19,16.89,-8.07,-11.66,Right Fall while Sitting
40:38.0,541,537,805.5,608,383,1.67,598.44,1.87,128.6,384,300,159.28,301,25369,24464,300,0.96,-0.33,0.01,-5.37,-11.96,15.33,-19.64,-69.35,-8.25,-10.94,18.9,-8.71,-13.27,Right Fall while Sitting
40:38.1,396,524,786,608,383,1.67,598.44,1.87,128.6,384,299,159.28,301,25369,48329,599,0.96,-0.36,0,0.47,0.09,12.95,-20.99,-68.01,-8.12,-11.18,20.63,-8.64,-13.45,Right Fall while Sitting
40:38.3,456,518,777,608,383,1.67,598.44,1.87,128.6,384,299,159.28,301,25369,72194,898,0.91,-0.38,0.02,3.67,11.71,1.99,-23.29,-65.69,-7.6,-9.96,20.98,-8.22,-12.19,Right Fall while Sitting
40:38.4,495,516,774,608,383,1.67,598.44,1.87,128.6,384,301,159.28,301,25369,97259,1199,0.92,-0.38,0,0.97,9.98,12.98,-23.13,-65.87,-7.4,-8.96,22.7,-8.03,-11.24,Right Fall while Sitting
40:38.5,469,513,769.5,608,383,1.67,598.44,1.87,128.6,384,302,159.28,301,25369,122927,1501,0.92,-0.43,0.04,-7.37,-4.24,11.52,-25.75,-63.11,-8.25,-9.74,24.24,-8.95,-11.88,Right Fall while Sitting
40:38.6,434,508,762,608,383,1.67,598.44,1.87,128.6,384,300,159.28,301,25369,147391,1801,0.87,-0.44,0.04,-5.31,7.92,11.47,-27.59,-61.31,-8.85,-9,25.79,-9.6,-11.09,Right Fall while Sitting
40:38.8,978,537,805.5,978,384,1.66,600.94,1.88,128.6,384,298,159.28,301,25369,170659,2099,0.92,-0.46,-0.01,2.72,6.09,8.38,-27.45,-61.54,-8.44,-8.49,26.93,-9.2,-10.61,Right Fall while Sitting
40:38.9,466,533,799.5,978,382,1.68,595.94,1.87,128.6,384,300,159.28,301,25369,195123,2399,0.93,-0.49,0.03,2.23,-4.1,0.35,-28.3,-60.66,-8.1,-9.25,27.08,-8.9,-11.31,Right Fall while Sitting
40:39.0,420,526,789,978,383,1.67,598.44,1.87,128.6,384,300,159.28,301,25369,219587,2699,0.96,-0.48,0.05,12.55,9.82,-16.56,-27.43,-61.44,-6.44,-8.27,25.09,-7.28,-10.39,Right Fall while Sitting
40:39.1,390,519,778.5,978,383,1.67,598.44,1.87,124.97,383,300,156.22,299,24404,0,0,0.91,-0.44,0.01,1.72,11.16,-21.39,-26.61,-62.38,-6.16,-7.13,22.53,-6.98,-9.34,Right Fall while Sitting
40:39.3,447,516,774,978,383,1.67,598.44,1.87,124.97,383,301,156.22,299,24404,25065,301,0.93,-0.41,0.09,-2.75,0.59,-19.2,-23.96,-64.39,-6.43,-7.3,20.25,-7.13,-9.59,Right Fall while Sitting
40:39.4,530,516,774,978,383,1.67,598.44,1.87,124.97,383,301,156.22,299,24404,50130,602,0.95,-0.36,0.08,2.13,7.4,-23.08,-21.17,-67.35,-6.1,-6.63,17.47,-6.7,-9.06,Right Fall while Sitting
40:39.5,964,537,805.5,978,383,1.67,598.44,1.87,124.97,383,300,156.22,299,24404,74594,902,0.96,-0.31,0.1,-0.8,4.57,-14.35,-18.55,-69.58,-6.13,-6.31,15.77,-6.62,-8.84,Right Fall while Sitting
40:39.6,418,531,796.5,978,383,1.67,598.44,1.87,124.97,383,300,156.22,299,24404,99058,1202,0.97,-0.28,0.11,-4.4,-5.94,-15.32,-16.36,-71.34,-6.61,-7.3,13.95,-7,-9.86,Right Fall while Sitting
40:39.8,466,529,793.5,978,383,1.67,598.44,1.87,124.97,383,299,156.22,299,24404,122923,1501,0.98,-0.24,0.11,-0.25,-15.28,-28.15,-14.3,-73.38,-6.57,-9.46,10.53,-6.88,-12.02,Right Fall while Sitting
40:39.9,466,526,789,978,383,1.67,598.44,1.87,124.97,383,300,156.22,299,24404,147387,1801,1.02,-0.19,0.09,1.45,-2.16,-20.15,-10.89,-76.98,-6.32,-9.98,8.1,-6.5,-12.66,Right Fall while Sitting
40:40.0,465,524,786,978,383,1.67,598.44,1.87,124.97,383,300,156.22,299,24404,171851,2101,1.01,-0.15,0.05,-0.85,-2.09,-22.79,-9.23,-79.35,-6.35,-10.5,5.32,-6.47,-13.25,Right Fall while Sitting
40:40.1,463,521,781.5,978,383,1.67,598.44,1.87,124.97,383,300,156.22,299,24404,196315,2401,1.08,-0.09,-0.01,-4.82,-11.45,-29.5,-5.24,-83.75,-6.89,-12.18,1.74,-6.82,-15.04,Right Fall while Sitting
40:40.3,540,522,783,978,383,1.67,598.44,1.87,124.97,383,301,156.22,299,24404,221380,2702,1.02,-0.03,-0.01,-2.15,-7.42,-21.26,-2.02,-86.86,-7.09,-13.37,-0.84,-6.88,-16.31,Right Fall while Sitting
40:40.4,489,521,781.5,978,383,1.67,598.44,1.87,124.97,383,299,156.6,300,24523,0,0,1.01,0.01,0.04,0.11,4.94,-12.63,-0.15,-86.27,-7,-13,-2.32,-6.73,-15.93,Right Fall while Sitting
40:40.5,543,522,783,978,383,1.67,598.44,1.87,124.97,383,301,156.6,300,24523,25065,301,1.04,0.04,0.01,-5.79,-0.79,-11.75,1.56,-86.2,-7.65,-13.35,-3.68,-7.28,-16.26,Right Fall while Sitting
40:40.6,478,520,780,978,383,1.67,598.44,1.87,124.97,383,301,156.6,300,24523,50130,602,1.04,0.05,-0.01,-6.51,-15,-13.35,2.04,-85.78,-8.4,-15.47,-5.25,-7.98,-18.28,Right Fall while Sitting
40:40.8,569,522,783,978,383,1.67,598.44,1.87,124.97,383,304,156.6,300,24523,77010,906,0.99,0.08,-0.01,-5.5,-4.92,-11.53,3.78,-84.02,-9.02,-16.34,-6.61,-8.51,-19.05,Right Fall while Sitting
40:40.9,530,522,783,978,382,1.68,595.94,1.87,124.97,383,302,156.6,300,24523,102678,1208,0.98,0.1,-0.06,-2.99,12.31,-1.91,5.13,-81.79,-9.32,-15.06,-6.75,-8.74,-17.72,Right Fall while Sitting
40:41.0,477,521,781.5,978,383,1.67,598.44,1.87,124.97,383,298,156.6,300,24523,125946,1506,1.05,0.08,0.01,-11.08,-1.5,-3.94,3.67,-84.15,-10.65,-15.5,-7.14,-10.07,-18.24,Right Fall while Sitting
40:41.1,478,519,778.5,978,383,1.67,598.44,1.87,124.97,383,298,156.6,300,24523,149214,1804,1.01,0.1,-0.02,-4.17,-1.33,-3.51,5.15,-82.6,-11.09,-15.91,-7.48,-10.44,-18.58,Right Fall while Sitting
40:41.3,574,521,781.5,978,383,1.67,598.44,1.87,124.97,383,302,156.6,300,24523,174882,2106,1.01,0.09,-0.01,-1.76,1.92,-4.79,4.28,-83.49,-11.25,-15.92,-7.98,-10.63,-18.62,Right Fall while Sitting
40:41.4,444,519,778.5,978,383,1.67,598.44,1.87,124.97,383,301,156.6,300,24523,199947,2407,0.98,0.1,0.02,-3.14,-6.02,2.48,4.99,-82.66,-11.57,-16.93,-7.57,-10.91,-19.56,Right Fall while Sitting
40:41.5,446,517,775.5,978,383,1.67,598.44,1.87,124.97,383,298,156.6,300,24523,223215,2705,1.02,0.08,0,2.08,1.46,4.76,3.95,-83.89,-11.24,-17,-6.88,-10.63,-19.67,Right Fall while Sitting
40:41.6,564,518,777,978,382,1.68,595.94,1.87,124.35,382,299,157.19,300,24707,0,0,1.02,0.07,-0.05,0.21,-1.22,2.38,3.22,-83.76,-11.15,-17.4,-6.49,-10.57,-20.05,Right Fall while Sitting
40:41.8,537,519,778.5,978,382,1.68,595.94,1.87,124.35,382,305,157.19,300,24707,27489,305,1.02,0.08,-0.05,-1.11,-0.59,2.65,3.72,-83.21,-11.21,-17.72,-6.06,-10.62,-20.34,Right Fall while Sitting
40:41.9,437,517,775.5,978,383,1.67,598.44,1.87,124.35,382,299,157.19,300,24707,51354,604,1.01,0.06,-0.03,-1.78,1.18,1.6,2.92,-84.56,-11.37,-17.82,-5.76,-10.8,-20.49,Right Fall while Sitting
40:42.0,502,516,774,978,383,1.67,598.44,1.87,124.35,382,298,157.19,300,24707,74622,902,1.01,0.07,-0.02,-0.61,3.56,-0.34,3.22,-84.52,-11.37,-17.63,-5.7,-10.79,-20.3,Right Fall while Sitting
40:42.1,505,516,774,978,383,1.67,598.44,1.87,124.35,382,300,157.19,300,24707,99086,1202,1.02,0.05,-0.01,-0.63,-0.06,0.8,2.27,-85.49,-11.38,-17.89,-5.5,-10.84,-20.59,Right Fall while Sitting
40:42.3,496,515,772.5,978,383,1.67,598.44,1.87,124.35,382,302,157.19,300,24707,124754,1504,1.02,0.05,0.01,-0.71,3.66,-0.79,2.09,-85.73,-11.4,-17.68,-5.5,-10.86,-20.4,Right Fall while Sitting
40:42.4,432,514,771,978,383,1.67,598.44,1.87,124.35,382,300,157.19,300,24707,149218,1804,1.02,0.05,-0.01,-0.55,2.21,2.44,2.3,-85.47,-11.4,-17.65,-5.1,-10.85,-20.36,Right Fall while Sitting
40:42.5,477,513,769.5,978,384,1.66,600.94,1.88,124.35,382,299,157.19,300,24707,173083,2103,1.02,0.03,0,0.44,4.85,0.42,1.23,-86.61,-11.27,-17.29,-4.94,-10.77,-20.07,Right Fall while Sitting
40:45.0,519,519,778.5,519,384,1.66,600.94,1.88,0,0,300,0,0,0,49529,601,1,0.02,-0.05,-2.93,0.16,2.11,0.68,-85.08,-0.35,-0.43,0.51,-0.31,-3.81,Forward Fall while Sitting
40:45.1,569,544,816,569,384,1.66,600.94,1.88,0,0,306,0,0,0,77629,907,1.05,0.04,0.02,-6.89,10.92,-6.51,1.33,-86.28,-1.12,0.66,-0.19,-1.02,-2.82,Forward Fall while Sitting
40:45.3,469,519,778.5,569,384,1.66,600.94,1.88,0,0,304,0,0,0,104509,1211,0.99,0.03,0.05,-8.92,8.21,-3.73,1.01,-85.12,-2.14,1.42,-0.55,-2.02,-2.05,Forward Fall while Sitting
40:45.4,428,496,744,569,384,1.66,600.94,1.88,0,0,302,0,0,0,130177,1513,0.99,0.07,0,0.71,7.33,-0.04,3.77,-84.07,-1.99,2.07,-0.45,-1.76,-1.37,Forward Fall while Sitting
40:45.5,418,480,720,569,384,1.66,600.94,1.88,0,0,299,0,0,0,154042,1812,0.99,0.04,0.05,1.93,5.18,6.14,1.49,-85.02,-1.68,2.46,0.4,-1.55,-1.04,Forward Fall while Sitting
40:45.6,438,473,709.5,569,384,1.66,600.94,1.88,0,0,299,0,0,0,177907,2111,1.04,0.02,0.07,-12.85,5.46,-1.54,0.59,-84.18,-3.17,2.88,0.31,-3.02,-0.6,Forward Fall while Sitting
40:45.7,469,472,708,569,384,1.66,600.94,1.88,0,0,299,0,0,0,201772,2410,1.01,0.01,0.11,-8.37,7.82,-7.54,0.19,-82.17,-4.12,3.59,-0.52,-3.95,0.16,Forward Fall while Sitting
40:45.9,442,469,703.5,569,384,1.66,600.94,1.88,0,0,298,0,0,0,225040,2708,0.93,0.06,0.18,2.02,-2.08,-3.08,3.09,-76.56,-3.8,3.09,-0.8,-3.53,-0.1,Forward Fall while Sitting
40:46.0,548,477,715.5,569,384,1.66,600.94,1.88,128.3,384,302,158.34,301,25069,0,0,0.98,0.02,0.17,12.34,-20.51,1.69,0.49,-78.71,-2.22,0.32,-0.49,-2.11,-2.84,Forward Fall while Sitting
40:46.1,505,480,720,569,383,1.67,598.44,1.87,128.3,384,302,158.34,301,25069,25668,302,1,0.05,0.05,11.66,6.6,2.76,2.45,-84.12,-0.7,0.89,-0.05,-0.57,-2.51,Forward Fall while Sitting
40:46.2,450,477,715.5,569,384,1.66,600.94,1.88,128.3,384,302,158.34,301,25069,51336,604,1.01,0.09,0.04,6.38,6.59,-4.28,4.35,-83.04,0.16,1.46,-0.48,0.33,-1.92,Forward Fall while Sitting
40:46.4,424,473,709.5,569,384,1.66,600.94,1.88,128.3,384,300,158.34,301,25069,75800,904,1.01,0.05,0,-3.56,-18.01,3.8,2.54,-85.3,-0.21,-1.02,0.08,-0.1,-4.39,Forward Fall while Sitting
40:46.5,483,474,711,569,384,1.66,600.94,1.88,128.3,384,298,158.34,301,25069,99068,1202,1.06,-0.03,0.05,-12.3,32.5,-9.63,-2.13,-85.36,-1.67,2.76,-1.01,-1.69,-0.76,Forward Fall while Sitting
40:46.6,584,481,721.5,584,383,1.67,598.44,1.87,128.3,384,301,158.34,301,25069,124133,1503,1.04,0.04,0.03,-21.09,-2.31,-12.27,1.4,-85.91,-4.25,2.22,-2.46,-4.03,-1.31,Forward Fall while Sitting
40:46.7,997,516,774,997,384,1.66,600.94,1.88,128.3,384,302,158.34,301,25069,149801,1805,1.01,0.06,0.14,-29.44,-24.84,-7.88,3,-79.92,-7.86,-1.14,-3.34,-7.43,-4.29,Forward Fall while Sitting
40:46.9,431,510,765,997,384,1.66,600.94,1.88,128.3,384,299,158.34,301,25069,173666,2104,0.97,0.08,0.1,-9.01,-2.76,2.52,3.95,-81.01,-8.92,-1.73,-2.93,-8.4,-4.9,Forward Fall while Sitting
40:47.0,519,511,766.5,997,384,1.66,600.94,1.88,128.3,384,300,158.34,301,25069,198130,2404,0.98,0.03,0.05,-13.41,-10.24,4.68,0.94,-85.34,-10.5,-3.24,-2.26,-10.04,-6.52,Forward Fall while Sitting
40:47.1,549,513,769.5,997,384,1.66,600.94,1.88,128.3,384,304,158.34,301,25069,225010,2708,0.94,0.05,0.04,-3.08,1.27,2.08,2.75,-84.41,-10.82,-3.33,-1.9,-10.28,-6.57,Forward Fall while Sitting
40:47.2,500,512,768,997,384,1.66,600.94,1.88,127.4,383,302,158.33,301,25066,0,0,0.93,0.03,0.04,7.53,4.51,-0.74,1.14,-85.48,-9.82,-3.02,-1.89,-9.38,-6.32,Forward Fall while Sitting
40:47.4,452,509,763.5,997,384,1.66,600.94,1.88,127.4,383,302,158.33,301,25066,25668,302,1.06,0.03,0.04,-2.83,-2.3,9.36,1.14,-85.71,-10.11,-3.56,-0.62,-9.66,-6.85,Forward Fall while Sitting
40:47.5,464,507,760.5,997,384,1.66,600.94,1.88,127.4,383,298,158.33,301,25066,48936,600,1.06,0,0.04,3.06,5.75,2.02,-0.34,-85.99,-9.66,-3.09,-0.27,-9.29,-6.41,Forward Fall while Sitting
40:47.6,473,505,757.5,997,384,1.66,600.94,1.88,127.4,383,302,158.33,301,25066,74604,902,1.01,-0.01,0.01,0,-5.27,0.14,-0.94,-87.89,-9.59,-4,-0.16,-9.24,-7.35,Forward Fall while Sitting
40:47.7,592,509,763.5,997,384,1.66,600.94,1.88,127.4,383,302,158.33,301,25066,100272,1204,1.02,0,0.02,-1.52,2.72,0.18,-0.72,-87.52,-9.71,-3.91,-0.04,-9.35,-7.25,Forward Fall while Sitting
40:47.9,447,507,760.5,997,385,1.66,603.45,1.88,127.4,383,305,158.33,301,25066,127761,1509,1.02,0.01,0.02,-0.56,8.01,-0.16,0.04,-87.33,-9.71,-3.16,0.04,-9.32,-6.52,Forward Fall while Sitting
40:48.0,436,504,756,997,384,1.66,600.94,1.88,127.4,383,299,158.33,301,25066,151626,1808,1.02,0,0.05,-3.62,-0.91,-0.29,-0.36,-85.84,-10.09,-3.52,0.11,-9.7,-6.81,Forward Fall while Sitting
40:48.1,512,504,756,997,384,1.66,600.94,1.88,127.4,383,299,158.33,301,25066,175491,2107,1,0.01,0.06,-2.92,2.98,-1.88,-0.12,-84.77,-10.39,-3.4,-0.03,-9.98,-6.65,Forward Fall while Sitting
40:48.2,567,506,759,997,384,1.66,600.94,1.88,127.4,383,302,158.33,301,25066,201159,2409,1.01,0.02,0.07,3.95,-8.64,0.25,0.36,-84.39,-9.82,-4.73,0.1,-9.41,-7.91,Forward Fall while Sitting
40:48.4,481,505,757.5,997,384,1.66,600.94,1.88,127.4,383,301,158.33,301,25066,226224,2710,1.02,-0.03,0.03,1.21,-27.2,0.11,-2.04,-86.07,-9.6,-8.35,0.21,-9.3,-11.46,Forward Fall while Sitting
40:48.5,386,501,751.5,997,385,1.66,603.45,1.88,128.6,384,299,158.14,300,25007,0,0,1.01,0.04,-0.09,4.23,-16.36,1.63,1.54,-82.76,-9.01,-10.61,0.51,-8.59,-13.49,Forward Fall while Sitting
40:48.6,506,501,751.5,997,385,1.66,603.45,1.88,128.6,384,299,158.14,300,25007,23865,299,1.04,-0.01,-0.09,1.37,16.15,4.68,-1.1,-83.46,-8.77,-8.85,1.19,-8.47,-11.84,Forward Fall while Sitting
40:48.7,496,501,751.5,997,384,1.66,600.94,1.88,128.6,384,300,158.14,300,25007,48329,599,1.03,-0.03,-0.05,-1.45,24.87,0.55,-2.31,-84.9,-8.89,-5.99,1.35,-8.62,-9.15,Forward Fall while Sitting
40:48.9,482,501,751.5,997,384,1.66,600.94,1.88,128.6,384,304,158.14,300,25007,75209,903,1,0.01,-0.03,0.11,8.67,-0.1,-0.15,-86.74,-8.8,-5.16,1.44,-8.46,-8.42,Forward Fall while Sitting
40:49.0,423,498,747,997,384,1.66,600.94,1.88,128.6,384,300,158.14,300,25007,99673,1203,1.04,-0.03,0.02,-3.12,8.4,-5.01,-2.34,-86.26,-9.12,-4.36,0.92,-8.85,-7.64,Forward Fall while Sitting
40:49.1,480,498,747,997,385,1.66,603.45,1.88,128.6,384,300,158.14,300,25007,124137,1503,1.01,-0.02,-0.01,-10.19,-38.85,-6.97,-1.82,-86.98,-10.32,-9.47,0.15,-9.98,-12.57,Forward Fall while Sitting
40:49.2,495,498,747,997,384,1.66,600.94,1.88,128.6,384,304,158.14,300,25007,151017,1807,1.1,-0.03,-0.09,-5.36,-53.47,7.33,-1.97,-83.51,-10.93,-16.46,1.17,-10.57,-19.14,Forward Fall while Sitting
40:49.4,461,497,745.5,997,384,1.66,600.94,1.88,128.6,384,302,158.14,300,25007,176685,2109,1.03,-0.03,-0.17,4.1,-23.02,4.25,-1.96,-78.79,-10.34,-19.61,1.8,-10.01,-21.98,Forward Fall while Sitting
40:49.5,472,496,744,997,384,1.66,600.94,1.88,128.6,384,299,158.14,300,25007,200550,2408,0.94,-0.03,-0.24,4.24,-14.25,1.09,-2.12,-74.22,-9.74,-21.66,2.04,-9.43,-23.76,Forward Fall while Sitting
40:49.6,447,495,742.5,997,384,1.66,600.94,1.88,128.6,384,298,158.14,300,25007,223818,2706,1.04,-0.04,-0.41,0.42,-10.79,2.38,-2.51,-66.77,-9.61,-23.26,2.44,-9.33,-25,Forward Fall while Sitting
40:49.7,468,494,741,997,383,1.67,598.44,1.87,128.3,384,305,158.52,301,25129,0,0,1,-0.07,-0.31,-1.65,-25.87,4.34,-4.64,-70.58,-9.75,-26.72,3.07,-9.55,-28.47,Forward Fall while Sitting
40:49.9,395,491,736.5,997,383,1.67,598.44,1.87,128.3,384,301,158.52,301,25129,25065,301,0.99,-0.07,-0.34,-3.51,-26.34,-1.56,-4.48,-69.15,-10.12,-30.26,2.98,-9.89,-31.82,Forward Fall while Sitting
40:50.0,332,488,732,997,383,1.67,598.44,1.87,128.3,384,300,158.52,301,25129,49529,601,0.97,-0.05,-0.43,-2.05,-47.11,-2.7,-3.48,-64.18,-10.31,-36.45,2.74,-10.03,-37.56,Forward Fall while Sitting
40:50.1,272,482,723,997,383,1.67,598.44,1.87,128.3,384,299,158.52,301,25129,73394,900,0.91,-0.04,-0.54,3.86,-34.25,-1.82,-2.57,-57.66,-9.75,-40.98,2.61,-9.47,-41.65,Forward Fall while Sitting
40:50.2,383,480,720,997,382,1.68,595.94,1.87,128.3,384,303,158.52,301,25129,99667,1203,0.85,-0.06,-0.58,-6.82,-30.3,-1.27,-4.14,-53.83,-10.54,-45.02,2.55,-10.28,-45.37,Forward Fall while Sitting
40:50.4,278,475,712.5,997,382,1.68,595.94,1.87,128.3,384,300,158.52,301,25129,124131,1503,0.95,-0.05,-0.74,0.73,-63.08,0.24,-2.79,-50.51,-10.37,-53.22,2.68,-10.07,-53.11,Forward Fall while Sitting
40:50.5,338,472,708,997,382,1.68,595.94,1.87,128.3,384,299,158.52,301,25129,147996,1802,0.82,-0.04,-0.82,0.82,-16.65,2.14,-2.66,-43.69,-10.2,-55.55,3.04,-9.9,-55.07,Forward Fall while Sitting
40:50.6,468,472,708,997,381,1.69,593.46,1.86,128.3,384,300,158.52,301,25129,172460,2102,0.75,-0.04,-0.76,-5.09,-11.73,3.21,-2.9,-42.97,-10.77,-57.28,3.55,-10.46,-56.7,Forward Fall while Sitting
40:50.7,524,473,709.5,997,381,1.69,593.46,1.86,128.3,384,301,158.52,301,25129,197525,2403,0.74,-0.06,-0.75,-2.52,-22.98,4.69,-3.9,-42.88,-11.02,-60.42,4.24,-10.73,-59.72,Forward Fall while Sitting
40:50.9,442,473,709.5,997,381,1.69,593.46,1.86,128.3,384,299,158.52,301,25129,221390,2702,0.74,-0.08,-0.84,0.16,-14.63,1.65,-4.6,-39.65,-10.93,-62.52,4.55,-10.67,-61.6,Forward Fall while Sitting
40:51.0,571,475,712.5,997,381,1.69,593.46,1.86,121.56,381,298,156.41,300,24464,0,0,0.7,-0.08,-0.81,-1.58,-23.26,-1.95,-4.97,-38.87,-11.05,-65.65,4.4,-10.81,-64.58,Forward Fall while Sitting
40:51.1,582,477,715.5,997,381,1.69,593.46,1.86,121.56,381,300,156.41,300,24464,24464,300,0.64,-0.08,-0.87,2.66,-17.96,-4.92,-4.56,-34.79,-10.65,-68.17,3.88,-10.4,-66.83,Forward Fall while Sitting
40:51.2,527,478,717,997,381,1.69,593.46,1.86,121.56,381,300,156.41,300,24464,48928,600,0.61,-0.07,-0.92,0.72,-14.72,-0.79,-4.46,-32.04,-10.49,-70.26,3.88,-10.25,-68.73,Forward Fall while Sitting
40:51.4,480,478,717,997,381,1.69,593.46,1.86,121.56,381,299,156.41,300,24464,72793,899,0.56,-0.07,-0.93,-0.89,-12.05,2.45,-4.47,-29.29,-10.53,-72.03,4.29,-10.29,-70.32,Forward Fall while Sitting
40:51.5,540,479,718.5,997,381,1.69,593.46,1.86,121.56,381,298,156.41,300,24464,96061,1197,0.51,-0.06,-0.85,2.85,-15.64,2.04,-4.31,-29.58,-10.1,-74.25,4.65,-9.87,-72.46,Forward Fall while Sitting
40:51.6,484,479,718.5,997,380,1.69,590.98,1.86,121.56,381,299,156.41,300,24464,119926,1496,0.55,-0.08,-0.97,-1.69,-6.89,-0.73,-4.54,-28.07,-10.24,-75.36,4.65,-10.01,-73.47,Forward Fall while Sitting
40:51.7,456,479,718.5,997,381,1.69,593.46,1.86,121.56,381,299,156.41,300,24464,143791,1795,0.51,-0.09,-0.95,-7.12,-18.06,-0.74,-5.57,-26.47,-11.07,-77.89,4.66,-10.85,-75.83,Forward Fall while Sitting
40:51.9,432,478,717,997,381,1.69,593.46,1.86,121.56,381,297,156.41,300,24464,166464,2092,0.46,-0.08,-0.96,6.14,-10.72,0.84,-5.02,-24.18,-10.22,-79.49,4.86,-10.01,-77.28,Forward Fall while Sitting
40:52.0,531,479,718.5,997,381,1.69,593.46,1.86,121.56,381,300,156.41,300,24464,190928,2392,0.48,-0.1,-1.02,-1.37,-10.29,0.08,-5.85,-23.48,-10.33,-81.04,4.98,-10.15,-78.73,Forward Fall while Sitting
40:52.1,493,479,718.5,997,381,1.69,593.46,1.86,121.56,381,300,156.41,300,24464,215392,2692,0.45,-0.1,-1.04,-2.45,-2.61,-3.45,-5.56,-21.43,-10.56,-81.61,4.64,-10.36,-79.21,Forward Fall while Sitting
40:52.2,520,480,720,997,381,1.69,593.46,1.86,118.37,380,298,154.49,299,23865,0,0,0.43,-0.1,-0.99,-3.93,-3.1,1.3,-5.93,-21.71,-10.98,-82.25,4.9,-10.78,-79.83,Forward Fall while Sitting
40:52.4,859,486,729,997,381,1.69,593.46,1.86,118.37,380,302,154.49,299,23865,25668,302,0.44,-0.11,-0.99,1.56,0.92,-0.08,-6.24,-22.35,-10.72,-82.38,4.99,-10.54,-79.98,Forward Fall while Sitting
40:52.5,574,487,730.5,997,381,1.69,593.46,1.86,118.37,380,301,154.49,299,23865,50733,603,0.46,-0.11,-1.03,-2.69,2.85,-2.36,-5.95,-22.42,-10.99,-82.28,4.79,-10.79,-79.88,Forward Fall while Sitting
40:52.6,563,489,733.5,997,382,1.68,595.94,1.87,118.37,380,300,154.49,299,23865,75197,903,0.46,-0.12,-0.99,-1.83,15.59,-3.31,-6.62,-23.01,-11.15,-80.58,4.48,-10.97,-78.28,Forward Fall while Sitting
40:52.7,497,489,733.5,997,382,1.68,595.94,1.87,118.37,380,299,154.49,299,23865,99062,1202,0.48,-0.09,-0.95,-0.84,11.45,-1.18,-5.65,-25,-11.18,-79.39,4.43,-10.96,-77.21,Forward Fall while Sitting
40:52.9,568,490,735,997,382,1.68,595.94,1.87,118.37,380,298,154.49,299,23865,122330,1500,0.51,-0.11,-0.94,2.86,19.27,3.03,-6.52,-27.03,-10.76,-77.23,4.91,-10.59,-75.22,Forward Fall while Sitting
40:53.0,579,491,736.5,997,382,1.68,595.94,1.87,118.37,380,300,154.49,299,23865,146794,1800,0.57,-0.12,-0.94,3.24,30.13,-0.96,-7.01,-29.69,-10.28,-73.68,4.89,-10.15,-71.92,Forward Fall while Sitting
40:53.1,520,492,738,997,382,1.68,595.94,1.87,118.37,380,299,154.49,299,23865,170659,2099,0.62,-0.15,-0.89,0.66,29.56,-5.41,-8.19,-32.87,-10.12,-70.21,4.3,-10.05,-68.72,Forward Fall while Sitting
40:53.2,522,492,738,997,382,1.68,595.94,1.87,118.37,380,301,154.49,299,23865,195724,2400,0.67,-0.13,-0.83,1.32,42.37,-2.58,-7.69,-36.87,-9.89,-65.16,4.08,-9.8,-64.03,Forward Fall while Sitting
40:53.4,561,493,739.5,997,382,1.68,595.94,1.87,118.37,380,301,154.49,299,23865,220789,2701,0.74,-0.14,-0.78,5.18,51.15,-4.96,-8.06,-41.51,-9.17,-58.97,3.55,-9.12,-58.27,Forward Fall while Sitting
40:53.5,529,494,741,997,382,1.68,595.94,1.87,121.24,381,300,156.6,300,24524,0,0,0.81,-0.13,-0.71,4.22,53.59,-5.16,-7.63,-46.98,-8.57,-52.58,3.01,-8.53,-52.35,Forward Fall while Sitting
40:53.6,448,493,739.5,997,382,1.68,595.94,1.87,121.24,381,299,156.6,300,24524,23865,299,0.86,-0.1,-0.62,0.11,38.26,-2.28,-6.08,-52.31,-8.49,-48.04,2.83,-8.39,-48.21,Forward Fall while Sitting
40:53.7,513,493,739.5,997,382,1.68,595.94,1.87,121.24,381,299,156.6,300,24524,47730,598,0.88,-0.12,-0.58,-0.65,46.18,-6.01,-6.92,-54.65,-8.5,-42.52,2.17,-8.44,-43.01,Forward Fall while Sitting
40:53.9,559,494,741,997,382,1.68,595.94,1.87,121.24,381,301,156.6,300,24524,72795,899,0.94,-0.11,-0.45,-7.29,39.73,0.56,-6.56,-62.11,-9.34,-37.8,2.34,-9.23,-38.78,Forward Fall while Sitting
40:54.0,508,494,741,997,382,1.68,595.94,1.87,121.24,381,299,156.6,300,24524,96660,1198,1,-0.12,-0.37,-17.27,37.98,8.82,-7.26,-67.31,-11.43,-33.31,3.54,-11.26,-34.67,Forward Fall while Sitting
40:54.1,585,496,744,997,383,1.67,598.44,1.87,121.24,381,305,156.6,300,24524,124149,1503,0.99,-0.14,-0.29,-9.13,38.15,4.32,-8.48,-70.42,-12.51,-28.75,4.19,-12.35,-30.42,Forward Fall while Sitting
40:54.2,509,496,744,997,382,1.68,595.94,1.87,121.24,381,299,156.6,300,24524,148014,1802,0.91,-0.18,0.08,4.24,144.31,-8.96,-11.57,-76.45,-11.91,-10.82,3.16,-11.89,-13.44,Forward Fall while Sitting
40:54.4,553,497,745.5,997,382,1.68,595.94,1.87,121.24,381,300,156.6,300,24524,172478,2102,0.95,-0.12,0,-12.63,-38.44,-1.88,-7.95,-81.04,-13.41,-15.87,3.02,-13.2,-18.48,Forward Fall while Sitting
40:54.5,421,496,744,997,382,1.68,595.94,1.87,121.24,381,298,156.6,300,24524,195746,2400,0.95,-0.13,-0.12,-4.63,-29.16,0.89,-8.47,-77.57,-13.93,-19.8,3.23,-13.71,-22.11,Forward Fall while Sitting
40:54.6,472,495,742.5,997,382,1.68,595.94,1.87,121.24,381,300,156.6,300,24524,220210,2700,1.02,-0.14,-0.18,0.6,8.06,7.11,-8.3,-75.73,-13.78,-19.04,4.23,-13.56,-21.3,Forward Fall while Sitting
40:54.7,495,495,742.5,997,381,1.69,593.46,1.86,121.87,382,302,156.8,300,24586,0,0,1.01,-0.16,-0.15,-1.44,6.12,-1.81,-9.7,-76,-13.89,-18.53,4.1,-13.72,-20.82,Forward Fall while Sitting
40:54.9,419,494,741,997,382,1.68,595.94,1.87,121.87,382,300,156.8,300,24586,24464,300,0.99,-0.13,-0.14,-4.24,-3.73,-7.32,-8.1,-77.62,-14.35,-19.24,3.29,-14.1,-21.58,Forward Fall while Sitting
40:55.0,367,493,739.5,997,382,1.68,595.94,1.87,121.87,382,297,156.8,300,24586,47137,597,1.01,-0.1,-0.1,-0.58,8.99,-3.44,-6.2,-80.54,-14.35,-18.36,2.95,-14.03,-20.85,Forward Fall while Sitting
40:55.1,503,493,739.5,997,381,1.69,593.46,1.86,121.87,382,299,156.8,300,24586,71002,896,0.99,-0.14,-0.13,-0.19,1.17,0.73,-8.75,-77.38,-14.31,-18.46,3.14,-14.08,-20.82,Forward Fall while Sitting
40:55.2,473,493,739.5,997,381,1.69,593.46,1.86,121.87,382,300,156.8,300,24586,95466,1196,1.03,-0.14,-0.09,1.34,-0.76,0.44,-8.21,-79.36,-14.07,-18.81,3.3,-13.83,-21.23,Forward Fall while Sitting
40:55.4,413,492,738,997,381,1.69,593.46,1.86,121.87,382,299,156.8,300,24586,119331,1495,1.02,-0.15,-0.18,3.88,1.09,-1.62,-9.1,-75.37,-13.51,-18.92,3.19,-13.33,-21.18,Forward Fall while Sitting
40:55.5,460,491,736.5,997,381,1.69,593.46,1.86,121.87,382,297,156.8,300,24586,142004,1792,1.04,-0.12,-0.12,2.82,6.56,-5.55,-6.91,-79.24,-13.09,-18.35,2.6,-12.84,-20.79,Forward Fall while Sitting
40:55.6,528,492,738,997,381,1.69,593.46,1.86,121.87,382,300,156.8,300,24586,166468,2092,1,-0.14,-0.06,-1.98,2.68,-6.56,-8.71,-79.52,-13.27,-18.27,1.87,-13.08,-20.72,Forward Fall while Sitting
42:39.6,528,504,756,922,382,1.68,595.94,1.87,122.18,382,288,131.94,288,17407,87040,1440,0.98,0.06,0.05,-3.88,-0.44,-1.31,3.12,-83.88,-4.89,-4.41,-0.67,-4.57,-7.59,Walking
42:39.7,545,507,760.5,922,382,1.68,595.94,1.87,122.18,382,288,131.94,288,17407,104448,1728,0.94,0.07,0.09,-3.21,1.7,3.73,3.37,-81.82,-5.22,-4.44,-0.1,-4.88,-7.54,Walking
42:39.9,564,510,765,922,382,1.68,595.94,1.87,122.18,382,288,131.94,288,17407,121856,2016,1.06,0.06,0.02,0.61,0.2,3.36,2.39,-85.34,-5.08,-4.67,0.41,-4.78,-7.89,Walking
42:40.0,579,514,771,922,382,1.68,595.94,1.87,122.18,382,288,131.94,288,17407,139264,2304,1.03,0.06,0.04,-1.16,-4.06,-5.65,2.64,-84.56,-5.15,-5.41,-0.19,-4.84,-8.58,Walking
42:40.1,520,515,772.5,922,382,1.68,595.94,1.87,122.18,382,288,131.94,288,17407,156672,2592,1,0.08,0.02,-0.5,-1.62,-1.28,4.14,-83.5,-5.14,-5.86,-0.25,-4.77,-8.97,Walking
42:40.2,479,513,769.5,922,382,1.68,595.94,1.87,122.18,382,288,131.94,288,17407,0,0,1.01,0.06,0.02,0.53,1.1,0.47,2.86,-84.87,-5.01,-5.98,-0.09,-4.69,-9.13,Walking
42:40.3,511,513,769.5,922,382,1.68,595.94,1.87,122.18,382,288,131.94,288,17407,17408,288,1.01,0.07,0,1.43,0.28,-0.23,3.13,-84.71,-4.76,-6.19,-0.02,-4.45,-9.33,Walking
42:40.5,523,513,769.5,922,382,1.68,595.94,1.87,122.18,382,288,131.94,288,17407,34816,576,1.03,0.06,0.02,-0.92,1.31,-1.43,2.83,-84.77,-4.81,-6.27,-0.1,-4.5,-9.41,Walking
42:40.6,524,514,771,922,382,1.68,595.94,1.87,122.18,382,288,131.94,288,17407,52224,864,1.01,0.05,0.04,1.23,2.15,-0.27,2.27,-84.86,-4.58,-6.26,-0.04,-4.31,-9.4,Walking
42:40.7,642,519,778.5,922,381,1.69,593.46,1.86,122.18,382,288,131.94,288,17407,69632,1152,1.01,0.06,0.04,0.68,-7.46,0.83,2.98,-84.13,-4.43,-7.44,0.16,-4.13,-10.51,Walking
42:40.8,466,517,775.5,922,382,1.68,595.94,1.87,122.18,382,288,131.94,288,17407,87040,1440,1.01,0.06,0.05,7.05,-1.33,0.64,2.56,-84.13,-3.49,-7.85,0.34,-3.24,-10.9,Walking
42:41.0,546,518,777,922,381,1.69,593.46,1.86,122.18,382,288,131.94,288,17407,104448,1728,1.03,0.06,-0.01,13.34,1.3,0.47,2.7,-85.12,-1.75,-7.94,0.5,-1.57,-11.03,Walking
42:41.1,480,517,775.5,922,381,1.69,593.46,1.86,122.18,382,288,131.94,288,17407,121856,2016,1.02,0.04,0.01,11.28,0.83,-0.8,1.89,-85.83,-0.28,-8.08,0.5,-0.19,-11.19,Walking
42:41.2,455,514,771,922,381,1.69,593.46,1.86,122.18,382,288,131.94,288,17407,139264,2304,1.02,0.05,-0.04,12.76,0.24,-1.59,2.07,-84.97,1.38,-8.3,0.4,1.41,-11.37,Walking
42:41.3,471,513,769.5,922,381,1.69,593.46,1.86,122.18,382,288,131.94,288,17407,156672,2592,1.01,0.05,-0.09,6.92,-0.64,-2.44,2.46,-82.73,2.31,-8.63,0.19,2.32,-11.6,Walking
42:41.5,456,511,766.5,922,382,1.68,595.94,1.87,120.29,381,287,131.72,287,17349,0,0,1.01,0.06,-0.05,5.37,3.21,-1.87,2.81,-83.95,3.04,-8.48,0.06,3.03,-11.5,Walking
42:41.6,483,510,765,922,382,1.68,595.94,1.87,120.29,381,288,131.72,287,17349,17408,288,1.02,0.06,-0.03,0.44,-3.68,1.79,2.92,-84.43,3.17,-9.19,0.38,3.16,-12.2,Walking
42:41.7,418,507,760.5,922,382,1.68,595.94,1.87,120.29,381,288,131.72,287,17349,34816,576,1.05,0.06,-0.03,3.25,-0.25,-0.63,2.49,-84.89,3.64,-9.47,0.4,3.59,-12.48,Walking
42:41.8,434,504,756,922,382,1.68,595.94,1.87,120.29,381,288,131.72,287,17349,52224,864,1,0.05,-0.02,1.65,3.71,-2.4,2,-85.55,3.91,-9.25,0.2,3.84,-12.31,Walking
42:42.0,472,503,754.5,922,382,1.68,595.94,1.87,120.29,381,287,131.72,287,17349,69057,1151,1,0.05,-0.05,10.82,5.68,-3.8,2.32,-84.42,5.32,-8.8,-0.18,5.2,-11.82,Walking
42:42.1,497,503,754.5,922,381,1.69,593.46,1.86,120.29,381,288,131.72,287,17349,86465,1439,0.99,0.07,-0.02,1.6,3.98,-4.82,3.69,-84.06,5.59,-8.55,-0.68,5.52,-11.57,Walking
42:42.2,467,502,753,922,381,1.69,593.46,1.86,120.29,381,288,131.72,287,17349,103873,1727,1.02,0.08,-0.02,4.22,7.89,-1.44,3.65,-83.98,6.18,-7.82,-0.76,6.08,-10.87,Walking
42:42.3,445,501,751.5,922,382,1.68,595.94,1.87,120.29,381,288,131.72,287,17349,121281,2015,0.99,0.06,0.02,6.31,4.37,-3.6,3.07,-84.58,7.04,-7.52,-1.11,6.88,-10.6,Walking
42:42.5,470,500,750,922,382,1.68,595.94,1.87,120.29,381,287,131.72,287,17349,138114,2302,1.03,0.08,-0.01,2.62,-1.45,4.75,3.64,-84.18,7.44,-7.95,-0.42,7.29,-11,Walking
42:42.6,543,501,751.5,922,382,1.68,595.94,1.87,120.29,381,288,131.72,287,17349,155522,2590,1.07,0.06,-0.02,-0.01,0.64,2.21,2.71,-84.93,7.51,-8.12,-0.05,7.31,-11.19,Walking
42:42.7,993,514,771,993,382,1.68,595.94,1.87,121.24,381,288,131.5,287,17292,0,0,1.01,0.05,-0.02,-1.75,-0.01,0.78,2.2,-85.33,7.36,-8.37,0.14,7.15,-11.44,Walking
42:42.8,481,513,769.5,993,382,1.68,595.94,1.87,121.24,381,288,131.5,287,17292,17408,288,1,0.05,-0.01,-3.81,5.37,2.39,2.31,-85.4,6.96,-7.95,0.54,6.77,-11.05,Walking
42:43.0,452,511,766.5,993,382,1.68,595.94,1.87,121.24,381,288,131.5,287,17292,34816,576,1.03,0.03,0,-5.43,5.73,4.52,0.93,-86.9,6.35,-7.48,1.19,6.14,-10.66,Walking
42:43.1,459,510,765,993,382,1.68,595.94,1.87,121.24,381,288,131.5,287,17292,52224,864,1.04,0.03,-0.01,-2.9,10.79,-1.18,1.1,-86.69,6.06,-6.4,1.15,5.87,-9.61,Walking
42:43.2,518,510,765,993,382,1.68,595.94,1.87,121.24,381,288,131.5,287,17292,69632,1152,1.03,0.03,-0.02,-6.56,-2.53,-2.92,1.11,-86.29,5.32,-6.96,0.88,5.15,-10.13,Walking
42:43.3,995,521,781.5,995,382,1.68,595.94,1.87,121.24,381,289,131.5,287,17292,87617,1441,1.01,0.03,0,-5.49,3.05,-5.49,1.31,-86.51,4.7,-6.83,0.29,4.57,-10.01,Walking
42:43.5,408,519,778.5,995,382,1.68,595.94,1.87,121.24,381,288,131.5,287,17292,105025,1729,1.01,0.04,0.01,-3.66,3.89,-3.09,1.55,-86.18,4.32,-6.59,0.01,4.21,-9.77,Walking
42:43.6,463,517,775.5,995,382,1.68,595.94,1.87,121.24,381,288,131.5,287,17292,122433,2017,1.02,0.04,-0.06,-7.68,-2.11,3,1.76,-84.53,3.43,-7.1,0.48,3.37,-10.2,Walking
42:43.7,454,516,774,995,382,1.68,595.94,1.87,121.24,381,288,131.5,287,17292,139841,2305,1.02,0.03,0.05,-14.11,1.9,-1.71,1.13,-85.3,1.75,-7.11,0.36,1.73,-10.24,Walking
42:43.8,519,516,774,995,382,1.68,595.94,1.87,121.24,381,288,131.5,287,17292,157249,2593,0.97,0.04,0.07,-8.82,4.14,-2.27,1.83,-83.72,0.72,-6.84,0.18,0.76,-9.92,Walking
42:43.9,492,516,774,995,382,1.68,595.94,1.87,121.87,382,288,132.16,288,17464,0,0,1.02,0.06,0.02,-8.78,-2.97,1.21,2.9,-84.82,-0.29,-7.45,0.42,-0.16,-10.55,Walking
42:44.1,400,513,769.5,995,382,1.68,595.94,1.87,121.87,382,288,132.16,288,17464,17408,288,1.04,0.05,0.07,-11.79,3.12,-0.98,2.01,-83.75,-1.67,-7.32,0.4,-1.52,-10.37,Walking
42:44.2,484,513,769.5,995,382,1.68,595.94,1.87,121.87,382,288,132.16,288,17464,34816,576,1.07,0.05,0.03,-10.04,8.89,-5.01,1.83,-85.62,-2.86,-6.46,-0.13,-2.67,-9.62,Walking
42:44.3,491,512,768,995,382,1.68,595.94,1.87,121.87,382,288,132.16,288,17464,52224,864,1.02,0.03,0.06,-17.44,0.4,-3.64,1.22,-84.44,-4.95,-6.65,-0.48,-4.7,-9.77,Walking
42:44.4,503,512,768,995,382,1.68,595.94,1.87,121.87,382,288,132.16,288,17464,69632,1152,1,0.03,0.1,-14.39,-2.63,-2.37,1.05,-82.52,-6.68,-7.23,-0.68,-6.37,-10.25,Walking
42:44.6,440,511,766.5,995,383,1.67,598.44,1.87,121.87,382,288,132.16,288,17464,87040,1440,1.01,0.05,0.07,-9.15,-8.11,0.65,2.2,-83.47,-7.75,-8.5,-0.5,-7.35,-11.5,Walking
42:44.7,411,509,763.5,995,382,1.68,595.94,1.87,121.87,382,288,132.16,288,17464,104448,1728,1.03,0.05,0.04,-8.09,-2.45,1.37,2.09,-85.06,-8.69,-9.05,-0.23,-8.26,-12.09,Walking
42:44.8,493,509,763.5,995,383,1.67,598.44,1.87,121.87,382,288,132.16,288,17464,121856,2016,1,0.05,0.05,-15.3,3.31,-3.36,2.04,-84.52,-10.54,-8.89,-0.55,-10.03,-11.91,Walking
42:44.9,482,508,762,995,382,1.68,595.94,1.87,121.87,382,288,132.16,288,17464,139264,2304,0.99,0.01,0.09,-10.03,9.02,-1.34,-0.14,-83.35,-11.72,-8.01,-0.62,-11.26,-11.03,Walking
42:45.1,443,507,760.5,995,382,1.68,595.94,1.87,121.87,382,288,132.16,288,17464,156672,2592,0.99,0,0.08,-9.98,1.63,-0.13,-0.66,-83.54,-12.9,-8.06,-0.53,-12.41,-11.08,Walking
42:45.2,399,505,757.5,995,382,1.68,595.94,1.87,122.49,382,288,131.94,288,17407,0,0,0.99,0.01,0.08,-8.63,0.64,1.17,-0.16,-83.83,-13.91,-8.23,-0.29,-13.36,-11.25,Walking
42:45.3,402,503,754.5,995,383,1.67,598.44,1.87,122.49,382,287,131.94,288,17407,16833,287,1.04,0,0.12,-6.6,6.41,-0.98,-0.5,-81.75,-14.66,-7.68,-0.31,-14.09,-10.64,Walking
42:45.4,473,503,754.5,995,383,1.67,598.44,1.87,122.49,382,288,131.94,288,17407,34241,575,1.02,0.02,0.13,1.37,7.09,-2.95,0.33,-80.93,-14.42,-7.04,-0.58,-13.83,-10,Walking
42:45.6,443,502,753,995,383,1.67,598.44,1.87,122.49,382,288,131.94,288,17407,51649,863,1,0.02,0.1,1.21,-3.73,-1.17,0.42,-82.47,-14.2,-7.75,-0.63,-13.62,-10.74,Walking
42:45.7,437,501,751.5,995,382,1.68,595.94,1.87,122.49,382,288,131.94,288,17407,69057,1151,1.01,0,0.09,1.27,0.3,-0.48,-0.51,-83.48,-13.97,-7.96,-0.59,-13.43,-10.98,Walking
42:45.8,470,500,750,995,383,1.67,598.44,1.87,122.49,382,288,131.94,288,17407,86465,1439,1.02,0.02,0.04,0.42,-1.23,-0.36,0.39,-85.76,-13.85,-8.36,-0.54,-13.28,-11.46,Walking
42:45.9,439,499,748.5,995,383,1.67,598.44,1.87,122.49,382,288,131.94,288,17407,103873,1727,1.03,0.03,0.03,-0.68,-1.62,-3.04,0.93,-86.25,-13.87,-8.82,-0.82,-13.27,-11.91,Walking
42:46.1,475,499,748.5,995,383,1.67,598.44,1.87,122.49,382,288,131.94,288,17407,121281,2015,0.98,0.03,0.1,-3.56,-1.32,-4.89,0.97,-82.38,-14.24,-9.23,-1.34,-13.63,-12.16,Walking
42:46.2,474,499,748.5,995,383,1.67,598.44,1.87,122.49,382,288,131.94,288,17407,138689,2303,1.01,0,0.13,-1.97,0.47,-0.37,-0.55,-80.96,-14.42,-9.43,-1.28,-13.86,-12.29,Walking
42:46.3,525,499,748.5,995,383,1.67,598.44,1.87,122.49,382,288,131.94,288,17407,156097,2591,1,0.01,0.13,2.98,2.4,-4.67,0.21,-80.82,-13.97,-9.38,-1.77,-13.41,-12.23,Walking
42:46.4,528,499,748.5,995,382,1.68,595.94,1.87,124.35,382,288,131.72,287,17349,0,0,1.01,0.03,0.06,6.98,-9.34,-1.14,1.13,-84.81,-13.05,-10.77,-1.82,-12.48,-13.73,Walking
42:46.6,432,499,748.5,995,383,1.67,598.44,1.87,124.35,382,288,131.72,287,17349,17408,288,1.02,0.04,0.03,11.94,-2.03,-1.84,1.59,-85.52,-11.48,-11.27,-1.95,-10.96,-14.24,Walking
42:46.7,480,498,747,995,383,1.67,598.44,1.87,124.35,382,287,131.72,287,17349,34241,575,1.02,0.05,-0.01,8.79,-3.88,-1.61,1.99,-85.75,-10.32,-12.01,-2.05,-9.82,-14.96,Walking
42:46.8,508,498,747,995,383,1.67,598.44,1.87,124.35,382,287,131.72,287,17349,51074,862,1.03,0.05,0.02,3.5,-0.75,-4.52,2.07,-85.5,-9.8,-12.36,-2.52,-9.33,-15.28,Walking
42:46.9,496,498,747,995,382,1.68,595.94,1.87,124.35,382,288,131.72,287,17349,68482,1150,0.99,0.05,0.04,7.06,-1.52,-3.67,2.06,-85.04,-8.86,-12.79,-2.88,-8.42,-15.68,Walking
42:47.1,481,498,747,995,383,1.67,598.44,1.87,124.35,382,288,131.72,287,17349,85890,1438,0.99,0.06,0.02,12.42,0.6,-0.92,2.92,-84.63,-7.24,-12.97,-2.89,-6.83,-15.83,Walking
42:47.2,800,502,753,995,383,1.67,598.44,1.87,124.35,382,287,131.72,287,17349,102723,1725,1.01,0.06,0,11.22,3.36,0.12,2.95,-84.89,-5.76,-12.8,-2.78,-5.41,-15.68,Walking
42:47.3,471,502,753,995,383,1.67,598.44,1.87,124.35,382,287,131.72,287,17349,119556,2012,1.01,0.05,0.04,8.01,0.45,2.17,2.22,-84.92,-4.69,-12.99,-2.41,-4.42,-15.87,Walking
42:47.4,480,501,751.5,995,382,1.68,595.94,1.87,124.35,382,288,131.72,287,17349,136964,2300,1.03,0.04,0.03,7.02,2.13,3.51,1.5,-85.77,-3.75,-12.97,-1.88,-3.54,-15.89,Walking
42:47.6,414,500,750,995,382,1.68,595.94,1.87,124.35,382,288,131.72,287,17349,154372,2588,1.02,0.03,-0.03,9.34,0.45,0.26,1.27,-86.08,-2.52,-13.17,-1.74,-2.36,-16.08,Walking
42:47.7,435,499,748.5,995,383,1.67,598.44,1.87,124.04,382,287,130.84,287,17119,0,0,1,0.05,-0.02,1.27,-0.64,-1.63,2.1,-85.53,-2.29,-13.49,-1.85,-2.11,-16.37,Walking
42:47.8,437,499,748.5,995,383,1.67,598.44,1.87,124.04,382,288,130.84,287,17119,17408,288,1.02,0.02,0.01,0.05,0.37,0.3,0.78,-87.03,-2.21,-13.7,-1.71,-2.09,-16.63,Walking
42:47.9,486,499,748.5,995,382,1.68,595.94,1.87,124.04,382,287,130.84,287,17119,34241,575,1.02,0.03,0.01,-1.57,4.6,-2.74,0.84,-86.83,-2.34,-13.37,-1.95,-2.21,-16.31,Walking
42:48.1,521,499,748.5,995,382,1.68,595.94,1.87,124.04,382,288,130.84,287,17119,51649,863,1,0.04,0.03,-0.95,5.48,0.01,1.61,-85.5,-2.39,-12.94,-1.85,-2.23,-15.84,Walking
42:48.2,455,498,747,995,382,1.68,595.94,1.87,124.04,382,287,130.84,287,17119,68482,1150,1.02,0.04,0,1.79,-0.78,-0.72,1.87,-85.97,-2.09,-13.29,-1.84,-1.94,-16.19,Walking
42:48.3,486,498,747,995,382,1.68,595.94,1.87,124.04,382,287,130.84,287,17119,85315,1437,1.03,0.03,-0.01,-0.05,-3.44,-0.59,1.25,-86.47,-2.03,-13.97,-1.82,-1.9,-16.87,Walking
42:48.4,584,499,748.5,995,382,1.68,595.94,1.87,124.04,382,288,130.84,287,17119,102723,1725,1.02,0.04,-0.01,-3.73,4.79,-4.09,1.91,-85.86,-2.43,-13.62,-2.23,-2.25,-16.51,Walking
42:48.6,985,505,757.5,995,382,1.68,595.94,1.87,124.04,382,288,130.84,287,17119,120131,2013,1.01,0.04,0.02,-5.53,2.24,-1.25,1.94,-85.62,-3.05,-13.59,-2.29,-2.85,-16.47,Walking
42:48.7,491,505,757.5,995,382,1.68,595.94,1.87,124.04,382,287,130.84,287,17119,136964,2300,1.01,0.04,0,-4.67,-1.02,-0.6,1.45,-86.39,-3.56,-13.96,-2.27,-3.36,-16.86,Walking
42:48.8,564,505,757.5,995,382,1.68,595.94,1.87,124.04,382,287,130.84,287,17119,153797,2587,1.01,0.04,-0.03,-6.89,1.84,-1.13,1.78,-85.58,-4.35,-13.98,-2.31,-4.11,-16.85,Walking
42:48.9,580,506,759,995,382,1.68,595.94,1.87,122.18,382,288,130.84,287,17119,0,0,1,0.05,-0.02,-14.51,5.18,0.16,2.11,-85.56,-6.08,-13.59,-2.19,-5.76,-16.47,Walking
42:49.1,534,506,759,995,382,1.68,595.94,1.87,122.18,382,288,130.84,287,17119,17408,288,1,0.02,0.03,-13.98,4.26,-0.47,0.56,-86.23,-7.75,-13.31,-2.15,-7.42,-16.23,Walking
42:49.2,506,506,759,995,382,1.68,595.94,1.87,122.18,382,287,130.84,287,17119,34241,575,1.01,0.03,0.03,-15.33,0.78,0.75,0.94,-86.11,-9.59,-13.46,-1.96,-9.17,-16.37,Walking
42:49.3,471,506,759,995,382,1.68,595.94,1.87,122.18,382,287,130.84,287,17119,51074,862,1.01,0.01,0.06,-16.21,6.12,1.08,-0.26,-85.14,-11.55,-12.95,-1.73,-11.1,-15.83,Walking
42:49.4,537,506,759,995,382,1.68,595.94,1.87,122.18,382,288,130.84,287,17119,68482,1150,1.05,0.03,0.05,-12.12,0.57,-2.4,0.85,-85.1,-13,-13.13,-1.93,-12.44,-16,Walking
42:49.6,467,506,759,995,382,1.68,595.94,1.87,122.18,382,288,130.84,287,17119,85890,1438,1,0.01,0.13,-9.95,6.74,-6.31,-0.08,-81.27,-14.17,-12.53,-2.62,-13.61,-15.28,Walking
42:49.7,470,506,759,995,382,1.68,595.94,1.87,122.18,382,287,130.84,287,17119,102723,1725,1,0.05,0.07,-8.73,-2.13,-2.83,2.2,-83.52,-15.2,-13.05,-2.87,-14.5,-15.87,Walking
42:49.8,501,505,757.5,995,382,1.68,595.94,1.87,122.18,382,287,130.84,287,17119,119556,2012,0.98,0.04,0.07,-10.27,-1.53,-0.41,1.52,-84.06,-16.41,-13.5,-2.83,-15.69,-16.32,Walking
42:49.9,552,506,759,995,382,1.68,595.94,1.87,122.18,382,288,130.84,287,17119,136964,2300,0.97,0.02,0.14,-10.49,5.33,2.02,0.5,-80.28,-17.66,-13.08,-2.47,-16.94,-15.76,Walking
42:50.1,442,505,757.5,995,382,1.68,595.94,1.87,122.18,382,288,130.84,287,17119,154372,2588,1.02,0.01,0.14,-10.13,-0.21,-0.1,0.03,-80.58,-18.86,-13.35,-2.39,-18.1,-16.04,Walking
