Datetime, ECGRaw , AvgECG , ampECG , MAX , GSRRaw , Resistance , GSR(kohm) , SCL , GSRRMS , GSRMAV , EMGRaw , EMGRMS , EMGMAV , EMGVAR , EMGSSI , IEMG , AccX , AccY, AccZ , GyroX , GyroY , GyroZ , Aroll , Apitch , Groll , Gpitch, Gyaw , Combroll , Combpitch,Features
20:06.9,700,700,1050,700,345,1.97,508.85,1.69,0,0,158,0,0,0,49928,316,1.01,-0.06,0.05,-3.52,-0.6,-3.26,-3.99,-84.01,-0.63,-0.52,-0.39,-0.76,-3.86,Standing
20:07.0,678,689,1033.5,700,346,1.96,511.08,1.69,0,0,157,0,0,0,74577,473,1.01,-0.05,0.05,-3.33,0.46,-0.74,-3.42,-84.27,-0.97,-0.71,-0.38,-1.07,-4.05,Standing
20:07.2,630,669,1003.5,700,346,1.96,511.08,1.69,0,0,156,0,0,0,98913,629,1.02,-0.05,0.06,-1.97,4.21,-1.6,-3.23,-84.11,-1.14,-0.44,-0.48,-1.23,-3.79,Standing
20:07.3,494,625,937.5,700,346,1.96,511.08,1.69,0,0,156,0,0,0,123249,785,1.02,-0.06,0.06,-1.37,1.69,-2.71,-3.77,-83.86,-1.24,-0.48,-0.71,-1.34,-3.81,Standing
20:07.4,566,613,919.5,700,348,1.94,515.56,1.7,0,0,157,0,0,0,147898,942,1,-0.06,0.07,-1.99,4.93,-3.21,-3.72,-83.13,-1.42,-0.12,-1.01,-1.51,-3.44,Standing
20:07.5,411,579,868.5,700,348,1.94,515.56,1.7,0,0,158,0,0,0,172862,1100,1,-0.05,0.06,-2.76,-0.56,-0.1,-3.27,-84.04,-1.69,-0.43,-0.93,-1.75,-3.78,Standing
20:07.6,508,569,853.5,700,349,1.93,517.8,1.71,0,0,158,0,0,0,197826,1258,1.02,-0.05,0.07,-2.58,2.99,-0.53,-3.31,-83.47,-1.93,-0.31,-0.9,-1.99,-3.64,Standing
20:07.8,494,560,840,700,350,1.92,520.06,1.71,0,0,157,0,0,0,222475,1415,1.02,-0.04,0.08,-0.51,2.85,-1.21,-2.87,-83.59,-1.93,-0.21,-0.95,-1.97,-3.54,Standing
20:07.9,425,545,817.5,700,349,1.93,517.8,1.71,20724.05,347,156,157.1,157,24680,0,0,1.02,-0.05,0.09,0.31,3.18,-2.21,-3.24,-82.83,-1.82,-0.06,-1.12,-1.88,-3.37,Standing
20:08.0,299,520,780,700,349,1.93,517.8,1.71,20724.05,347,159,157.1,157,24680,25281,159,1.01,-0.04,0.08,-1.86,-0.41,-1.03,-3.05,-83.35,-1.98,-0.36,-1.15,-2.03,-3.68,Standing
20:08.1,621,529,793.5,700,349,1.93,517.8,1.71,20724.05,347,155,157.1,157,24680,49306,314,1,-0.05,0.1,-1.32,4.49,-1.87,-3.69,-81.83,-2.08,-0.05,-1.29,-2.14,-3.32,Standing
20:08.3,660,540,810,700,348,1.94,515.56,1.7,20724.05,347,157,157.1,157,24680,73955,471,1.01,-0.04,0.09,-1.53,3.74,-1.02,-3.08,-82.89,-2.2,0.17,-1.32,-2.24,-3.16,Standing
20:08.4,401,529,793.5,700,348,1.94,515.56,1.7,20724.05,347,158,157.1,157,24680,98919,629,1.01,-0.03,0.09,-2.1,-2.44,-1.26,-2.19,-82.9,-2.39,-0.39,-1.38,-2.39,-3.69,Standing
20:08.5,293,512,768,700,349,1.93,517.8,1.71,20724.05,347,157,157.1,157,24680,123568,786,1,-0.05,0.1,-1.44,2.18,-2.12,-3.45,-81.9,-2.5,-0.37,-1.54,-2.54,-3.63,Standing
20:08.6,624,520,780,700,348,1.94,515.56,1.7,20724.05,347,158,157.1,157,24680,148532,944,1,-0.03,0.09,-1.79,2.11,0.34,-2.5,-82.98,-2.66,-0.35,-1.4,-2.65,-3.66,Standing
20:08.8,704,531,796.5,704,349,1.93,517.8,1.71,20724.05,347,156,157.1,157,24680,172868,1100,1.01,-0.05,0.08,-0.76,-4.18,0.43,-3.4,-82.85,-2.68,-1.13,-1.25,-2.71,-4.4,Standing
20:08.9,468,528,792,704,349,1.93,517.8,1.71,20724.05,347,159,157.1,157,24680,198149,1259,1.01,-0.06,0.09,-0.34,0.98,-1.68,-3.81,-82.32,-2.66,-1.25,-1.36,-2.7,-4.5,Standing
20:09.0,403,521,781.5,704,349,1.93,517.8,1.71,20724.05,347,156,157.1,157,24680,222485,1415,1.01,-0.04,0.07,-1.26,0.84,-1.19,-2.71,-83.87,-2.74,-1.4,-1.41,-2.74,-4.7,Standing
20:09.1,742,532,798,742,350,1.92,520.06,1.71,20724.08,348,157,157.2,157,24712,0,0,1,-0.05,0.07,-2,0.27,-0.72,-3.16,-83.63,-2.92,-1.61,-1.4,-2.93,-4.89,Standing
20:09.3,863,549,823.5,863,351,1.91,522.32,1.72,20724.08,348,158,157.2,157,24712,24964,158,1.01,-0.05,0.08,-1.18,2.98,0.32,-3.57,-83.2,-3,-1.49,-1.27,-3.02,-4.76,Standing
20:09.4,517,547,820.5,863,349,1.93,517.8,1.71,20724.08,348,159,157.2,157,24712,50245,317,1.01,-0.05,0.08,-3.26,-0.59,-1.04,-3.35,-82.97,-3.34,-1.82,-1.3,-3.34,-5.06,Standing
20:09.5,311,536,804,863,349,1.93,517.8,1.71,20724.08,348,159,157.2,157,24712,75526,476,1,-0.05,0.09,-2.37,4.63,-1.56,-3.6,-82.56,-3.56,-1.49,-1.39,-3.56,-4.73,Standing
20:09.6,502,535,802.5,863,349,1.93,517.8,1.71,20724.08,348,157,157.2,157,24712,100175,633,1,-0.06,0.1,-2.4,0.95,0.79,-3.92,-81.95,-3.79,-1.62,-1.2,-3.8,-4.83,Standing
20:09.8,552,536,804,863,349,1.93,517.8,1.71,20724.08,348,160,157.2,157,24712,125775,793,1.02,-0.05,0.09,-1.45,1.15,0.54,-3.61,-82.49,-3.9,-1.73,-1.03,-3.89,-4.96,Standing
20:09.9,290,526,789,863,349,1.93,517.8,1.71,20724.08,348,157,157.2,157,24712,150424,950,1.02,-0.06,0.1,-1.78,1.42,-2.47,-4.13,-81.94,-4.06,-1.8,-1.24,-4.06,-5,Standing
20:10.0,55,508,762,863,349,1.93,517.8,1.71,20724.08,348,160,157.2,157,24712,176024,1110,1,-0.05,0.07,-2.66,1.63,-2.05,-3.34,-83.37,-4.32,-1.85,-1.4,-4.28,-5.11,Standing
20:10.1,382,503,754.5,863,349,1.93,517.8,1.71,20724.08,348,157,157.2,157,24712,200673,1267,0.99,-0.05,0.09,-3.23,1.35,-0.98,-3.65,-82.23,-4.66,-1.93,-1.42,-4.62,-5.14,Standing
20:10.3,637,508,762,863,349,1.93,517.8,1.71,20724.08,348,157,157.2,157,24712,225322,1424,1.02,-0.05,0.11,-2.98,0.73,1.34,-3.38,-81.87,-4.96,-2.09,-1.15,-4.9,-5.28,Standing
20:10.4,389,504,756,863,349,1.93,517.8,1.71,20724.08,349,160,158.4,158,25091,0,0,1.01,-0.06,0.1,-1.01,-0.6,0.16,-4.17,-81.92,-5.01,-2.41,-1.04,-4.98,-5.59,Standing
20:10.5,317,497,745.5,863,349,1.93,517.8,1.71,20724.08,349,157,158.4,158,25091,24649,157,1.01,-0.07,0.09,-0.1,0.58,-2.02,-4.67,-81.86,-4.96,-2.59,-1.19,-4.95,-5.76,Standing
20:10.6,576,500,750,863,350,1.92,520.06,1.71,20724.08,349,160,158.4,158,25091,50249,317,1.01,-0.06,0.09,-0.54,0.48,-2.17,-3.82,-82.3,-4.95,-2.78,-1.36,-4.91,-5.96,Standing
20:10.8,893,512,768,893,350,1.92,520.06,1.71,20724.08,349,160,158.4,158,25091,75849,477,1,-0.06,0.07,-0.75,0.8,-0.6,-4.25,-83.07,-4.98,-2.93,-1.34,-4.95,-6.13,Standing
20:10.9,583,514,771,893,349,1.93,517.8,1.71,20724.08,349,161,158.4,158,25091,101770,638,1.01,-0.06,0.09,-2.08,2.3,-1.08,-3.82,-82.53,-5.17,-2.89,-1.37,-5.11,-6.07,Standing
20:11.0,398,511,766.5,893,349,1.93,517.8,1.71,20724.08,349,159,158.4,158,25091,127051,797,1.01,-0.05,0.09,-1.79,1.79,-1.02,-3.52,-82.46,-5.32,-2.91,-1.4,-5.25,-6.1,Standing
20:11.1,610,514,771,893,350,1.92,520.06,1.71,20724.08,349,160,158.4,158,25091,152651,957,1.01,-0.05,0.09,-1.63,1,-2.06,-3.58,-82.73,-5.45,-3.04,-1.56,-5.38,-6.23,Standing
20:11.3,788,521,781.5,893,349,1.93,517.8,1.71,20724.08,349,161,158.4,158,25091,178572,1118,1.01,-0.06,0.09,-2.59,0.9,-1.99,-3.85,-82.17,-5.71,-3.18,-1.71,-5.64,-6.34,Standing
20:11.4,534,522,783,893,348,1.94,515.56,1.7,20724.08,349,161,158.4,158,25091,204493,1279,1.01,-0.05,0.09,-0.99,0.6,-0.95,-3.41,-82.63,-5.76,-3.35,-1.73,-5.67,-6.52,Standing
20:11.5,364,517,775.5,893,348,1.94,515.56,1.7,20724.08,349,158,158.4,158,25091,229457,1437,1.01,-0.05,0.08,-0.18,0.98,-0.9,-3.63,-82.85,-5.72,-3.48,-1.75,-5.63,-6.66,Standing
20:11.6,659,521,781.5,893,348,1.94,515.56,1.7,20724.08,349,160,159.7,159,25504,0,0,1.02,-0.06,0.08,-1.12,-1.85,0.48,-3.95,-82.94,-5.79,-3.96,-1.59,-5.71,-7.12,Standing
20:11.8,776,527,790.5,893,348,1.94,515.56,1.7,20724.08,349,158,159.7,159,25504,24964,158,1.01,-0.05,0.08,-1.24,2.58,-2.37,-3.62,-82.93,-5.87,-3.89,-1.79,-5.78,-7.05,Standing
20:11.9,556,528,792,893,347,1.95,513.31,1.7,20724.08,349,159,159.7,159,25504,50245,317,1.01,-0.05,0.08,-2.17,1.15,-1.86,-3.6,-83.19,-6.07,-3.99,-1.92,-5.97,-7.16,Standing
20:12.0,598,530,795,893,346,1.96,511.08,1.69,20724.08,349,156,159.7,159,25504,74581,473,1.01,-0.06,0.09,-2.85,0.58,-1.31,-3.96,-82.4,-6.36,-4.17,-1.99,-6.26,-7.3,Standing
20:12.1,576,531,796.5,893,347,1.95,513.31,1.7,20724.08,349,160,159.7,159,25504,100181,633,1,-0.05,0.09,-2.6,3.02,-1.15,-3.38,-82.71,-6.61,-4.04,-2.03,-6.48,-7.19,Standing
20:12.3,945,540,810,945,348,1.94,515.56,1.7,20724.08,349,157,159.7,159,25504,124830,790,1,-0.05,0.09,-2.44,-0.18,-0.54,-3.65,-82.52,-6.85,-4.32,-2,-6.72,-7.45,Standing
20:12.4,475,539,808.5,945,347,1.95,513.31,1.7,20724.08,349,156,159.7,159,25504,149166,946,1.02,-0.06,0.1,-3.15,5.7,-1.45,-4.13,-81.63,-7.17,-3.85,-2.08,-7.05,-6.97,Standing
20:12.5,259,533,799.5,945,346,1.96,511.08,1.69,20724.08,349,158,159.7,159,25504,174130,1104,1,-0.04,0.09,-1.9,1.2,-2.77,-3.06,-82.89,-7.34,-3.96,-2.33,-7.17,-7.11,Standing
20:12.6,541,533,799.5,945,347,1.95,513.31,1.7,20724.08,349,159,159.7,159,25504,199411,1263,1.01,-0.05,0.09,-2.5,-0.04,-2.32,-3.45,-82.48,-7.58,-4.21,-2.53,-7.42,-7.34,Standing
20:12.8,761,538,807,945,347,1.95,513.31,1.7,20724.08,349,156,159.7,159,25504,223747,1419,1,-0.04,0.12,1.69,12.79,-4.82,-2.98,-81.34,-7.3,-2.86,-3.03,-7.13,-6,Standing
20:12.9,244,532,798,945,347,1.95,513.31,1.7,20724.05,347,158,157.71,157,24870,0,0,1,-0.04,0.11,-4.47,-2.32,-0.78,-2.92,-81.88,-7.79,-3.4,-3.03,-7.59,-6.54,Standing
20:13.0,145,524,786,945,347,1.95,513.31,1.7,20724.05,347,158,157.71,157,24870,24964,158,0.99,-0.04,0.11,-1.37,1.05,0.93,-2.85,-81.69,-7.89,-3.52,-2.81,-7.69,-6.64,Standing
20:13.1,465,523,784.5,945,346,1.96,511.08,1.69,20724.05,347,156,157.71,157,24870,49300,314,1.01,-0.05,0.11,-2.64,1.47,-0.15,-3.6,-81.28,-8.15,-3.58,-2.73,-7.96,-6.69,Standing
20:13.3,815,528,792,945,348,1.94,515.56,1.7,20724.05,347,159,157.71,157,24870,74581,473,1.01,-0.04,0.11,-2.47,2.66,-1.85,-2.73,-81.83,-8.39,-3.5,-2.86,-8.16,-6.64,Standing
20:13.4,530,528,792,945,348,1.94,515.56,1.7,20724.05,347,158,157.71,157,24870,99545,631,1,-0.04,0.13,-2.13,0.11,-2,-2.81,-80.8,-8.58,-3.74,-3.02,-8.35,-6.82,Standing
20:13.5,298,524,786,945,348,1.94,515.56,1.7,20724.05,347,157,157.71,157,24870,124194,788,0.99,-0.06,0.1,-1.5,-1.24,0.11,-4.06,-81.83,-8.7,-4.14,-2.9,-8.51,-7.25,Standing
20:13.6,664,527,790.5,945,349,1.93,517.8,1.71,20724.05,347,159,157.71,157,24870,149475,947,1.01,-0.03,0.12,-1.34,3.27,-0.13,-2.14,-81.64,-8.8,-3.98,-2.82,-8.53,-7.09,Standing
20:13.8,987,535,802.5,987,349,1.93,517.8,1.71,20724.05,347,156,157.71,157,24870,173811,1103,1.01,-0.05,0.1,-1.63,-4.67,2.92,-3.46,-82.11,-8.93,-4.82,-2.35,-8.71,-7.91,Standing
20:13.9,483,534,801,987,347,1.95,513.31,1.7,20724.05,347,155,157.71,157,24870,197836,1258,1.02,-0.05,0.1,0.45,3.5,-3.73,-3.62,-81.86,-8.81,-4.64,-2.72,-8.6,-7.72,Standing
20:14.0,303,530,795,987,348,1.94,515.56,1.7,20724.05,347,157,157.71,157,24870,222485,1415,1.01,-0.04,0.09,-2,-2.81,-1.65,-2.77,-83.02,-8.99,-5.24,-2.83,-8.74,-8.35,Standing
20:14.1,591,531,796.5,987,348,1.94,515.56,1.7,20724.06,347,157,157.2,157,24712,0,0,1.01,-0.05,0.09,-1.29,4.05,-1.99,-3.56,-82.37,-9.08,-4.98,-2.98,-8.85,-8.08,Standing
20:14.3,884,537,805.5,987,349,1.93,517.8,1.71,20724.06,347,159,157.2,157,24712,25281,159,1,-0.05,0.09,-4.48,-1.52,-1.54,-3.23,-82.54,-9.57,-5.42,-3.07,-9.31,-8.51,Standing
20:14.4,491,536,804,987,349,1.93,517.8,1.71,20724.06,347,160,157.2,157,24712,50881,319,1.01,-0.04,0.11,-3.03,1.9,-3.11,-2.92,-82.04,-9.88,-5.44,-3.36,-9.6,-8.5,Standing
20:14.5,625,537,805.5,987,350,1.92,520.06,1.71,20724.06,347,159,157.2,157,24712,76162,478,1,-0.05,0.11,-2.84,2.02,-2.82,-3.53,-81.37,-10.16,-5.43,-3.62,-9.89,-8.47,Standing
20:14.6,556,538,807,987,350,1.92,520.06,1.71,20724.06,347,159,157.2,157,24712,101443,637,1,-0.03,0.11,-2.22,2.4,-2.9,-2.18,-82.21,-10.37,-5.38,-3.88,-10.04,-8.46,Standing
20:14.8,900,543,814.5,987,350,1.92,520.06,1.71,20724.06,347,157,157.2,157,24712,126092,794,1,-0.03,0.1,-1.23,1.03,0.55,-2.35,-82.34,-10.45,-5.5,-3.71,-10.13,-8.58,Standing
20:14.9,447,542,813,987,350,1.92,520.06,1.71,20724.06,347,159,157.2,157,24712,151373,953,1,-0.04,0.11,-4.62,1.35,-0.98,-2.66,-82,-10.96,-5.59,-3.74,-10.63,-8.64,Standing
20:15.0,319,539,808.5,987,350,1.92,520.06,1.71,20724.06,347,159,157.2,157,24712,176654,1112,1.01,-0.04,0.1,-3.05,0.79,-0.96,-3.07,-82.35,-11.28,-5.74,-3.76,-10.95,-8.8,Standing
20:15.1,715,541,811.5,987,350,1.92,520.06,1.71,20724.06,347,156,157.2,157,24712,200990,1268,1.01,-0.04,0.11,-1.21,3.53,-3.11,-2.64,-81.73,-11.36,-5.55,-4.05,-11.01,-8.59,Standing
20:15.3,776,545,817.5,987,351,1.91,522.32,1.72,20724.06,347,161,157.2,157,24712,226911,1429,0.99,-0.03,0.12,-1.61,0.68,-2.73,-2.46,-81.3,-11.49,-5.71,-4.29,-11.13,-8.74,Standing
20:15.4,322,541,811.5,987,351,1.91,522.32,1.72,20724.1,350,160,158.91,158,25250,0,0,1,-0.03,0.1,-2.87,0.19,0.94,-2.2,-82.32,-11.78,-5.94,-4.08,-11.39,-8.99,Standing
20:15.5,291,538,807,987,351,1.91,522.32,1.72,20724.1,350,160,158.91,158,25250,25600,160,1.02,-0.04,0.11,-0.83,2.27,-0.89,-2.97,-81.58,-11.81,-5.9,-4.09,-11.46,-8.93,Standing
20:15.6,676,540,810,987,352,1.91,524.59,1.72,20724.1,350,158,158.91,158,25250,50564,318,1.01,-0.04,0.1,-2.25,-1.14,-1.03,-2.6,-82.4,-12.02,-6.3,-4.12,-11.65,-9.34,Standing
20:15.8,688,542,813,987,352,1.91,524.59,1.72,20724.1,350,158,158.91,158,25250,75528,476,1,-0.04,0.11,-2.23,4.33,-2.76,-2.89,-81.68,-12.23,-6.01,-4.37,-11.86,-9.03,Standing
20:15.9,275,538,807,987,352,1.91,524.59,1.72,20724.1,350,160,158.91,158,25250,101128,636,1,-0.03,0.12,-2.23,1.32,-2.33,-2.14,-81.53,-12.44,-6.09,-4.56,-12.03,-9.11,Standing
20:16.0,310,535,802.5,987,351,1.91,522.32,1.72,20724.1,350,156,158.91,158,25250,125464,792,1.01,-0.03,0.12,-2.31,0.02,-0.37,-2.19,-81.37,-12.66,-6.34,-4.51,-12.24,-9.34,Standing
20:16.1,736,538,807,987,351,1.91,522.32,1.72,20724.1,350,158,158.91,158,25250,150428,950,1.01,-0.03,0.12,-4.01,-4.95,-0.39,-2.29,-81.65,-13.09,-7.22,-4.46,-12.66,-10.19,Standing
20:16.3,391,536,804,987,350,1.92,520.06,1.71,20724.1,350,156,158.91,158,25250,174764,1106,0.99,-0.03,0.11,-0.76,-0.87,-2.61,-2.4,-81.87,-13.12,-7.58,-4.69,-12.69,-10.55,Standing
20:16.4,124,530,795,987,351,1.91,522.32,1.72,20724.1,350,159,158.91,158,25250,200045,1265,1,-0.04,0.1,-0.93,-0.9,3.02,-2.85,-82.4,-13.17,-7.94,-4.21,-12.75,-10.92,Standing
20:16.5,521,530,795,987,350,1.92,520.06,1.71,20724.1,350,155,158.91,158,25250,224070,1420,1.02,-0.05,0.1,0.02,1.08,-1.36,-3.5,-82.33,-13.09,-8.06,-4.28,-12.71,-11.03,Standing
20:16.7,978,536,804,987,351,1.91,522.32,1.72,20724.12,351,160,158.01,158,24966,0,0,1,-0.04,0.09,-1.44,3.69,-2.24,-2.8,-82.94,-13.2,-7.85,-4.46,-12.78,-10.85,Standing
20:16.8,410,534,801,987,352,1.91,524.59,1.72,20724.12,351,160,158.01,158,24966,25600,160,1,-0.04,0.1,-3.71,0.03,-0.09,-3.05,-82.22,-13.6,-8.1,-4.37,-13.17,-11.06,Standing
20:16.9,373,532,798,987,352,1.91,524.59,1.72,20724.12,351,158,158.01,158,24966,50564,318,1.01,-0.04,0.11,-1.6,1.76,-0.98,-2.62,-81.89,-13.73,-8.13,-4.39,-13.28,-11.08,Standing
20:17.0,732,535,802.5,987,352,1.91,524.59,1.72,20724.12,351,159,158.01,158,24966,75845,477,1.02,-0.05,0.1,-2.44,0.15,-2.18,-3.41,-82.03,-13.96,-8.36,-4.57,-13.54,-11.31,Standing
20:17.2,853,539,808.5,987,352,1.91,524.59,1.72,20724.12,351,160,158.01,158,24966,101445,637,1,-0.04,0.1,-1.02,1.22,-2.26,-2.59,-82.61,-14.02,-8.46,-4.75,-13.56,-11.42,Standing
20:17.3,366,537,805.5,987,353,1.9,526.87,1.73,20724.12,351,160,158.01,158,24966,127045,797,1.01,-0.03,0.1,-2.19,-0.5,-1.05,-2.49,-82.6,-14.23,-8.77,-4.79,-13.76,-11.73,Standing
20:17.4,507,536,804,987,354,1.89,529.15,1.73,20724.12,351,160,158.01,158,24966,152645,957,1.01,-0.04,0.1,-2.06,1.88,-2.77,-2.57,-82.62,-14.42,-8.79,-5.04,-13.94,-11.74,Standing
20:17.5,953,541,811.5,987,353,1.9,526.87,1.73,20724.12,351,160,158.01,158,24966,178245,1117,1.01,-0.05,0.1,-3.73,0.97,-1.77,-3.23,-82.23,-14.82,-8.92,-5.16,-14.35,-11.85,Standing
20:17.7,481,540,810,987,352,1.91,524.59,1.72,20724.12,351,159,158.01,158,24966,203526,1276,1,-0.03,0.11,-3.24,4.08,-3.48,-2.46,-81.78,-15.15,-8.66,-5.5,-14.64,-11.58,Standing
20:17.8,222,537,805.5,987,353,1.9,526.87,1.73,20724.12,351,159,158.01,158,24966,228807,1435,1,-0.04,0.12,-4.54,1.26,-1.58,-2.66,-81.39,-15.65,-8.75,-5.6,-15.13,-11.65,Standing
20:17.9,573,537,805.5,987,352,1.91,524.59,1.72,20724.14,352,156,159.1,159,25313,0,0,1.01,-0.03,0.13,-2.6,5.56,-2.66,-2.5,-81,-15.91,-8.31,-5.83,-15.37,-11.22,Standing
20:18.0,757,540,810,987,352,1.91,524.59,1.72,20724.14,352,159,159.1,159,25313,25281,159,1.01,-0.02,0.13,-2.19,-0.18,-0.22,-1.67,-81.25,-16.11,-8.58,-5.76,-15.53,-11.49,Standing
20:18.2,353,538,807,987,353,1.9,526.87,1.73,20724.14,352,159,159.1,159,25313,50562,318,1,-0.03,0.12,-1.82,2.36,-1.51,-2.25,-81.63,-16.27,-8.54,-5.85,-15.71,-11.46,Standing
20:18.3,333,535,802.5,987,353,1.9,526.87,1.73,20724.14,352,160,159.1,159,25313,76162,478,1.01,-0.03,0.12,-3.71,-1.13,-0.79,-2.19,-81.22,-16.67,-8.93,-5.85,-16.09,-11.82,Standing
20:18.4,745,538,807,987,353,1.9,526.87,1.73,20724.14,352,157,159.1,159,25313,100811,635,1.01,-0.03,0.13,-2.38,2.72,-1.76,-2.43,-81.03,-16.9,-8.84,-5.97,-16.32,-11.73,Standing
20:18.5,695,539,808.5,987,354,1.89,529.15,1.73,20724.14,352,159,159.1,159,25313,126092,794,1.01,-0.02,0.13,-2.99,1.89,-3.56,-1.67,-81.14,-17.2,-8.86,-6.32,-16.58,-11.75,Standing
20:18.7,231,536,804,987,353,1.9,526.87,1.73,20724.14,352,159,159.1,159,25313,151373,953,1,-0.01,0.12,-1.18,0.66,-3.24,-1.39,-81.48,-17.28,-9.02,-6.63,-16.64,-11.92,Standing
20:18.8,402,535,802.5,987,352,1.91,524.59,1.72,20724.14,352,159,159.1,159,25313,176654,1112,1.01,-0.02,0.13,-2.75,-5.63,-2.47,-1.87,-81.01,-17.55,-9.98,-6.84,-16.93,-12.82,Standing
20:18.9,861,538,807,987,352,1.91,524.59,1.72,20724.14,352,156,159.1,159,25313,200990,1268,1,-0.02,0.11,-4.02,2.4,-2.98,-1.68,-82.12,-17.99,-9.93,-7.11,-17.34,-12.82,Standing
20:19.0,356,536,804,987,352,1.91,524.59,1.72,20724.14,352,159,159.1,159,25313,226271,1427,1,-0.01,0.12,-2.21,1.13,-0.85,-1.35,-81.51,-18.2,-10.04,-7.12,-17.52,-12.9,Standing
20:19.2,234,533,799.5,987,352,1.91,524.59,1.72,20724.14,352,156,158.3,158,25059,0,0,1.02,-0.01,0.11,-2.1,-1.72,-1.06,-1.08,-82.02,-18.39,-10.5,-7.15,-17.7,-13.36,Standing
20:19.3,553,533,799.5,987,351,1.91,522.32,1.72,20724.14,352,156,158.3,158,25059,24336,156,1.02,-0.03,0.11,-3.67,0.61,-3.27,-2.09,-82.12,-18.78,-10.68,-7.46,-18.11,-13.53,Standing
20:19.4,735,534,801,987,351,1.91,522.32,1.72,20724.14,352,159,158.3,158,25059,49617,315,1.01,-0.01,0.12,-3.21,4.34,-3.63,-1.15,-81.71,-19.11,-10.38,-7.82,-18.39,-13.24,Standing
20:19.5,286,530,795,987,351,1.91,522.32,1.72,20724.14,352,159,158.3,158,25059,74898,474,1.01,-0.01,0.11,-4.02,-7.32,2.32,-0.99,-82.29,-19.55,-11.56,-7.43,-18.81,-14.39,Standing
20:19.7,405,527,790.5,987,352,1.91,524.59,1.72,20724.14,352,158,158.3,158,25059,99862,632,1.01,-0.04,0.09,-3.58,-6.76,-0.06,-2.66,-82.76,-19.93,-12.66,-7.34,-19.24,-15.46,Standing
20:19.8,984,532,798,984,354,1.89,529.15,1.73,20724.14,352,161,158.3,158,25059,125783,793,1.04,-0.02,0.09,8.88,15.18,2.05,-1.53,-83.54,-18.74,-11,-6.98,-18.05,-13.9,Standing
20:19.9,702,534,801,984,355,1.88,531.44,1.74,20724.14,352,163,158.3,158,25059,152352,956,1.02,-0.03,0.08,2.34,1.9,1.01,-2.21,-83.68,-18.38,-11.01,-6.76,-17.73,-13.92,Standing
20:20.0,428,534,801,984,355,1.88,531.44,1.74,20724.14,352,162,158.3,158,25059,178596,1118,1,0,0.15,-1.66,0.71,-9.89,-0.75,-79.97,-18.51,-11.18,-7.9,-17.8,-13.93,Standing
20:20.2,645,535,802.5,984,354,1.89,529.15,1.73,20724.14,352,162,158.3,158,25059,204840,1280,0.97,0,0.18,-3.16,2.6,-5.02,-0.81,-78.05,-18.84,-11.1,-8.43,-18.12,-13.78,Standing
20:20.3,794,538,807,984,354,1.89,529.15,1.73,20724.14,352,161,158.3,158,25059,230761,1441,1.11,0.02,0.26,0.15,-9.69,-10.6,0.44,-74.97,-18.75,-12.57,-9.67,-17.99,-15.07,Standing
20:20.4,164,536,804,984,353,1.9,526.87,1.73,20724.15,353,160,160.11,160,25635,0,0,0.89,0.03,0.04,14.37,-2.2,-8.79,1.05,-85.16,-16.89,-13.1,-10.67,-16.17,-15.98,Standing
20:20.5,189,534,801,984,354,1.89,529.15,1.73,20724.15,353,159,160.11,160,25635,25281,159,0.95,0.07,0.1,3.85,2.26,5.44,3.39,-81.38,-16.34,-13.07,-9.89,-15.55,-15.8,Standing
20:20.7,610,534,801,984,353,1.9,526.87,1.73,20724.15,353,158,160.11,160,25635,50245,317,1.02,0.06,0.05,-1.03,-13.84,5.57,2.78,-84.06,-16.39,-15.06,-9.09,-15.63,-17.82,Standing
20:20.8,565,533,799.5,984,352,1.91,524.59,1.72,20724.15,353,158,160.11,160,25635,75209,475,1.04,-0.02,0.04,0.08,-7.99,1.49,-1.47,-86.1,-16.31,-16.31,-8.81,-15.72,-19.1,Standing
20:20.9,64,530,795,984,352,1.91,524.59,1.72,20724.15,353,160,160.11,160,25635,100809,635,1.02,-0.02,0.02,-17.25,19.89,-5.31,-1.63,-86.88,-18.42,-14.06,-9.38,-17.75,-16.97,Standing
20:21.0,691,534,801,984,355,1.88,531.44,1.74,20724.15,353,162,160.11,160,25635,127053,797,0.97,0.01,0.04,-8.58,8.34,-5.52,0.21,-85.97,-19.42,-13.26,-9.97,-18.63,-16.17,Standing
20:21.2,887,537,805.5,887,354,1.89,529.15,1.73,20724.15,353,158,160.11,160,25635,152017,955,1.04,0.04,0.09,-16.34,-11.15,2.35,1.83,-82.75,-21.39,-14.91,-9.57,-20.46,-17.62,Standing
20:21.3,475,534,801,887,354,1.89,529.15,1.73,20724.15,353,161,160.11,160,25635,177938,1116,1.04,-0.01,0.14,-14.3,5.77,-8.06,-1.01,-80.8,-23.14,-14.43,-10.5,-22.25,-17.08,Standing
20:21.4,292,533,799.5,887,354,1.89,529.15,1.73,20724.15,353,159,160.11,160,25635,203219,1275,0.98,0,0.13,-7.55,11,-5.11,-0.71,-80.78,-24.02,-13.29,-11.04,-23.09,-15.99,Standing
20:21.6,827,537,805.5,827,353,1.9,526.87,1.73,20724.15,353,159,160.11,160,25635,228500,1434,0.98,0.01,0.12,-11.06,0.96,5.23,-0.21,-81.14,-25.34,-13.43,-10.28,-24.34,-16.13,Standing
20:21.7,619,536,804,827,352,1.91,524.59,1.72,20724.15,353,160,159.41,159,25409,0,0,1.04,0.01,0.13,-8.66,-14.73,0.53,-0.18,-81.42,-26.35,-15.52,-10.12,-25.31,-18.15,Standing
20:21.8,286,530,795,827,353,1.9,526.87,1.73,20724.15,353,162,159.41,159,25409,26244,162,0.96,-0.01,0.06,-4.76,3.4,-2.37,-1.35,-84.78,-26.88,-15.34,-10.32,-25.86,-18.12,Standing
20:21.9,473,529,793.5,827,353,1.9,526.87,1.73,20724.15,353,159,159.41,159,25409,51525,321,0.98,0,0.1,-8.71,19.67,-0.31,-0.47,-82.89,-27.91,-13.11,-10.26,-26.81,-15.91,Standing
20:22.1,890,535,802.5,890,352,1.91,524.59,1.72,20724.15,353,158,159.41,159,25409,76489,479,1.01,-0.02,0.09,-14.81,-17.84,1.56,-1.66,-83.01,-29.71,-15.61,-9.96,-28.58,-18.31,Standing
20:22.2,345,534,801,890,353,1.9,526.87,1.73,20724.15,353,161,159.41,159,25409,102410,640,1.07,0.01,0.06,-14.53,1.54,-4.97,-0.05,-84.95,-31.46,-15.67,-10.49,-30.21,-18.44,Standing
20:22.3,148,530,795,890,353,1.9,526.87,1.73,20724.15,353,160,159.41,159,25409,128010,800,0.98,0,0.07,-20.12,0.82,-8.44,-0.78,-84.61,-33.93,-15.82,-11.45,-32.6,-18.57,Standing
20:22.4,653,533,799.5,890,353,1.9,526.87,1.73,20724.15,353,159,159.41,159,25409,153291,959,1.01,-0.01,0.09,-13.11,4.7,-10.7,-1.32,-83.19,-35.51,-15.48,-12.7,-34.14,-18.19,Standing
20:22.6,564,538,807,890,353,1.9,526.87,1.73,20724.15,353,161,159.41,159,25409,179212,1120,1.03,0.03,0.03,-14.01,-16.26,-5.12,1.17,-86.1,-37.22,-17.8,-13.25,-35.68,-20.53,Standing
20:22.7,279,537,805.5,890,353,1.9,526.87,1.73,20724.15,353,160,159.41,159,25409,204812,1280,0.99,0.05,0.08,-0.79,4.76,-6.01,2.11,-83.14,-37.25,-17.45,-13.91,-35.67,-20.08,Standing
20:22.8,599,537,805.5,890,352,1.91,524.59,1.72,20724.15,353,159,159.41,159,25409,230093,1439,1,0.05,0.08,1.21,4.6,-1.37,2.19,-82.96,-37.02,-17.12,-13.98,-35.46,-19.76,Standing
20:22.9,763,541,811.5,890,352,1.91,524.59,1.72,20724.14,352,161,160,160,25600,0,0,1.02,0.04,0.06,-3.14,-6.72,1.63,1.48,-84.32,-37.34,-18.21,-13.68,-35.79,-20.85,Standing
20:23.1,341,541,811.5,890,352,1.91,524.59,1.72,20724.14,352,158,160,160,25600,24964,158,1.02,0.01,0.06,2.4,4.47,-3.21,-0.06,-85.12,-36.97,-17.89,-13.99,-35.49,-20.58,Standing
20:23.2,354,539,808.5,890,353,1.9,526.87,1.73,20724.14,352,161,160,160,25600,50885,319,1.02,0.04,0.07,3.98,6.23,-4.11,1.49,-84.08,-36.4,-17.36,-14.4,-34.88,-20.03,Standing
20:23.3,880,539,808.5,880,353,1.9,526.87,1.73,20724.14,352,158,160,160,25600,75849,477,1.01,0.05,0.05,-0.5,1.42,-2.19,2.33,-84.52,-36.39,-17.43,-14.58,-34.84,-20.12,Standing
20:23.4,928,542,813,928,353,1.9,526.87,1.73,20724.14,352,158,160,160,25600,100813,635,1.01,0.04,0.06,-5.54,-2.82,0.83,1.64,-84.38,-37.01,-18.04,-14.38,-35.47,-20.69,Standing
20:23.6,581,544,816,928,354,1.89,529.15,1.73,20724.14,352,160,160,160,25600,126413,795,1.01,0.04,0.05,0.48,4.86,-0.43,1.49,-84.98,-36.88,-17.68,-14.33,-35.35,-20.37,Standing
20:23.7,549,543,814.5,928,352,1.91,524.59,1.72,20724.14,352,158,160,160,25600,151377,953,1.01,0.03,0.05,-1.78,1.89,0.2,1.33,-84.81,-37.04,-17.69,-14.21,-35.5,-20.38,Standing
20:23.8,953,545,817.5,953,352,1.91,524.59,1.72,20724.14,352,157,160,160,25600,176026,1110,1.01,0.03,0.07,-2.98,1.7,0.24,1.17,-84.16,-37.34,-17.73,-14.08,-35.8,-20.39,Standing
20:23.9,801,547,820.5,953,353,1.9,526.87,1.73,20724.14,352,158,160,160,25600,200990,1268,1.02,0.03,0.06,-1.47,3.73,-0.92,1.24,-84.43,-37.46,-17.51,-14.09,-35.91,-20.19,Standing
20:24.1,339,547,820.5,953,352,1.91,524.59,1.72,20724.14,352,159,160,160,25600,226271,1427,1.01,0.03,0.07,-2.59,0.19,-0.18,1.39,-84.25,-37.71,-17.74,-14.02,-36.15,-20.4,Standing
20:24.2,639,547,820.5,953,351,1.91,522.32,1.72,20724.14,352,160,158.7,158,25186,0,0,1.06,0.03,0,-2.42,-1.48,-0.69,0.98,-86.86,-37.94,-18.18,-14,-36.39,-20.92,Standing
20:24.3,858,548,822,858,350,1.92,520.06,1.71,20724.14,352,157,158.7,158,25186,24649,157,1.01,0.02,0.07,-3.53,3.14,-0.81,0.54,-84.34,-38.32,-18.03,-14.01,-36.77,-20.68,Standing
20:24.4,320,546,819,858,348,1.94,515.56,1.7,20724.14,352,160,158.7,158,25186,50249,317,1.02,0.03,0.07,-3.66,-1.85,-1.44,0.93,-83.98,-38.71,-18.51,-14.09,-37.12,-21.13,Standing
20:24.6,466,544,816,858,347,1.95,513.31,1.7,20724.14,352,159,158.7,158,25186,75530,476,1.01,0.02,0.05,-0.75,-1.32,0.21,0.81,-85.11,-38.73,-18.93,-13.96,-37.15,-21.58,Standing
20:24.7,558,544,816,858,345,1.97,508.85,1.69,20724.14,352,159,158.7,158,25186,100811,635,1.01,0.02,0.07,-4.03,1.53,-2.11,0.57,-84.44,-39.17,-18.99,-14.13,-37.58,-21.61,Standing
20:24.8,580,540,810,858,343,1.98,504.41,1.68,20724.14,352,159,158.7,158,25186,126092,794,1,0.02,0.07,-1.45,3.11,1,0.84,-83.99,-39.28,-18.85,-13.91,-37.68,-21.46,Standing
20:24.9,87,536,804,858,342,1.99,502.2,1.67,20724.14,352,158,158.7,158,25186,151056,952,1,0.01,0.09,-2.31,-4.24,0.98,0.14,-83.15,-39.5,-19.64,-13.68,-37.91,-22.18,Standing
20:25.1,244,536,804,858,341,2,500,1.67,20724.14,352,158,158.7,158,25186,176020,1110,1.01,0.02,0.07,0.82,0.89,-1.85,0.73,-84.47,-39.33,-19.78,-13.82,-37.72,-22.37,Standing
20:25.2,666,538,807,858,340,2.01,497.8,1.66,20724.14,352,158,158.7,158,25186,200984,1268,1,0.02,0.05,-1.08,-1.44,-0.24,0.45,-85.31,-39.39,-20.21,-13.75,-37.8,-22.81,Standing
20:25.3,409,534,801,858,339,2.02,495.61,1.66,20724.14,352,159,158.7,158,25186,226265,1427,1.02,0.03,0.04,-1.08,-0.23,0.92,1.21,-85.53,-39.46,-20.49,-13.53,-37.83,-23.09,Standing
20:25.4,124,533,799.5,858,338,2.03,493.43,1.65,20723.99,343,158,158.5,158,25121,0,0,1.02,0.01,0.03,-0.41,1.3,-0.93,-0.05,-86.46,-39.44,-20.58,-13.55,-37.86,-23.21,Standing
20:25.6,416,536,804,858,337,2.04,491.25,1.65,20723.99,343,159,158.5,158,25121,25281,159,1.02,0.02,0.05,-4.03,1.73,-1.42,0.6,-85.55,-39.87,-20.61,-13.63,-38.25,-23.21,Standing
20:25.7,770,539,808.5,858,337,2.04,491.25,1.65,20723.99,343,160,158.5,158,25121,50881,319,1.01,0.01,0.05,-2.44,0.34,-0.6,-0.29,-85.54,-40.11,-20.82,-13.6,-38.51,-23.41,Standing
20:25.8,304,534,801,858,336,2.04,489.08,1.64,20723.99,343,160,158.5,158,25121,76481,479,1.02,0.01,0.05,-2.25,1.02,-0.76,0.22,-85.3,-40.32,-20.94,-13.6,-38.7,-23.52,Standing
20:25.9,309,531,796.5,858,334,2.06,484.76,1.63,20723.99,343,158,158.5,158,25121,101445,637,1.01,0,0.04,-1.82,-1.53,-0.4,-0.44,-85.9,-40.48,-21.39,-13.55,-38.88,-23.97,Standing
20:26.1,701,535,802.5,858,334,2.06,484.76,1.63,20723.99,343,158,158.5,158,25121,126409,795,1.02,0.01,0.02,-3.35,-1.14,-1.92,0.07,-86.94,-40.83,-21.78,-13.69,-39.19,-24.39,Standing
20:26.2,595,535,802.5,858,334,2.06,484.76,1.63,20723.99,343,156,158.5,158,25121,150745,951,1.02,0,0.04,-5.14,-2.51,-1.67,-0.37,-85.99,-41.41,-22.35,-13.81,-39.77,-24.9,Standing
20:26.3,236,527,790.5,858,334,2.06,484.76,1.63,20723.99,343,158,158.5,158,25121,175709,1109,1.02,0.01,0.03,-0.85,2.47,-3.62,-0.02,-86.58,-41.44,-22.29,-14.16,-39.79,-24.86,Standing
20:26.5,573,528,792,858,335,2.05,486.92,1.64,20723.99,343,159,158.5,158,25121,200990,1268,1,0.02,0.02,-3.4,-1.58,-1,0.68,-86.79,-41.8,-22.74,-14.19,-40.1,-25.31,Standing
20:26.6,935,534,801,935,336,2.04,489.08,1.64,20723.99,343,157,158.5,158,25121,225639,1425,1,0.01,0.03,-2.36,2.39,1.34,0.21,-86.66,-42.03,-22.7,-13.92,-40.34,-25.25,Standing
20:26.7,442,533,799.5,935,337,2.04,491.25,1.65,20723.85,335,161,158.61,158,25155,0,0,1.02,0,0.04,-0.54,2.18,2.08,-0.73,-86.17,-42.03,-22.67,-13.56,-40.37,-25.21,Standing
20:26.8,464,529,793.5,935,338,2.03,493.43,1.65,20723.85,335,161,158.61,158,25155,25921,161,1.03,0,0.04,-1.43,1.29,0.21,-0.62,-86.24,-42.14,-22.76,-13.44,-40.48,-25.3,Standing
20:27.0,992,534,801,992,339,2.02,495.61,1.66,20723.85,335,160,158.61,158,25155,51521,321,1.02,0,0.03,-1.79,-2.31,-0.72,-0.84,-86.86,-42.29,-23.31,-13.43,-40.63,-25.85,Standing
20:27.1,875,536,804,992,339,2.02,495.61,1.66,20723.85,335,161,158.61,158,25155,77442,482,1.01,0,0,-0.7,-0.24,-2.21,-0.37,-88.13,-42.31,-23.59,-13.61,-40.63,-26.17,Standing
20:27.2,360,534,801,992,337,2.04,491.25,1.65,20723.85,335,160,158.61,158,25155,103042,642,1,0.01,0,-2.95,2.94,-1.7,-0.15,-87.95,-42.61,-23.47,-13.72,-40.91,-26.05,Standing
20:32.0,208,208,312,208,338,2.03,493.43,1.65,0,0,157,0,0,0,49613,315,0.97,0,0.06,-5.24,12.04,-3.21,-0.36,-84.87,-1.36,1.08,-0.44,-1.32,-2.36,Left Fall while Standing
20:32.2,284,246,369,284,338,2.03,493.43,1.65,0,0,157,0,0,0,74262,472,1.04,0.04,0.08,-8.5,0.79,-1.76,1.72,-83.58,-2.33,0.93,-0.56,-2.17,-2.45,Left Fall while Standing
20:32.3,434,308,462,434,338,2.03,493.43,1.65,0,0,158,0,0,0,99226,630,0.97,0.02,0.08,0.13,-1.24,0.15,0.37,-83.87,-2.25,0.54,-0.45,-2.14,-2.84,Left Fall while Standing
20:32.4,780,426,639,780,338,2.03,493.43,1.65,0,0,158,0,0,0,124190,788,1.02,0.01,0.08,2.44,1.47,4.69,-0.05,-83.7,-1.88,0.47,0.23,-1.81,-2.89,Left Fall while Standing
20:32.5,898,520,780,898,338,2.03,493.43,1.65,0,0,158,0,0,0,149154,946,1.02,-0.01,0.07,5.46,-2.31,-5.6,-1.03,-84.56,-1.14,-0.05,-0.36,-1.14,-3.43,Left Fall while Standing
20:32.6,967,595,892.5,967,339,2.02,495.61,1.66,0,0,159,0,0,0,174435,1105,1.03,0,0.02,1.01,-9.48,-6.4,-0.32,-87.01,-0.95,-1.45,-1.04,-0.93,-4.87,Left Fall while Standing
20:32.8,995,652,978,995,339,2.02,495.61,1.66,0,0,158,0,0,0,199399,1263,1.04,0.02,0.06,6.85,5.41,-20.21,0.53,-85.15,-0.04,-1.03,-3.43,-0.02,-4.4,Left Fall while Standing
20:32.9,648,651,976.5,995,339,2.02,495.61,1.66,0,0,157,0,0,0,224048,1420,1.02,0.1,-0.01,-2.94,-2.39,-27.56,5.05,-82.78,-0.33,-1.57,-6.7,-0.12,-4.82,Left Fall while Standing
20:33.0,421,626,939,995,339,2.02,495.61,1.66,20723.91,338,156,157.6,157,24837,0,0,1,0.16,0.05,-0.58,-0.95,-26.79,8.32,-79.04,-0.33,-1.94,-9.95,0.01,-5.02,Left Fall while Standing
20:33.1,516,615,922.5,995,340,2.01,497.8,1.66,20723.91,338,157,157.6,157,24837,24649,157,0.92,0.17,0.02,1.17,-6.74,-21.53,10.14,-77.63,-0.12,-3.02,-12.52,0.29,-6.01,Left Fall while Standing
20:33.3,888,639,958.5,995,340,2.01,497.8,1.66,20723.91,338,157,157.6,157,24837,49298,314,0.99,0.26,0.03,-3.34,0.5,-20.95,14.25,-73.51,-0.47,-3.21,-15.04,0.12,-6.02,Left Fall while Standing
20:33.4,993,669,1003.5,995,341,2,500,1.67,20723.91,338,160,157.6,157,24837,74898,474,0.96,0.29,-0.01,-4.98,4.85,-27.7,16.18,-71.64,-1.02,-2.85,-18.43,-0.34,-5.6,Left Fall while Standing
20:33.5,444,652,978,995,343,1.98,504.41,1.68,20723.91,338,162,157.6,157,24837,101142,636,0.94,0.33,0.01,-3.76,1.28,-18.11,19.05,-68.79,-1.43,-2.94,-20.6,-0.61,-5.57,Left Fall while Standing
20:33.6,459,638,957,995,344,1.97,506.63,1.68,20723.91,338,164,157.6,157,24837,128038,800,0.95,0.34,0,1.08,-8.98,-18.29,19.07,-68.76,-1.22,-4.32,-22.8,-0.41,-6.9,Left Fall while Standing
20:33.8,738,644,966,995,346,1.96,511.08,1.69,20723.91,338,165,157.6,157,24837,155263,965,0.97,0.43,-0.03,6.85,-8.31,-22.65,23.28,-64.49,-0.29,-5.61,-25.53,0.65,-7.96,Left Fall while Standing
20:33.9,585,641,961.5,995,346,1.96,511.08,1.69,20723.91,338,161,157.6,157,24837,181184,1126,0.92,0.44,-0.03,-0.7,-3.85,-28.92,25.24,-62.54,-0.31,-6.35,-29.08,0.71,-8.6,Left Fall while Standing
20:34.0,620,639,958.5,995,344,1.97,506.63,1.68,20723.91,338,157,157.6,157,24837,205833,1283,0.84,0.51,-0.04,2.21,-4.29,-30.47,30.34,-57.41,0.04,-7.13,-32.79,1.25,-9.15,Left Fall while Standing
20:34.1,371,624,936,995,344,1.97,506.63,1.68,20723.91,338,160,157.6,157,24837,231433,1443,0.79,0.55,-0.1,0.42,-2.34,-15.31,34.29,-52.92,0.16,-7.68,-34.62,1.53,-9.49,Left Fall while Standing
20:34.3,494,618,927,995,344,1.97,506.63,1.68,20723.98,343,161,160.42,160,25734,0,0,0.82,0.57,-0.07,-8.82,4.02,-5.31,34.27,-53.31,-0.86,-7.43,-35.18,0.55,-9.27,Left Fall while Standing
20:34.4,468,610,915,995,346,1.96,511.08,1.69,20723.98,343,159,160.42,160,25734,25281,159,0.82,0.56,-0.03,-4.51,-0.08,-4.82,33.76,-54.02,-1.35,-7.69,-35.68,0.05,-9.55,Left Fall while Standing
20:34.5,567,608,912,995,346,1.96,511.08,1.69,20723.98,343,160,160.42,160,25734,50881,319,0.82,0.58,-0.05,-4.29,4.38,-5.4,34.36,-53.35,-1.82,-7.4,-36.26,-0.37,-9.23,Left Fall while Standing
20:34.6,630,609,913.5,995,346,1.96,511.08,1.69,20723.98,343,159,160.42,160,25734,76162,478,0.82,0.6,-0.05,-3.16,0.21,-8.08,35.53,-52.19,-2.14,-7.62,-37.17,-0.63,-9.4,Left Fall while Standing
20:34.8,787,617,925.5,995,346,1.96,511.08,1.69,20723.98,343,161,160.42,160,25734,102083,639,0.78,0.6,-0.04,-3.53,-0.24,-9.28,37.03,-50.7,-2.51,-7.9,-38.23,-0.93,-9.61,Left Fall while Standing
20:34.9,837,626,939,995,346,1.96,511.08,1.69,20723.98,343,159,160.42,160,25734,127364,798,0.79,0.62,-0.02,-2.47,-3.21,-5.56,37.8,-50.02,-2.75,-8.55,-38.83,-1.13,-10.21,Left Fall while Standing
20:35.0,761,631,946.5,995,347,1.95,513.31,1.7,20723.98,343,159,160.42,160,25734,152645,957,0.8,0.61,-0.03,-0.67,1,-6.06,36.6,-51.18,-2.77,-8.68,-39.49,-1.19,-10.38,Left Fall while Standing
20:35.1,613,631,946.5,995,346,1.96,511.08,1.69,20723.98,343,159,160.42,160,25734,177926,1116,0.77,0.63,-0.05,2.05,3.09,-8.11,38.79,-48.91,-2.44,-8.54,-40.41,-0.79,-10.16,Left Fall while Standing
20:35.3,644,631,946.5,995,345,1.97,508.85,1.69,20723.98,343,158,160.42,160,25734,202890,1274,0.78,0.65,-0.09,-7.76,-0.44,-9.12,38.82,-48.61,-3.35,-8.85,-41.46,-1.66,-10.44,Left Fall while Standing
20:35.4,199,616,924,995,343,1.98,504.41,1.68,20723.98,343,157,160.42,160,25734,227539,1431,0.73,0.64,-0.02,-11.18,-3.47,-9.19,40.64,-47.17,-4.69,-9.54,-42.52,-2.87,-11.05,Left Fall while Standing
20:35.5,173,600,900,995,342,1.99,502.2,1.67,20724.02,345,162,159.3,159,25377,0,0,0.71,0.68,0,-2.7,-1.41,-6.08,43.18,-44.66,-4.95,-9.96,-43.17,-3.03,-11.35,Left Fall while Standing
20:35.6,238,588,882,995,341,2,500,1.67,20724.02,345,162,159.3,159,25377,26244,162,0.75,0.67,-0.05,3.99,4.7,-1.22,41.15,-46.55,-4.38,-9.62,-43.23,-2.56,-11.1,Left Fall while Standing
20:35.8,345,580,870,995,341,2,500,1.67,20724.02,345,162,159.3,159,25377,52488,324,0.75,0.65,-0.06,-3.31,2.84,-8.14,40.3,-47.31,-4.72,-9.52,-44.15,-2.92,-11.03,Left Fall while Standing
20:35.9,310,572,858,995,339,2.02,495.61,1.66,20724.02,345,159,159.3,159,25377,77769,483,0.73,0.69,-0.03,-4.83,0.13,-9.16,43.12,-44.68,-5.25,-9.75,-45.19,-3.32,-11.15,Left Fall while Standing
20:36.0,365,566,849,995,338,2.03,493.43,1.65,20724.02,345,160,159.3,159,25377,103369,643,0.71,0.69,-0.02,-2.82,2.95,-7.05,43.57,-44.24,-5.54,-9.63,-45.98,-3.58,-11.02,Left Fall while Standing
20:36.1,490,563,844.5,995,337,2.04,491.25,1.65,20724.02,345,158,159.3,159,25377,128333,801,0.72,0.71,-0.03,-1.83,1.95,-6.07,44.01,-43.77,-5.7,-9.64,-46.64,-3.71,-11.01,Left Fall while Standing
20:36.3,445,560,840,995,336,2.04,489.08,1.64,20724.02,345,160,159.3,159,25377,153933,961,0.69,0.7,-0.02,-2.58,2.86,-7.31,44.99,-42.82,-5.95,-9.53,-47.46,-3.91,-10.86,Left Fall while Standing
20:36.4,264,552,828,995,335,2.05,486.92,1.64,20724.02,345,161,159.3,159,25377,179854,1122,0.69,0.73,-0.03,0.08,0.36,-7.3,45.81,-41.98,-5.87,-9.74,-48.28,-3.8,-11.03,Left Fall while Standing
20:36.5,190,542,813,995,334,2.06,484.76,1.63,20724.02,345,162,159.3,159,25377,206098,1284,0.67,0.73,-0.03,-0.72,-1.55,-6.24,46.69,-41.11,-5.89,-10.18,-48.96,-3.79,-11.42,Left Fall while Standing
20:36.6,369,537,805.5,995,335,2.05,486.92,1.64,20724.02,345,159,159.3,159,25377,231379,1443,0.65,0.74,-0.04,-1.08,-0.92,-1.64,48.2,-39.57,-5.96,-10.55,-49.06,-3.79,-11.71,Left Fall while Standing
20:36.8,415,534,801,995,335,2.05,486.92,1.64,20723.88,337,162,160.51,160,25761,0,0,0.67,0.72,-0.04,0.12,0.48,1.13,46.72,-41.02,-5.87,-10.74,-48.82,-3.77,-11.95,Left Fall while Standing
20:36.9,465,532,798,995,335,2.05,486.92,1.64,20723.88,337,161,160.51,160,25761,25921,161,0.69,0.73,-0.05,-3.46,0.66,0.86,46.06,-41.63,-6.23,-10.91,-48.62,-4.14,-12.14,Left Fall while Standing
20:37.0,584,534,801,995,335,2.05,486.92,1.64,20723.88,337,159,160.51,160,25761,51202,320,0.68,0.72,-0.03,-3.95,0.81,-0.86,46.1,-41.67,-6.66,-11.06,-48.63,-4.55,-12.28,Left Fall while Standing
20:37.1,710,538,807,995,336,2.04,489.08,1.64,20723.88,337,162,160.51,160,25761,77446,482,0.69,0.73,-0.03,-1.66,0.16,-2.56,45.83,-41.95,-6.8,-11.29,-48.85,-4.69,-12.51,Left Fall while Standing
20:37.3,807,544,816,995,337,2.04,491.25,1.65,20723.88,337,163,160.51,160,25761,104015,645,0.69,0.72,-0.03,0.78,-0.33,-6.85,45.72,-42.07,-6.63,-11.58,-49.61,-4.53,-12.8,Left Fall while Standing
20:37.4,870,552,828,995,337,2.04,491.25,1.65,20723.88,337,162,160.51,160,25761,130259,807,0.66,0.74,-0.03,1.16,0.06,-10.05,47.63,-40.15,-6.41,-11.82,-50.77,-4.25,-12.96,Left Fall while Standing
20:37.5,827,558,837,995,338,2.03,493.43,1.65,20723.88,337,160,160.51,160,25761,155859,967,0.64,0.75,-0.04,1.88,-0.93,-7.74,49.12,-38.63,-6.11,-12.19,-51.65,-3.9,-13.25,Left Fall while Standing
20:37.7,557,558,837,995,338,2.03,493.43,1.65,20723.88,337,162,160.51,160,25761,182103,1129,0.63,0.76,-0.07,1.98,-1.15,-6.75,49.72,-37.83,-5.79,-12.59,-52.4,-3.57,-13.6,Left Fall while Standing
20:37.8,209,550,825,995,339,2.02,495.61,1.66,20723.88,337,158,160.51,160,25761,207067,1287,0.63,0.78,-0.08,-1.68,1.08,-7.68,50.29,-37.21,-5.93,-12.71,-53.27,-3.68,-13.69,Left Fall while Standing
20:37.9,105,541,811.5,995,338,2.03,493.43,1.65,20723.88,337,159,160.51,160,25761,232348,1446,0.61,0.78,-0.06,-4.85,0.06,-6.23,51.23,-36.37,-6.47,-12.95,-53.95,-4.16,-13.89,Left Fall while Standing
20:38.0,211,534,801,995,338,2.03,493.43,1.65,20723.88,337,157,160.31,160,25698,0,0,0.6,0.78,-0.05,-4.81,-0.02,-3.93,51.73,-35.94,-6.99,-13.2,-54.34,-4.65,-14.11,Left Fall while Standing
20:38.2,248,528,792,995,340,2.01,497.8,1.66,20723.88,337,162,160.31,160,25698,26244,162,0.6,0.78,-0.05,-2.47,1.19,-3.67,52.01,-35.65,-7.23,-13.3,-54.7,-4.86,-14.2,Left Fall while Standing
20:38.3,377,525,787.5,995,341,2,500,1.67,20723.88,337,159,160.31,160,25698,51525,321,0.59,0.8,-0.06,-1.6,1.62,-2.15,52.49,-35.14,-7.36,-13.35,-54.87,-4.97,-14.22,Left Fall while Standing
20:38.4,543,526,789,995,341,2,500,1.67,20723.88,337,159,160.31,160,25698,76806,480,0.59,0.78,-0.05,-2.53,0.01,-2.37,52.42,-35.27,-7.61,-13.6,-55.07,-5.21,-14.47,Left Fall while Standing
20:38.5,655,528,792,995,342,1.99,502.2,1.67,20723.88,337,163,160.31,160,25698,103375,643,0.59,0.8,-0.07,-4.38,1.86,-0.09,52.76,-34.82,-8.09,-13.62,-54.98,-5.66,-14.47,Left Fall while Standing
20:38.7,737,532,798,995,343,1.98,504.41,1.68,20723.88,337,164,160.31,160,25698,130271,807,0.59,0.78,-0.04,-3.01,0.27,0.27,52.25,-35.49,-8.4,-13.84,-54.85,-5.97,-14.7,Left Fall while Standing
20:38.8,696,535,802.5,995,344,1.97,506.63,1.68,20723.88,337,164,160.31,160,25698,157167,971,0.6,0.8,-0.04,-0.5,1.67,-0.05,52.43,-35.3,-8.39,-13.88,-54.76,-5.96,-14.73,Left Fall while Standing
20:38.9,816,540,810,995,345,1.97,508.85,1.69,20723.88,337,163,160.31,160,25698,183736,1134,0.6,0.78,-0.04,-1.15,0.4,0.35,51.91,-35.82,-8.47,-14.08,-54.61,-6.05,-14.95,Left Fall while Standing
20:39.0,767,544,816,995,344,1.97,506.63,1.68,20723.88,337,161,160.31,160,25698,209657,1295,0.61,0.79,-0.06,-4.89,-2.35,1.39,51.67,-35.94,-9.01,-14.62,-54.34,-6.58,-15.48,Left Fall while Standing
20:39.2,457,543,814.5,995,342,1.99,502.2,1.67,20723.88,337,161,160.31,160,25698,235578,1456,0.61,0.78,-0.06,2.29,-0.44,2.12,51.42,-36.21,-8.65,-14.93,-53.97,-6.25,-15.78,Left Fall while Standing
20:39.3,415,540,810,995,342,1.99,502.2,1.67,20723.97,342,162,161.81,161,26181,0,0,0.62,0.78,-0.08,2.24,0.82,6.24,51.05,-36.44,-8.3,-15.08,-53.1,-5.92,-15.93,Left Fall while Standing
20:39.4,614,542,813,995,343,1.98,504.41,1.68,20723.97,342,160,161.81,161,26181,25600,160,0.62,0.76,-0.07,-2.37,5.19,11.86,50.02,-37.52,-8.52,-14.68,-51.51,-6.18,-15.59,Left Fall while Standing
20:39.5,664,544,816,995,344,1.97,506.63,1.68,20723.97,342,163,161.81,161,26181,52169,323,0.65,0.73,-0.07,-1.63,3.97,19.75,47.46,-40.06,-8.66,-14.43,-48.95,-6.41,-15.46,Left Fall while Standing
20:39.7,657,545,817.5,995,344,1.97,506.63,1.68,20723.97,342,163,161.81,161,26181,78738,486,0.69,0.69,-0.04,-11.38,4.05,17.16,44.47,-43.27,-10.02,-14.17,-46.68,-7.84,-15.34,Left Fall while Standing
20:39.8,617,547,820.5,995,344,1.97,506.63,1.68,20723.97,342,163,161.81,161,26181,105307,649,0.74,0.68,-0.03,-3.3,1.69,15.31,42.3,-45.5,-10.37,-14.21,-44.66,-8.26,-15.46,Left Fall while Standing
20:39.9,847,551,826.5,995,342,1.99,502.2,1.67,20723.97,342,160,161.81,161,26181,130907,809,0.77,0.65,-0.03,-3.68,3.95,11.59,39.37,-48.42,-10.76,-13.97,-43.1,-8.75,-15.34,Left Fall while Standing
20:40.0,427,549,823.5,995,340,2.01,497.8,1.66,20723.97,342,160,161.81,161,26181,156507,969,0.8,0.66,-0.03,-4.69,-1.26,9.37,38.66,-49.14,-11.28,-14.38,-41.82,-9.28,-15.77,Left Fall while Standing
20:40.2,348,546,819,995,338,2.03,493.43,1.65,20723.97,342,159,161.81,161,26181,181788,1128,0.82,0.64,-0.01,-6.21,5.05,5.71,37.57,-50.27,-11.99,-13.99,-41,-10.01,-15.44,Left Fall while Standing
20:40.3,662,548,822,995,337,2.04,491.25,1.65,20723.97,342,156,161.81,161,26181,206124,1284,0.75,0.6,0,-9.38,7.64,19.15,38.13,-49.71,-13.1,-13.28,-38.48,-11.06,-14.74,Left Fall while Standing
20:40.4,375,545,817.5,995,335,2.05,486.92,1.64,20723.97,342,158,161.81,161,26181,231088,1442,0.79,0.54,0.03,-25.24,6.38,26.45,33.69,-54.07,-16.21,-12.73,-35.05,-14.22,-14.38,Left Fall while Standing
20:40.5,0,537,805.5,995,333,2.07,482.61,1.63,20723.93,340,157,159.92,159,25572,0,0,0.83,0.49,0.16,9.34,1.56,18.6,29.64,-56.56,-15,-12.78,-32.67,-13.21,-14.54,Left Fall while Standing
20:40.7,165,532,798,995,332,2.08,480.46,1.62,20723.93,340,155,159.92,159,25572,24025,155,0.86,0.46,0.02,17.82,14.18,23.13,27.57,-60.24,-12.68,-11.25,-29.65,-11.07,-13.21,Left Fall while Standing
20:40.8,369,530,795,995,330,2.1,476.19,1.61,20723.93,340,158,159.92,159,25572,48989,313,0.88,0.45,0.06,1.07,14.56,23.68,26.42,-61.16,-12.48,-9.67,-26.57,-10.92,-11.73,Left Fall while Standing
20:40.9,13,523,784.5,995,331,2.09,478.32,1.62,20723.93,340,160,159.92,159,25572,74589,473,0.91,0.38,0.03,-1.45,9.37,26.73,22.05,-65.69,-12.59,-8.75,-23.13,-11.2,-11.02,Left Fall while Standing
20:41.0,36,516,774,995,331,2.09,478.32,1.62,20723.93,340,159,159.92,159,25572,99870,632,0.95,0.32,0.07,-24.92,0.72,24.59,17.72,-69.66,-15.63,-8.91,-19.96,-14.3,-11.34,Left Fall while Standing
20:41.2,391,514,771,995,329,2.11,474.06,1.61,20723.93,340,159,159.92,159,25572,125151,791,0.96,0.27,0.22,-7.01,3.16,17.66,14.6,-68.44,-16.45,-8.76,-17.63,-15.2,-11.15,Left Fall while Standing
20:41.3,686,517,775.5,995,328,2.12,471.94,1.6,20723.93,340,158,159.92,159,25572,150115,949,0.95,0.21,0.14,-4.07,-6.69,26.31,11.57,-73.78,-16.89,-9.85,-14.22,-15.75,-12.41,Left Fall while Standing
20:41.4,100,511,766.5,995,328,2.12,471.94,1.6,20723.93,340,156,159.92,159,25572,174451,1105,0.99,0.14,0.05,-4.67,-15.27,31.69,7.75,-79.67,-17.41,-12.03,-10.13,-16.4,-14.74,Left Fall while Standing
20:41.5,344,509,763.5,995,328,2.12,471.94,1.6,20723.93,340,156,159.92,159,25572,198787,1261,1.01,0.05,0.05,-8.56,-13.78,16.89,1.99,-84.58,-18.41,-14.02,-7.9,-17.6,-16.84,Left Fall while Standing
20:41.7,802,513,769.5,995,328,2.12,471.94,1.6,20723.93,340,157,159.92,159,25572,223436,1418,1.02,0.06,-0.03,-5.76,-8.32,12.94,2.68,-84.84,-19.07,-15.32,-6.17,-18.2,-18.1,Left Fall while Standing
20:41.8,461,512,768,995,327,2.13,469.83,1.6,20723.76,329,154,157.21,157,24714,0,0,1.02,0,-0.03,-17.24,-23.41,13.18,-0.39,-86.59,-21.15,-18.5,-4.42,-20.32,-21.22,Left Fall while Standing
20:41.9,549,512,768,995,326,2.14,467.72,1.59,20723.76,329,154,157.21,157,24714,23716,154,0.99,-0.02,-0.01,3.04,0.13,8.02,-2,-86.94,-20.7,-18.73,-3.31,-19.95,-21.46,Left Fall while Standing
20:42.0,540,513,769.5,995,327,2.13,469.83,1.6,20723.76,329,155,157.21,157,24714,47741,309,1.03,-0.08,-0.07,-0.5,6.8,15.86,-4.74,-82.65,-20.69,-18.13,-1.22,-20.05,-20.71,Left Fall while Standing
20:42.2,851,517,775.5,995,328,2.12,471.94,1.6,20723.76,329,156,157.21,157,24714,72077,465,1.03,-0.08,0,-1.78,4.82,5.63,-4.82,-84.17,-20.84,-17.77,-0.41,-20.2,-20.43,Left Fall while Standing
20:42.3,426,516,774,995,328,2.12,471.94,1.6,20723.76,329,155,157.21,157,24714,96102,620,1,-0.07,0,-3.41,-3.84,1.73,-4.61,-84.39,-21.2,-18.51,-0.1,-20.54,-21.15,Left Fall while Standing
20:42.4,555,516,774,995,328,2.12,471.94,1.6,20723.76,329,157,157.21,157,24714,120751,777,1.02,-0.12,0.01,2.35,5.6,5.73,-7.15,-81.83,-20.84,-18.06,0.73,-20.29,-20.61,Left Fall while Standing
20:42.5,951,521,781.5,995,329,2.11,474.06,1.61,20723.76,329,156,157.21,157,24714,145087,933,1.03,-0.13,-0.05,8.26,11,4.9,-7.62,-80.76,-19.73,-16.93,1.44,-19.25,-19.48,Left Fall while Standing
20:42.7,707,524,786,995,327,2.13,469.83,1.6,20723.76,329,155,157.21,157,24714,169112,1088,1.05,-0.14,-0.01,0.06,-3.32,-4.31,-8.31,-80.66,-19.65,-17.6,0.99,-19.2,-20.12,Left Fall while Standing
20:42.8,265,521,781.5,995,326,2.14,467.72,1.59,20723.76,329,156,157.21,157,24714,193448,1244,1.02,-0.11,-0.01,-2.88,-0.71,-7.85,-6.52,-82.47,-19.94,-17.94,0.11,-19.41,-20.52,Left Fall while Standing
20:42.9,607,522,783,995,327,2.13,469.83,1.6,20723.76,329,156,157.21,157,24714,217784,1400,0.99,-0.08,-0.02,1.76,0.47,-4.41,-5.48,-83.38,-19.65,-18.13,-0.35,-19.09,-20.74,Left Fall while Standing
20:43.1,835,525,787.5,995,327,2.13,469.83,1.6,20723.73,327,155,155.5,155,24179,0,0,1,-0.09,-0.04,0.63,-3.62,3.38,-5.89,-82.67,-19.5,-18.83,0.18,-18.96,-21.39,Left Fall while Standing
20:43.2,428,524,786,995,327,2.13,469.83,1.6,20723.73,327,157,155.5,155,24179,24649,157,1.03,-0.11,-0.05,0.71,0.27,1.93,-6.74,-81.66,-19.34,-19.05,0.52,-18.84,-21.56,Left Fall while Standing
20:43.3,313,522,783,995,327,2.13,469.83,1.6,20723.73,327,156,155.5,155,24179,48985,313,1.04,-0.12,-0.04,-2.91,-1.95,-1.73,-7.08,-81.64,-19.64,-19.55,0.4,-19.13,-22.03,Left Fall while Standing
20:43.4,927,526,789,995,328,2.12,471.94,1.6,20723.73,327,153,155.5,155,24179,72394,466,1.01,-0.1,-0.06,-4.18,-0.02,-3.43,-6.33,-81.79,-20.09,-19.8,0.07,-19.54,-22.28,Left Fall while Standing
20:46.3,939,939,1408.5,939,332,2.08,480.46,1.62,0,0,155,0,0,0,48050,310,1.01,-0.08,0,-4.54,5.21,0.92,-4.87,-84.12,-1.59,-0.37,-0.46,-1.72,-3.72,Right Fall while Standing
20:46.4,602,770,1155,939,332,2.08,480.46,1.62,0,0,155,0,0,0,72075,465,1.06,-0.09,-0.06,6.08,15.28,2.6,-5.71,-82.35,-0.78,1.25,-0.05,-0.98,-2.1,Right Fall while Standing
20:46.5,379,640,960,939,331,2.09,478.32,1.62,0,0,152,0,0,0,95179,617,1.06,-0.1,-0.06,1.84,7.33,-5.49,-5.74,-82.38,-0.49,1.9,-0.63,-0.7,-1.47,Right Fall while Standing
20:46.7,78,499,748.5,939,331,2.09,478.32,1.62,0,0,152,0,0,0,118283,769,0.95,-0.07,0,-3.08,-1.92,-9.04,-4.55,-84.45,-0.8,1.42,-1.64,-0.95,-2.01,Right Fall while Standing
20:46.8,0,399,598.5,939,331,2.09,478.32,1.62,0,0,150,0,0,0,140783,919,1.03,-0.05,-0.01,-1.94,4.75,1.11,-3.34,-85.62,-0.97,1.76,-1.41,-1.06,-1.74,Right Fall while Standing
20:46.9,300,383,574.5,939,330,2.1,476.19,1.61,0,0,151,0,0,0,163584,1070,1.05,-0.07,-0.04,-1.18,5.55,-4.8,-4.22,-84.24,-1.04,2.19,-1.9,-1.17,-1.26,Right Fall while Standing
20:47.0,775,439,658.5,939,333,2.07,482.61,1.63,0,0,153,0,0,0,186993,1223,1.02,-0.07,-0.01,-6.02,1.72,-5.66,-4.25,-84.7,-1.71,2.16,-2.5,-1.81,-1.32,Right Fall while Standing
20:47.2,997,508,762,997,334,2.06,484.76,1.63,0,0,156,0,0,0,211329,1379,1,-0.06,0.04,3.3,5.87,-1.82,-3.98,-84.42,-1.23,2.63,-2.62,-1.34,-0.85,Right Fall while Standing
20:47.3,996,562,843,997,336,2.04,489.08,1.64,20723.8,332,157,153.61,153,23596,0,0,1.03,-0.06,-0.02,5.66,6.15,1.15,-4.01,-84.72,-0.46,3.15,-2.38,-0.6,-0.37,Right Fall while Standing
20:47.4,983,604,906,997,336,2.04,489.08,1.64,20723.8,332,157,153.61,153,23596,24649,157,1,-0.05,0,-2.11,5.99,5.31,-3.67,-85.33,-0.66,3.65,-1.62,-0.78,0.09,Right Fall while Standing
20:47.5,552,600,900,997,336,2.04,489.08,1.64,20723.8,332,157,153.61,153,23596,49298,314,0.97,-0.05,0.03,0.16,9.32,17.08,-3.72,-84.74,-0.57,4.56,0.6,-0.69,0.98,Right Fall while Standing
20:47.7,622,601,901.5,997,337,2.04,491.25,1.65,20723.8,332,159,153.61,153,23596,74579,473,0.98,-0.12,0.04,2.67,13.53,29.4,-7.3,-81.31,-0.17,5.99,4.34,-0.45,2.49,Right Fall while Standing
20:47.8,787,616,924,997,339,2.02,495.61,1.66,20723.8,332,159,153.61,153,23596,99860,632,0.97,-0.2,0.06,-0.02,6.61,26.07,-12.16,-76.35,-0.1,6.56,7.7,-0.58,3.25,Right Fall while Standing
20:47.9,636,617,925.5,997,340,2.01,497.8,1.66,20723.8,332,157,153.61,153,23596,124509,789,0.98,-0.23,0.07,-3.77,-2.2,25.96,-13.67,-74.68,-0.5,6.04,11.04,-1.03,2.81,Right Fall while Standing
20:48.0,689,622,933,997,340,2.01,497.8,1.66,20723.8,332,159,153.61,153,23596,149790,948,0.97,-0.29,0.1,-4.08,6.66,27.67,-17.26,-70.81,-0.94,6.62,14.6,-1.59,3.52,Right Fall while Standing
20:48.2,701,627,940.5,997,341,2,500,1.67,20723.8,332,160,153.61,153,23596,175390,1108,0.93,-0.36,0.11,-0.71,3.48,26.34,-21.7,-66.2,-0.96,6.81,17.99,-1.79,3.88,Right Fall while Standing
20:48.3,562,623,934.5,997,341,2,500,1.67,20723.8,332,158,153.61,153,23596,200354,1266,0.91,-0.4,0.11,4.72,1.96,24.18,-24.27,-63.8,-0.3,6.8,21.11,-1.26,3.98,Right Fall while Standing
20:48.4,543,618,927,997,342,1.99,502.2,1.67,20723.8,332,162,153.61,153,23596,226598,1428,0.93,-0.47,0.01,5.5,7.72,16.29,-27.6,-61.39,0.46,7.51,23.23,-0.67,4.75,Right Fall while Standing
20:48.5,459,610,915,997,342,1.99,502.2,1.67,20723.92,339,161,158.91,158,25250,0,0,0.9,-0.51,0.1,-2.37,6.58,13.53,-29.75,-58.63,0.23,8.08,25.01,-0.97,5.41,Right Fall while Standing
20:48.6,444,602,903,997,343,1.98,504.41,1.68,20723.92,339,161,158.91,158,25250,25921,161,0.88,-0.52,0.13,-6.51,0.5,15.85,-30.98,-57,-0.51,7.89,27.09,-1.73,5.29,Right Fall while Standing
20:48.8,447,594,891,997,342,1.99,502.2,1.67,20723.92,339,157,158.91,158,25250,50570,318,0.84,-0.57,0.13,-7.93,-6.87,13.63,-34.35,-53.71,-1.44,6.78,28.89,-2.75,4.36,Right Fall while Standing
20:48.9,598,594,891,997,342,1.99,502.2,1.67,20723.92,339,159,158.91,158,25250,75851,477,0.85,-0.58,0.1,-1.08,-9.06,17.88,-34.82,-53.63,-1.5,5.4,31.22,-2.83,3.04,Right Fall while Standing
20:49.0,344,584,876,997,340,2.01,497.8,1.66,20723.92,339,159,158.91,158,25250,101132,636,0.84,-0.61,0.08,-2.48,-1.09,8.89,-36.72,-51.91,-1.74,5.01,32.43,-3.14,2.74,Right Fall while Standing
20:49.1,333,573,859.5,997,341,2,500,1.67,20723.92,339,159,158.91,158,25250,126413,795,0.82,-0.61,0.08,1.9,2.04,9.25,-36.81,-51.81,-1.43,5.02,33.69,-2.85,2.74,Right Fall while Standing
20:49.3,506,570,855,997,342,1.99,502.2,1.67,20723.92,339,159,158.91,158,25250,151694,954,0.76,-0.64,0.09,2.21,1.96,11.65,-40.38,-48.18,-1.09,5.01,35.24,-2.66,2.88,Right Fall while Standing
20:49.4,557,570,855,997,344,1.97,506.63,1.68,20723.92,339,162,158.91,158,25250,177938,1116,0.79,-0.65,0.04,-4.96,-6.58,11.99,-39.73,-49.2,-1.64,3.94,36.84,-3.16,1.81,Right Fall while Standing
20:49.5,500,567,850.5,997,343,1.98,504.41,1.68,20723.92,339,162,158.91,158,25250,204182,1278,0.72,-0.69,0.14,-4.74,-2.46,11.54,-43.65,-44.21,-2.16,3.38,38.38,-3.82,1.48,Right Fall while Standing
20:49.6,502,565,847.5,997,344,1.97,506.63,1.68,20723.92,339,159,158.91,158,25250,229463,1437,0.77,-0.7,0.07,6.71,2.56,5.05,-43.05,-45.68,-1.25,3.45,39.11,-2.92,1.49,Right Fall while Standing
20:49.8,508,563,844.5,997,344,1.97,506.63,1.68,20723.97,342,158,159.51,159,25441,0,0,0.73,-0.72,0.07,6.58,5,2.74,-45.01,-43.7,-0.37,3.83,39.55,-2.15,1.92,Right Fall while Standing
20:49.9,521,562,843,997,343,1.98,504.41,1.68,20723.97,342,156,159.51,159,25441,24336,156,0.71,-0.71,0.07,-3.05,1.21,3.85,-45.36,-43.36,-0.67,3.73,40.13,-2.46,1.84,Right Fall while Standing
20:50.0,484,559,838.5,997,343,1.98,504.41,1.68,20723.97,342,160,159.51,159,25441,49936,316,0.73,-0.71,0.09,-3.91,-0.57,2.4,-44.54,-44.02,-1.09,3.41,40.52,-2.83,1.51,Right Fall while Standing
20:50.1,566,559,838.5,997,344,1.97,506.63,1.68,20723.97,342,160,159.51,159,25441,75536,476,0.72,-0.72,0.07,-0.27,1.75,2.11,-45.32,-43.45,-1.05,3.38,40.89,-2.82,1.5,Right Fall while Standing
20:50.3,592,560,840,997,346,1.96,511.08,1.69,20723.97,342,161,159.51,159,25441,101457,637,0.71,-0.73,0.08,-4.54,2.45,2.18,-46.18,-42.5,-1.55,3.43,41.26,-3.34,1.6,Right Fall while Standing
20:50.4,649,563,844.5,997,345,1.97,508.85,1.69,20723.97,342,160,159.51,159,25441,127057,797,0.7,-0.74,0.07,-9.56,-0.62,2.49,-47.02,-41.67,-2.68,3.11,41.67,-4.45,1.32,Right Fall while Standing
20:50.5,570,563,844.5,997,346,1.96,511.08,1.69,20723.97,342,159,159.51,159,25441,152338,956,0.73,-0.75,0.13,-3.76,5.18,-0.65,-46.14,-41.95,-3.08,3.5,41.68,-4.8,1.69,Right Fall while Standing
20:50.6,524,562,843,997,344,1.97,506.63,1.68,20723.97,342,161,159.51,159,25441,178259,1117,0.68,-0.73,0.07,16.28,21.02,-12.08,-47.71,-40.98,-0.97,5.88,40.27,-2.84,4.01,Right Fall while Standing
20:50.8,464,559,838.5,997,343,1.98,504.41,1.68,20723.97,342,157,159.51,159,25441,202908,1274,0.7,-0.72,0.13,-20.45,-11.27,2.65,-45.97,-42.07,-3.46,4.22,40.7,-5.16,2.37,Right Fall while Standing
20:50.9,451,556,834,997,342,1.99,502.2,1.67,20723.97,342,161,159.51,159,25441,228829,1435,0.7,-0.72,0.09,1.95,11.81,-0.41,-46.19,-42.31,-3.14,5.46,40.75,-4.86,3.55,Right Fall while Standing
20:51.0,562,556,834,997,342,1.99,502.2,1.67,20723.99,343,160,159.51,159,25441,0,0,0.74,-0.75,0.06,-1.28,-1.28,-0.37,-46.15,-42.64,-3.23,5.05,40.8,-4.95,3.14,Right Fall while Standing
20:51.1,463,554,831,997,340,2.01,497.8,1.66,20723.99,343,159,159.51,159,25441,25281,159,0.7,-0.75,0.08,-8.89,-2.15,-5.07,-47.4,-41.22,-4.27,4.53,40.27,-6,2.7,Right Fall while Standing
20:51.3,389,550,825,997,338,2.03,493.43,1.65,20723.99,343,160,159.51,159,25441,50881,319,0.71,-0.73,0.09,-5.56,-0.97,-3.42,-46,-42.54,-4.9,4.16,39.94,-6.54,2.3,Right Fall while Standing
20:51.4,388,546,819,997,336,2.04,489.08,1.64,20723.99,343,159,159.51,159,25441,76162,478,0.7,-0.73,0.1,-6.8,-2.33,-3.99,-46.33,-42.13,-5.68,3.62,39.54,-7.3,1.79,Right Fall while Standing
20:51.5,376,542,813,997,336,2.04,489.08,1.64,20723.99,343,157,159.51,159,25441,100811,635,0.69,-0.73,0.08,-1.77,2.03,-1.11,-47.07,-41.54,-5.83,3.63,39.5,-7.48,1.82,Right Fall while Standing
20:51.6,424,540,810,997,335,2.05,486.92,1.64,20723.99,343,161,159.51,159,25441,126732,796,0.72,-0.72,0.07,-3.72,-0.67,-3.9,-45.49,-43.24,-6.23,3.29,39.11,-7.8,1.43,Right Fall while Standing
20:51.8,383,536,804,997,336,2.04,489.08,1.64,20723.99,343,159,159.51,159,25441,152013,955,0.7,-0.73,0.08,-5.57,6.76,-1.02,-46.47,-42.21,-6.85,3.88,39.08,-8.43,2.04,Right Fall while Standing
20:51.9,483,535,802.5,997,337,2.04,491.25,1.65,20723.99,343,163,159.51,159,25441,178582,1118,0.74,-0.73,0.07,-5.51,7.79,-7.07,-45.23,-43.52,-7.47,4.61,38.29,-8.98,2.68,Right Fall while Standing
20:52.0,574,536,804,997,337,2.04,491.25,1.65,20723.99,343,161,159.51,159,25441,204503,1279,0.74,-0.71,0.06,-7.63,2.11,-10.6,-44.1,-44.7,-8.36,4.62,37.06,-9.79,2.65,Right Fall while Standing
20:52.1,715,539,808.5,997,336,2.04,489.08,1.64,20723.99,343,162,159.51,159,25441,230747,1441,0.72,-0.71,0.1,-7.28,13.73,-17.13,-44.84,-43.63,-9.2,6.09,35.02,-10.62,4.1,Right Fall while Standing
20:52.3,396,537,805.5,997,335,2.05,486.92,1.64,20723.87,336,156,159.71,159,25507,0,0,0.74,-0.67,0.08,-6.86,5.31,-19.14,-42.61,-46.05,-9.98,6.5,32.74,-11.28,4.4,Right Fall while Standing
20:52.4,300,532,798,997,336,2.04,489.08,1.64,20723.87,336,163,159.71,159,25507,26569,163,0.82,-0.65,0.08,-15.64,-11.81,-22.93,-39.05,-49.62,-11.88,4.76,29.95,-12.96,2.58,Right Fall while Standing
20:52.5,208,525,787.5,997,338,2.03,493.43,1.65,20723.87,336,163,159.71,159,25507,53138,326,0.91,-0.62,0.11,-1.4,-5.37,-49.47,-34.61,-53.79,-11.98,3.84,23.87,-12.89,1.53,Right Fall while Standing
20:52.6,235,520,780,997,338,2.03,493.43,1.65,20723.87,336,163,159.71,159,25507,79707,489,0.77,-0.44,0.19,10.91,-9.87,-67.62,-29.67,-56.35,-10.54,2.34,15.45,-11.3,-0.01,Right Fall while Standing
20:52.8,390,517,775.5,997,339,2.02,495.61,1.66,20723.87,336,163,159.71,159,25507,106276,652,0.92,-0.4,0.03,21.76,2.73,-47.78,-23.97,-64.95,-7.73,2.43,9.53,-8.38,-0.26,Right Fall while Standing
20:52.9,313,514,771,997,341,2,500,1.67,20723.87,336,162,159.71,159,25507,132520,814,0.95,-0.28,-0.01,3.84,-6.18,-34.74,-16.85,-72.14,-7.18,1.41,5.28,-7.56,-1.53,Right Fall while Standing
20:53.0,397,511,766.5,997,341,2,500,1.67,20723.87,336,163,159.71,159,25507,159089,977,0.96,-0.18,0.02,-3.31,13.81,-25.23,-11.24,-77.71,-7.52,2.88,2.23,-7.67,-0.34,Right Fall while Standing
20:53.1,552,512,768,997,342,1.99,502.2,1.67,20723.87,336,166,159.71,159,25507,186645,1143,0.96,-0.17,0.04,-6.98,6.22,-14.66,-10.48,-78.18,-8.33,3.42,0.48,-8.41,0.15,Right Fall while Standing
20:53.3,846,518,777,997,343,1.98,504.41,1.68,20723.87,336,166,159.71,159,25507,214201,1309,0.99,-0.13,0.1,-10.86,-5.14,-7.02,-8.27,-78.84,-9.62,2.52,-0.3,-9.56,-0.73,Right Fall while Standing
20:53.4,797,523,784.5,997,343,1.98,504.41,1.68,20723.87,336,164,159.71,159,25507,241097,1473,1.02,-0.17,0.12,-2.41,-4.05,-8.12,-10,-76.75,-9.85,1.76,-1.22,-9.86,-1.38,Right Fall while Standing
20:53.5,748,527,790.5,997,341,2,500,1.67,20723.93,340,162,163.51,163,26733,0,0,1.07,-0.12,0.06,-5.79,-7.65,-15.18,-6.95,-81.3,-10.5,0.57,-3.01,-10.36,-2.71,Right Fall while Standing
20:53.6,539,527,790.5,997,341,2,500,1.67,20723.93,340,160,163.51,163,26733,25600,160,1.03,-0.11,0.04,-2.63,-7.66,-20.73,-6.94,-81.69,-10.75,-0.63,-5.48,-10.6,-3.87,Right Fall while Standing
20:53.8,529,527,790.5,997,341,2,500,1.67,20723.93,340,163,163.51,163,26733,52169,323,1.02,-0.07,0.04,-0.19,-5.8,-19.89,-4.41,-83.98,-10.71,-1.62,-7.89,-10.46,-4.91,Right Fall while Standing
20:53.9,479,526,789,997,341,2,500,1.67,20723.93,340,163,163.51,163,26733,78738,486,0.98,0.02,0.01,1.94,1.23,-17.83,0.4,-87.22,-10.39,-1.71,-10.03,-9.96,-5.13,Right Fall while Standing
20:54.0,412,524,786,997,340,2.01,497.8,1.66,20723.93,340,163,163.51,163,26733,105307,649,0.98,0.04,0.01,7.89,-7.62,-3.27,1.56,-86.24,-9.34,-2.92,-10.34,-8.9,-6.25,Right Fall while Standing
20:54.2,515,524,786,997,340,2.01,497.8,1.66,20723.93,340,164,163.51,163,26733,132203,813,1.03,0.01,-0.03,-3.55,-2.03,-0.73,0.12,-86.48,-9.71,-3.42,-10.34,-9.32,-6.74,Right Fall while Standing
20:54.3,416,522,783,997,340,2.01,497.8,1.66,20723.93,340,164,163.51,163,26733,159099,977,1.03,0.01,0,-1.59,8.31,-7.59,-0.04,-87.88,-9.84,-2.63,-11.19,-9.45,-6.04,Right Fall while Standing
20:54.4,684,525,787.5,997,339,2.02,495.61,1.66,20723.93,340,162,163.51,163,26733,185343,1139,1.03,0.04,-0.01,-4.31,-0.34,-10.84,1.55,-86.23,-10.31,-2.93,-12.45,-9.84,-6.26,Right Fall while Standing
20:54.5,453,524,786,997,336,2.04,489.08,1.64,20723.93,340,162,163.51,163,26733,211587,1301,1.01,0.07,0.01,-1.69,-4.89,-10.6,3.3,-84.47,-10.45,-3.79,-13.69,-9.9,-7.02,Right Fall while Standing
20:54.6,380,522,783,997,336,2.04,489.08,1.64,20723.93,340,162,163.51,163,26733,237831,1463,1,0.09,0,-0.24,-7.04,-9.19,4.4,-83.44,-10.42,-4.92,-14.74,-9.82,-8.07,Right Fall while Standing
20:54.8,449,521,781.5,997,336,2.04,489.08,1.64,20723.91,339,162,162.5,162,26406,0,0,0.99,0.1,-0.03,1.5,-5.92,-4.29,5.44,-82.11,-10.16,-5.91,-15.18,-9.53,-8.96,Right Fall while Standing
20:54.9,328,518,777,997,335,2.05,486.92,1.64,20723.91,339,160,162.5,162,26406,25600,160,1,0.09,-0.05,-0.47,-3.32,1.93,4.72,-82.27,-10.15,-6.58,-14.84,-9.55,-9.61,Right Fall while Standing
20:55.0,442,517,775.5,997,334,2.06,484.76,1.63,20723.91,339,163,162.5,162,26406,52169,323,1.02,0.09,-0.07,-1.37,-2.88,1.76,4.5,-82.13,-10.25,-7.19,-14.52,-9.66,-10.19,Right Fall while Standing
20:59.5,656,656,984,656,331,2.09,478.32,1.62,0,0,154,0,0,0,48052,310,1.02,-0.06,-0.26,4.62,-10.63,-0.79,-3.93,-73.58,1.72,-4.31,0.81,1.49,-7.08,Forward Fall while Standing
20:59.6,547,601,901.5,656,330,2.1,476.19,1.61,0,0,154,0,0,0,71768,464,0.98,-0.04,-0.19,-5.98,-13.58,-1.26,-3.1,-77.29,1.06,-6.21,0.75,0.89,-9.06,Forward Fall while Standing
20:59.7,497,566,849,656,332,2.08,480.46,1.62,0,0,158,0,0,0,96732,622,0.98,-0.02,-0.2,-9.68,-32.99,3.97,-1.97,-77.05,-0.06,-10.52,1.33,-0.14,-13.18,Forward Fall while Standing
20:59.8,933,658,987,933,336,2.04,489.08,1.64,0,0,164,0,0,0,123628,786,0.92,-0.06,-0.23,-3.43,-28.43,1.8,-4.26,-73.8,-0.42,-14.26,1.65,-0.57,-16.64,Forward Fall while Standing
21:00.0,792,685,1027.5,933,337,2.04,491.25,1.65,0,0,159,0,0,0,148909,945,1,-0.05,-0.4,-8.65,-21.37,-0.82,-3.04,-66.63,-1.42,-17.16,1.65,-1.48,-19.14,Forward Fall while Standing
21:00.1,634,676,1014,933,336,2.04,489.08,1.64,0,0,156,0,0,0,173245,1101,0.94,-0.05,-0.44,-5.46,-28.82,0.23,-3.57,-62.94,-2.03,-20.98,1.77,-2.09,-22.66,Forward Fall while Standing
21:00.2,454,644,966,933,335,2.05,486.92,1.64,0,0,158,0,0,0,198209,1259,0.87,-0.02,-0.62,-5.71,-40.6,5.87,-1.88,-52.85,-2.66,-26.18,2.59,-2.62,-27.24,Forward Fall while Standing
21:00.3,1001,689,1033.5,1001,363,1.82,550,1.77,0,0,663,0,0,0,179026,1922,0.9,-0.08,-0.56,-0.82,-18.92,6.89,-4.85,-56.53,-2.69,-28.77,3.54,-2.77,-29.88,Forward Fall while Standing
21:00.5,1001,723,1084.5,1001,359,1.85,540.66,1.75,20723.92,339,600,145.38,252,21133,0,0,0.92,-0.09,-0.61,-8.02,-28.06,5.76,-5.33,-54.83,-3.62,-32.53,4.36,-3.69,-33.42,Forward Fall while Standing
21:00.6,997,751,1126.5,1001,354,1.89,529.15,1.73,20723.92,339,672,145.38,252,21133,4294960128,672,0.84,-0.09,-0.6,-0.83,-23.73,0.28,-5.4,-52.45,-3.65,-35.8,4.49,-3.72,-36.46,Forward Fall while Standing
21:00.7,575,735,1102.5,1001,351,1.91,522.32,1.72,20723.92,339,296,145.38,252,21133,14912,968,0.92,-0.15,-0.76,-1.49,-18.79,2.9,-7.92,-48.22,-3.77,-38.42,4.96,-3.94,-38.81,Forward Fall while Standing
21:00.8,333,701,1051.5,1001,349,1.93,517.8,1.71,20723.92,339,289,145.38,252,21133,32897,1257,0.83,-0.11,-0.77,0.26,-7.08,-1.8,-6.19,-45.34,-3.67,-39.56,4.83,-3.77,-39.79,Forward Fall while Standing
21:01.0,277,669,1003.5,1001,348,1.94,515.56,1.7,20723.92,339,287,145.38,252,21133,49730,1544,0.77,-0.11,-0.72,-8.18,-12.03,-2.46,-6.67,-44.98,-4.63,-41.33,4.62,-4.71,-41.48,Forward Fall while Standing
21:01.1,338,645,967.5,1001,348,1.94,515.56,1.7,20723.92,339,288,145.38,252,21133,67138,1832,0.73,-0.07,-0.75,-5.08,-14.48,2.98,-4.45,-42.69,-5.2,-43.41,5.1,-5.17,-43.38,Forward Fall while Standing
21:01.2,204,615,922.5,1001,348,1.94,515.56,1.7,20723.92,339,305,145.38,252,21133,94627,2137,0.72,-0.11,-0.77,-2.34,-20.67,6.42,-6.73,-41.32,-5.42,-46.26,6,-5.47,-46.06,Forward Fall while Standing
21:01.3,170,588,882,1001,348,1.94,515.56,1.7,20723.92,339,724,145.38,252,21133,94515,2861,0.71,-0.11,-0.78,2.6,-17.13,0.71,-6.61,-40.49,-5.03,-48.65,6.19,-5.09,-48.33,Forward Fall while Standing
21:01.5,341,573,859.5,1001,350,1.92,520.06,1.71,20723.92,339,710,145.38,252,21133,74327,3571,0.66,-0.12,-0.86,6.37,-12.8,2.82,-7.03,-35.46,-4.15,-50.52,6.65,-4.27,-49.92,Forward Fall while Standing
21:01.6,517,570,855,1001,349,1.93,517.8,1.71,20723.92,339,710,145.38,252,21133,54139,4281,0.67,-0.13,-0.86,-3.93,-13.88,2.15,-7.34,-36.11,-4.58,-52.52,7.02,-4.69,-51.86,Forward Fall while Standing
21:01.7,368,559,838.5,1001,349,1.93,517.8,1.71,20724.09,349,705,51.84,498,2686,0,0,0.64,-0.15,-0.87,-4.24,-11.87,2.9,-8.35,-34.23,-5.04,-54.24,7.48,-5.17,-53.44,Forward Fall while Standing
21:01.8,540,558,837,1001,350,1.92,520.06,1.71,20724.09,349,703,51.84,498,2686,4294937217,703,0.6,-0.15,-0.87,-4.53,-12.93,2,-8.9,-32.88,-5.54,-56.12,7.83,-5.67,-55.19,Forward Fall while Standing
21:02.0,581,559,838.5,1001,351,1.91,522.32,1.72,20724.09,349,702,51.84,498,2686,4294905733,1405,0.58,-0.15,-0.9,0.08,-13.85,2.29,-8.38,-30.83,-5.45,-58.13,8.22,-5.57,-57.04,Forward Fall while Standing
21:02.1,399,552,828,1001,350,1.92,520.06,1.71,20724.09,349,709,51.84,498,2686,4294884126,2114,0.56,-0.17,-0.9,2.02,-14.98,1.65,-9.45,-30.11,-5.13,-60.27,8.53,-5.3,-59.07,Forward Fall while Standing
21:02.2,394,545,817.5,1001,350,1.92,520.06,1.71,20724.09,349,705,51.84,498,2686,4294856863,2819,0.5,-0.16,-0.97,1.58,-14.59,0.91,-9.18,-25.68,-4.86,-62.36,8.74,-5.03,-60.9,Forward Fall while Standing
21:02.3,378,538,807,1001,350,1.92,520.06,1.71,20724.09,349,701,51.84,498,2686,4294889512,3520,0.5,-0.17,-0.95,2.94,-7.84,4.69,-9.59,-25.73,-4.42,-63.6,9.43,-4.63,-62.09,Forward Fall while Standing
21:02.5,749,547,820.5,1001,350,1.92,520.06,1.71,20724.09,349,706,51.84,498,2686,4294863660,4226,0.49,-0.19,-1.01,-0.67,-3.5,2.94,-9.99,-23.81,-4.43,-64.29,9.9,-4.66,-62.67,Forward Fall while Standing
21:02.6,355,539,808.5,1001,350,1.92,520.06,1.71,20724.09,349,703,51.84,498,2686,4294833581,4929,0.49,-0.21,-0.98,-3.06,-4.69,3.11,-11.23,-24.52,-4.75,-65.14,10.39,-5.01,-63.52,Forward Fall while Standing
21:02.7,339,532,798,1001,350,1.92,520.06,1.71,20724.09,349,703,51.84,498,2686,4294803502,5632,0.47,-0.21,-0.95,0.94,-3.32,0.24,-11.63,-24.47,-4.56,-65.81,10.52,-4.85,-64.16,Forward Fall while Standing
21:02.8,433,528,792,1001,351,1.91,522.32,1.72,20724.09,349,708,51.84,498,2686,4294780478,6340,0.46,-0.2,-0.93,1.37,-2.82,0.4,-11.58,-24.07,-4.32,-66.42,10.67,-4.61,-64.72,Forward Fall while Standing
21:03.0,410,524,786,1001,350,1.92,520.06,1.71,20724.1,350,706,20723.79,704,429475456,0,0,0.46,-0.23,-1,2.89,-2.53,1.06,-12.26,-22.65,-3.88,-66.99,10.91,-4.22,-65.22,Forward Fall while Standing
21:03.1,443,521,781.5,1001,350,1.92,520.06,1.71,20724.1,350,706,20723.79,704,429475456,4294941444,706,0.22,-0.24,-0.76,-3.47,6.76,0.27,-17.39,-14.16,-4.26,-66.38,11.04,-4.78,-64.29,Forward Fall while Standing
21:03.2,772,529,793.5,1001,351,1.91,522.32,1.72,20724.1,350,708,20723.79,704,429475456,4294918420,1414,0.43,-0.23,-0.95,-2.37,-1.39,1.83,-13.04,-22.36,-4.49,-66.81,11.37,-4.83,-65.03,Forward Fall while Standing
21:03.4,330,523,784.5,1001,351,1.91,522.32,1.72,20724.1,350,707,20723.79,704,429475456,4294893981,2121,0.43,-0.23,-0.96,-0.59,-2.61,-0.89,-12.99,-21.99,-4.49,-67.4,11.36,-4.83,-65.58,Forward Fall while Standing
21:03.5,651,527,790.5,1001,351,1.91,522.32,1.72,20724.1,350,708,20723.79,704,429475456,4294870957,2829,0.42,-0.23,-0.99,-1.63,-4.61,-0.66,-12.66,-20.97,-4.63,-68.25,11.38,-4.95,-66.36,Forward Fall while Standing
21:03.6,503,526,789,1001,350,1.92,520.06,1.71,20724.1,350,711,20723.79,704,429475456,4294852190,3540,0.41,-0.23,-0.98,-4.05,-3.79,-0.81,-12.96,-20.36,-5.08,-68.99,11.38,-5.39,-67.04,Forward Fall while Standing
21:03.7,348,521,781.5,1001,351,1.91,522.32,1.72,20724.1,350,701,20723.79,704,429475456,4294884839,4241,0.38,-0.23,-0.97,-4.24,-6.47,0.12,-12.79,-19.34,-5.55,-70.07,11.49,-5.84,-68.04,Forward Fall while Standing
21:03.9,770,528,792,1001,351,1.91,522.32,1.72,20724.1,350,719,20723.79,704,429475456,4294877512,4960,0.4,-0.22,-0.99,-2.55,-2.48,-0.1,-12.35,-20.19,-5.8,-70.65,11.58,-6.06,-68.63,Forward Fall while Standing
21:04.0,240,520,780,1001,351,1.91,522.32,1.72,20724.1,350,704,20723.79,704,429475456,4294848840,5664,0.38,-0.22,-1,-2.85,-2.65,-1.44,-12.42,-18.95,-6.1,-71.24,11.5,-6.35,-69.15,Forward Fall while Standing
21:04.1,695,525,787.5,1001,352,1.91,524.59,1.72,20724.1,350,712,20723.79,704,429475456,4294831496,6376,0.37,-0.22,-0.99,-2.35,-1.09,-2.05,-12.32,-18.52,-6.32,-71.64,11.34,-6.56,-69.51,Forward Fall while Standing
21:04.2,492,524,786,1001,352,1.91,524.59,1.72,20724.11,351,711,20723.93,708,429481280,0,0,0.36,-0.22,-1.01,-3.05,-0.02,-0.57,-11.95,-17.76,-6.64,-71.89,11.36,-6.85,-69.73,Forward Fall while Standing
21:04.4,260,517,775.5,1001,351,1.91,522.32,1.72,20724.11,351,704,20723.93,708,429481280,4294938624,704,0.38,-0.22,-0.99,-2.92,-1.44,0.69,-12.43,-18.84,-6.94,-72.33,11.55,-7.16,-70.19,Forward Fall while Standing
21:04.5,642,520,780,1001,351,1.91,522.32,1.72,20724.11,351,708,20723.93,708,429481280,4294915600,1412,0.36,-0.22,-1,-1.34,-0.41,-0.88,-12.15,-17.93,-7.04,-72.64,11.54,-7.24,-70.45,Forward Fall while Standing
21:04.6,354,516,774,1001,349,1.93,517.8,1.71,20724.11,351,714,20723.93,708,429481280,4294901108,2126,0.36,-0.22,-1,-1.44,0.54,0.14,-12.43,-17.74,-7.15,-72.83,11.66,-7.36,-70.62,Forward Fall while Standing
21:04.8,246,510,765,1001,347,1.95,513.31,1.7,20724.11,351,705,20723.93,708,429481280,4294873845,2831,0.35,-0.23,-1,-1.55,2.34,-0.84,-12.58,-17.37,-7.28,-72.78,11.66,-7.49,-70.57,Forward Fall while Standing
21:04.9,666,514,771,1001,345,1.97,508.85,1.69,20724.11,351,712,20723.93,708,429481280,4294856501,3543,0.35,-0.21,-1,-1.95,1.4,-2.33,-11.79,-17.11,-7.46,-72.86,11.46,-7.63,-70.63,Forward Fall while Standing
21:05.0,286,509,763.5,1001,341,2,500,1.67,20724.11,351,713,20723.93,708,429481280,4294840582,4256,0.37,-0.22,-1.01,-2.13,0.98,0.15,-12.31,-18.17,-7.66,-72.99,11.58,-7.84,-70.8,Forward Fall while Standing
21:05.1,344,505,757.5,1001,340,2.01,497.8,1.66,20724.11,351,708,20723.93,708,429481280,4294817558,4964,0.36,-0.22,-0.99,-2.5,0.23,-1.69,-12.09,-18.14,-7.91,-73.22,11.47,-8.07,-71.01,Forward Fall while Standing
21:05.3,357,502,753,1001,337,2.04,491.25,1.65,20724.11,351,705,20723.93,708,429481280,4294790295,5669,0.35,-0.22,-0.99,-1.27,0.96,-0.5,-12.45,-17.37,-8,-73.35,11.5,-8.18,-71.11,Forward Fall while Standing
21:05.4,177,495,742.5,1001,335,2.05,486.92,1.64,20724.11,351,709,20723.93,708,429481280,4294768688,6378,0.38,-0.23,-1.01,-0.7,1.4,-1.88,-12.48,-18.41,-8.02,-73.42,11.36,-8.19,-71.22,Forward Fall while Standing
21:05.5,473,495,742.5,1001,334,2.06,484.76,1.63,20723.98,343,707,20723.77,708,429474432,0,0,0.37,-0.22,-0.99,-1.53,2.73,-1.58,-12.5,-18.15,-8.14,-73.33,11.26,-8.31,-71.13,Forward Fall while Standing
21:05.7,399,493,739.5,1001,333,2.07,482.61,1.63,20723.98,343,712,20723.77,708,429474432,4294949952,712,0.37,-0.22,-0.99,1.76,7.02,-2.27,-12.6,-18.37,-7.84,-72.7,11.08,-8.03,-70.52,Forward Fall while Standing
21:05.8,433,492,738,1001,333,2.07,482.61,1.63,20723.98,343,712,20723.77,708,429474432,4294932608,1424,0.38,-0.24,-0.99,-0.32,13.79,-3.31,-13.12,-19.16,-7.81,-71.19,10.75,-8.03,-69.11,Forward Fall while Standing
21:05.9,619,494,741,1001,333,2.07,482.61,1.63,20723.98,343,705,20723.77,708,429474432,4294905345,2129,0.41,-0.23,-0.97,-1.82,14.08,-1.69,-12.7,-21.05,-7.98,-69.64,10.64,-8.16,-67.7,Forward Fall while Standing
21:06.0,489,494,741,1001,333,2.07,482.61,1.63,20723.98,343,711,20723.77,708,429474432,4294886578,2840,0.45,-0.24,-0.95,1.38,13.22,-1.89,-13.2,-23.04,-7.73,-68.21,10.5,-7.95,-66.4,Forward Fall while Standing
21:06.2,637,497,745.5,1001,334,2.06,484.76,1.63,20723.98,343,710,20723.77,708,429474432,4294866390,3550,0.47,-0.24,-0.94,0.57,10.49,-3.1,-13.37,-24.05,-7.58,-67.12,10.2,-7.81,-65.4,Forward Fall while Standing
21:06.3,565,498,747,1001,333,2.07,482.61,1.63,20723.98,343,708,20723.77,708,429474432,4294843366,4258,0.49,-0.24,-0.94,1.7,13.85,-2.21,-13.17,-24.99,-7.29,-65.6,10.02,-7.53,-63.98,Forward Fall while Standing
21:06.4,513,498,747,1001,334,2.06,484.76,1.63,20723.98,343,704,20723.77,708,429474432,4294814694,4962,0.54,-0.24,-0.97,-2.76,11.53,-3.84,-12.73,-26.94,-7.57,-64.39,9.63,-7.78,-62.89,Forward Fall while Standing
21:06.5,648,501,751.5,1001,335,2.05,486.92,1.64,20723.98,343,710,20723.77,708,429474432,4294794506,5672,0.51,-0.24,-0.87,-1.81,11.51,-3.63,-13.93,-28,-7.73,-63.17,9.27,-7.98,-61.77,Forward Fall while Standing
21:06.7,868,507,760.5,1001,336,2.04,489.08,1.64,20723.98,343,708,20723.77,708,429474432,4294771482,6380,0.56,-0.25,-0.93,-0.24,14.56,-3.07,-13.39,-28.54,-7.69,-61.57,8.98,-7.92,-60.24,Forward Fall while Standing
21:06.8,545,508,762,1001,337,2.04,491.25,1.65,20723.83,334,706,20723.77,708,429474560,0,0,0.6,-0.23,-0.91,-1.74,17.73,-3.4,-12.54,-31.17,-7.84,-59.58,8.65,-8.03,-58.45,Forward Fall while Standing
21:06.9,663,510,765,1001,338,2.03,493.43,1.65,20723.83,334,709,20723.77,708,429474560,4294945689,709,0.62,-0.24,-0.87,-4.55,17.64,-2.98,-13.19,-32.66,-8.35,-57.58,8.37,-8.54,-56.58,Forward Fall while Standing
21:07.1,537,511,766.5,1001,338,2.03,493.43,1.65,20723.83,334,712,20723.77,708,429474560,4294928345,1421,0.65,-0.23,-0.83,-4.21,20.04,-4.88,-12.61,-35.62,-8.82,-55.27,7.84,-8.97,-54.49,Forward Fall while Standing
21:07.2,585,512,768,1001,339,2.02,495.61,1.66,20723.83,334,707,20723.77,708,429474560,4294903906,2128,0.7,-0.24,-0.81,-6.59,24.57,-7.19,-13.09,-38.13,-9.58,-52.41,7.03,-9.72,-51.83,Forward Fall while Standing
21:07.3,624,514,771,1001,340,2.01,497.8,1.66,20723.83,334,713,20723.77,708,429474560,4294887987,2841,0.72,-0.2,-0.78,-2.68,34.4,-14.47,-11.3,-40.21,-9.85,-48.26,5.28,-9.91,-47.94,Forward Fall while Standing
21:07.4,567,514,771,1001,340,2.01,497.8,1.66,20723.83,334,705,20723.77,708,429474560,4294860724,3546,0.76,-0.17,-0.69,-0.7,50.4,-8.96,-10.22,-45.27,-9.87,-42.06,4.24,-9.89,-42.19,Forward Fall while Standing
21:07.6,713,517,775.5,1001,341,2,500,1.67,20723.83,334,707,20723.77,708,429474560,4294836285,4253,0.85,-0.15,-0.63,-4.4,42.24,-6.56,-8.67,-51.08,-10.36,-36.91,3.5,-10.3,-37.48,Forward Fall while Standing
21:07.7,547,518,777,1001,341,2,500,1.67,20723.83,334,707,20723.77,708,429474560,4294811846,4960,0.9,-0.14,-0.51,-5.68,38.64,-6.59,-8.27,-58.04,-11.02,-32.22,2.75,-10.91,-33.26,Forward Fall while Standing
21:07.8,672,520,780,1001,341,2,500,1.67,20723.83,334,716,20723.77,708,429474560,4294800214,5676,0.9,-0.13,-0.42,-11.1,40.11,-12.99,-8.33,-62.22,-12.37,-27.35,1.19,-12.21,-28.74,Forward Fall while Standing
21:08.0,539,520,780,1001,341,2,500,1.67,20723.83,334,715,20723.77,708,429474560,4294787151,6391,0.92,-0.07,-0.41,-14.41,27.15,-14.49,-4.75,-64.25,-14.15,-24.1,-0.58,-13.78,-25.71,Forward Fall while Standing
21:08.1,331,518,777,1001,342,1.99,502.2,1.67,20723.93,340,713,20723.83,710,429477120,0,0,0.95,-0.02,-0.31,-14.36,5.29,6.34,-2,-70.2,-15.89,-23.69,0.32,-15.34,-25.55,Forward Fall while Standing
21:08.2,737,521,781.5,1001,342,1.99,502.2,1.67,20723.93,340,712,20723.83,710,429477120,4294949952,712,1,-0.11,-0.24,-7.18,11.02,2.11,-6.43,-73.76,-16.74,-22.53,0.69,-16.33,-24.58,Forward Fall while Standing
21:08.3,62,514,771,1001,343,1.98,504.41,1.68,20723.93,340,704,20723.83,710,429477120,4294921280,1416,0.98,-0.07,-0.33,4.46,54.86,-7.05,-4.56,-69.37,-16.1,-15.82,-0.1,-15.64,-17.96,Forward Fall while Standing
21:08.5,300,511,766.5,1001,344,1.97,506.63,1.68,20723.93,340,714,20723.83,710,429477120,4294906788,2130,1.01,-0.07,-0.19,-12.92,40.53,0.55,-4.42,-77.24,-17.7,-10.85,0.07,-17.17,-13.5,Forward Fall while Standing
21:08.6,444,510,765,1001,344,1.97,506.63,1.68,20723.93,340,718,20723.83,710,429477120,4294898024,2848,1.04,-0.09,-0.11,-12.99,51.22,-6.97,-5.77,-80.35,-19.29,-4.55,-0.72,-18.75,-7.58,Forward Fall while Standing
21:08.7,143,505,757.5,1001,347,1.95,513.31,1.7,20723.93,340,702,20723.83,710,429477120,4294866540,3550,0.94,-0.05,0.01,-15.8,49.64,-8.31,-3.38,-85.6,-21.24,1.55,-1.68,-20.53,-1.94,Forward Fall while Standing
21:08.9,621,507,760.5,1001,350,1.92,520.06,1.71,20723.93,340,710,20723.83,710,429477120,4294846352,4260,0.92,-0.03,-0.11,-29.15,17.01,5.76,-2.16,-81.22,-24.87,3.46,-0.85,-23.96,0.07,Forward Fall while Standing
21:09.0,383,505,757.5,1001,355,1.88,531.44,1.74,20723.93,340,708,20723.83,710,429477120,4294823328,4968,1.05,-0.1,0.14,-19.14,4.56,11.43,-6.18,-78.85,-27.25,3.78,0.71,-26.41,0.48,Forward Fall while Standing
21:09.1,404,504,756,1001,361,1.83,545.32,1.76,20723.93,340,707,20723.83,710,429477120,4294798889,5675,1,-0.14,0.16,-0.85,10.71,-3.12,-8.45,-76.4,-27.29,4.89,0.42,-26.53,1.64,Forward Fall while Standing
21:09.2,364,502,753,1001,364,1.81,552.35,1.78,20723.93,340,704,20723.83,710,429477120,4294770217,6379,1,-0.1,0.15,1.86,0.43,-4.64,-5.98,-78.48,-26.98,4.69,-0.07,-26.14,1.36,Forward Fall while Standing
21:09.4,743,505,757.5,1001,368,1.78,561.83,1.8,20724.13,351,712,20723.79,709,429475296,0,0,0.97,-0.11,0.17,3.35,-5.07,1.31,-6.76,-76.52,-26.49,3.81,0.19,-25.7,0.59,Forward Fall while Standing
21:09.5,1000,511,766.5,1001,374,1.74,576.27,1.83,20724.13,351,704,20723.79,709,429475296,4294938624,704,1,-0.11,0.12,7.13,-2.85,1.4,-6.69,-79.22,-25.51,3.19,0.47,-24.76,-0.11,Forward Fall while Standing
21:09.6,1000,517,775.5,1001,378,1.71,586.05,1.85,20724.13,351,703,20723.79,709,429475296,4294908545,1407,1.03,-0.09,0.1,1.79,-7.54,-3.52,-5.5,-80.86,-25.22,1.98,0.12,-24.43,-1.33,Forward Fall while Standing
21:09.7,882,522,783,1001,382,1.68,595.94,1.87,20724.13,351,706,20723.79,709,429475296,4294882693,2113,1.01,-0.12,0.14,7.19,-5.07,-8.22,-7.14,-78.06,-24.23,1.08,-0.82,-23.55,-2.08,Forward Fall while Standing
21:09.9,848,526,789,1001,387,1.64,608.49,1.89,20724.13,351,708,20723.79,709,429475296,4294859669,2821,0.99,-0.07,0.09,3.25,-12.31,-7.98,-4.33,-82.23,-23.74,-0.75,-1.74,-22.97,-4.01,Forward Fall while Standing
21:10.0,388,524,786,1001,390,1.62,616.11,1.91,20724.13,351,707,20723.79,709,429475296,4294835230,3528,0.99,-0.02,0.05,13.53,-7.26,-3.46,-1.65,-85.55,-21.95,-1.93,-2.08,-21.14,-5.27,Forward Fall while Standing
21:10.1,554,525,787.5,1001,390,1.62,616.11,1.91,20724.13,351,709,20723.79,709,429475296,4294813623,4237,1,-0.05,0.01,10.11,-6.51,3.57,-3.25,-85.66,-20.59,-3.02,-1.52,-19.89,-6.32,Forward Fall while Standing
21:10.2,573,525,787.5,1001,390,1.62,616.11,1.91,20724.13,351,712,20723.79,709,429475296,4294796279,4949,1.02,-0.07,-0.01,1.92,-0.13,4.36,-4.65,-84.33,-20.27,-3.29,-0.86,-19.64,-6.53,Forward Fall while Standing
21:10.4,635,526,789,1001,389,1.63,613.56,1.9,20724.13,351,709,20723.79,709,429475296,4294774672,5658,1.01,-0.08,-0.02,-2.56,9.21,-0.67,-4.98,-83.84,-20.52,-2.37,-0.85,-19.9,-5.63,Forward Fall while Standing
21:14.2,738,738,1107,738,343,1.98,504.41,1.68,0,0,715,0,0,0,4294932626,1424,1.01,-0.05,0.1,-3.04,0.65,-0.57,-3.26,-82.27,-0.59,0.35,-0.15,-0.69,-2.95,Sitting
21:14.4,427,582,873,738,340,2.01,497.8,1.66,0,0,712,0,0,0,4294915282,2136,1.02,-0.05,0.11,-2.93,7.04,1.23,-3.53,-81.43,-0.88,0.97,0.1,-0.99,-2.32,Sitting
21:14.5,198,454,681,738,338,2.03,493.43,1.65,0,0,714,0,0,0,4294900790,2850,0.98,-0.06,0.11,4.4,4.91,1.19,-3.82,-81.11,-0.27,1.33,0.34,-0.41,-1.96,Sitting
21:14.6,482,461,691.5,738,336,2.04,489.08,1.64,0,0,708,0,0,0,4294877766,3558,1.01,-0.07,0.11,-3.09,-3.47,3.35,-4.58,-81.01,-0.58,0.66,0.85,-0.74,-2.61,Sitting
21:14.7,359,440,660,738,335,2.05,486.92,1.64,0,0,710,0,0,0,4294857578,4268,1.01,-0.09,0.15,2.87,8.5,-2.76,-5.51,-78.83,-0.15,1.46,0.61,-0.37,-1.75,Sitting
21:14.8,592,466,699,738,334,2.06,484.76,1.63,0,0,704,0,0,0,4294828906,4972,0.99,-0.06,0.09,-7.48,-6.45,-0.92,-4.1,-82.35,-1.01,0.42,0.59,-1.13,-2.89,Sitting
21:15.0,686,497,745.5,738,333,2.07,482.61,1.63,0,0,716,0,0,0,4294817274,5688,1.02,-0.07,0.1,-4.24,2.11,-1.69,-4.51,-81.55,-1.46,0.43,0.48,-1.58,-2.84,Sitting
21:15.1,440,490,735,738,332,2.08,480.46,1.62,0,0,721,0,0,0,4294812827,6409,1.01,-0.05,0.11,2,3.54,-4.45,-3.53,-81.59,-1.15,0.62,0.03,-1.25,-2.67,Sitting
21:15.2,210,459,688.5,738,332,2.08,480.46,1.62,20723.88,336,715,20723.9,712,429479968,0,0,1,-0.06,0.13,-5.11,-0.98,0.05,-4.26,-79.97,-1.72,0.25,0.14,-1.82,-2.96,Sitting
21:15.3,305,443,664.5,738,333,2.07,482.61,1.63,20723.88,336,708,20723.9,712,429479968,4294944272,708,1,-0.07,0.12,-1.74,-0.65,-0.08,-4.57,-80.67,-1.87,-0.08,0.23,-1.98,-3.31,Sitting
21:15.5,809,476,714,809,333,2.07,482.61,1.63,20723.88,336,711,20723.9,712,429479968,4294925505,1419,1.02,-0.08,0.12,-2.18,-1.06,-2.56,-5.04,-80.5,-2.07,-0.47,0,-2.19,-3.67,Sitting
21:15.6,502,479,718.5,809,334,2.06,484.76,1.63,20723.88,336,709,20723.9,712,429479968,4294903898,2128,0.98,-0.05,0.1,0.73,0.47,-0.72,-3.36,-81.87,-1.91,-0.67,0.01,-1.97,-3.91,Sitting
21:15.7,466,478,717,809,335,2.05,486.92,1.64,20723.88,336,705,20723.9,712,429479968,4294876635,2833,1.01,-0.07,0.09,2.38,1.92,2.18,-4.71,-81.7,-1.54,-0.68,0.39,-1.66,-3.92,Sitting
21:15.9,966,512,768,966,336,2.04,489.08,1.64,20723.88,336,708,20723.9,712,429479968,4294853611,3541,1.02,-0.08,0.1,-3.23,1.13,-0.27,-5.19,-81.01,-1.87,-0.79,0.46,-2,-3.99,Sitting
21:16.0,593,518,777,966,337,2.04,491.25,1.65,20723.88,336,714,20723.9,712,429479968,4294839119,4255,1,-0.07,0.12,-0.97,6.78,-0.89,-4.74,-80.49,-1.92,-0.18,0.44,-2.04,-3.39,Sitting
21:16.1,450,513,769.5,966,338,2.03,493.43,1.65,20723.88,336,705,20723.9,712,429479968,4294811856,4960,1,-0.07,0.11,-2.56,-1.66,3.27,-4.79,-80.8,-2.18,-0.64,0.96,-2.28,-3.85,Sitting
21:16.2,940,539,808.5,966,340,2.01,497.8,1.66,20723.88,336,717,20723.9,712,429479968,4294801657,5677,1,-0.09,0.1,0.53,-0.32,2.63,-5.97,-80.46,-2.04,-0.94,1.39,-2.2,-4.12,Sitting
21:16.4,482,535,802.5,966,341,2,500,1.67,20723.88,336,707,20723.9,712,429479968,4294777218,6384,1.01,-0.1,0.09,0.31,0.5,2.12,-5.98,-81.02,-1.93,-1.13,1.76,-2.09,-4.32,Sitting
21:16.5,444,531,796.5,966,342,1.99,502.2,1.67,20723.88,336,706,20723.78,709,429475136,0,0,1.03,-0.1,0.09,-2.66,-0.13,-1.94,-6.21,-80.82,-2.19,-1.39,1.62,-2.35,-4.57,Sitting
21:16.6,847,546,819,966,344,1.97,506.63,1.68,20723.88,336,710,20723.78,709,429475136,4294947108,710,0.99,-0.08,0.09,-2.26,3.62,-4.31,-5.42,-81.14,-2.41,-1.19,1.17,-2.53,-4.39,Sitting
21:16.7,648,551,826.5,966,346,1.96,511.08,1.69,20723.88,336,716,20723.78,709,429475136,4294935476,1426,0.99,-0.09,0.11,-2.41,0.49,2.4,-5.49,-80.59,-2.64,-1.38,1.58,-2.75,-4.55,Sitting
21:16.9,411,545,817.5,966,347,1.95,513.31,1.7,20723.88,336,707,20723.78,709,429475136,4294911037,2133,1.02,-0.12,0.11,-2.06,0.24,1.78,-7,-79.34,-2.83,-1.6,1.9,-3,-4.71,Sitting
21:17.0,803,556,834,966,348,1.94,515.56,1.7,20723.88,336,709,20723.78,709,429475136,4294889430,2842,1.01,-0.11,0.12,-1.46,1.44,-2.99,-6.49,-79.58,-2.94,-1.67,1.63,-3.09,-4.79,Sitting
21:17.1,595,558,837,966,349,1.93,517.8,1.71,20723.88,336,716,20723.78,709,429475136,4294877798,3558,0.98,-0.1,0.13,-0.88,1.56,-2.9,-6.29,-78.98,-2.98,-1.73,1.36,-3.12,-4.82,Sitting
21:17.2,305,547,820.5,966,350,1.92,520.06,1.71,20723.88,336,711,20723.78,709,429475136,4294859031,4269,1,-0.09,0.1,-2.42,-1.79,-0.07,-5.95,-80.47,-3.22,-2.21,1.45,-3.33,-5.34,Sitting
21:17.4,884,560,840,966,351,1.91,522.32,1.72,20723.88,336,715,20723.78,709,429475136,4294845968,4984,1,-0.1,0.12,-0.03,1.21,-0.08,-6.56,-79.29,-3.15,-2.31,1.54,-3.29,-5.39,Sitting
21:17.5,559,560,840,966,352,1.91,524.59,1.72,20723.88,336,715,20723.78,709,429475136,4294832905,5699,1.01,-0.1,0.1,-1.27,-1.57,0.99,-6.26,-80.37,-3.24,-2.77,1.77,-3.36,-5.87,Sitting
21:17.6,393,554,831,966,353,1.9,526.87,1.73,20723.88,336,707,20723.78,709,429475136,4294808466,6406,0.99,-0.11,0.08,-2.72,-1.33,0.18,-6.69,-80.67,-3.52,-3.19,1.89,-3.64,-6.29,Sitting
21:17.8,916,567,850.5,966,354,1.89,529.15,1.73,20724.09,349,710,20723.87,711,429478816,0,0,1,-0.1,0.1,-0.68,2.32,-0.26,-6.3,-80.45,-3.53,-3.15,1.96,-3.64,-6.24,Sitting
21:17.9,742,573,859.5,966,355,1.88,531.44,1.74,20724.09,349,714,20723.87,711,429478816,4294952804,714,1.01,-0.11,0.1,-3.94,-4.96,1.05,-6.91,-79.8,-3.96,-4.03,2.19,-4.08,-7.06,Sitting
21:18.0,285,563,844.5,966,355,1.88,531.44,1.74,20724.09,349,707,20723.87,711,429478816,4294928365,1421,1.02,-0.11,0.09,3.11,6.82,-2.95,-6.64,-80.54,-3.49,-3.41,1.91,-3.62,-6.5,Sitting
21:18.1,605,565,847.5,966,356,1.87,533.73,1.74,20724.09,349,715,20723.87,711,429478816,4294915302,2136,1,-0.11,0.08,-6.29,-5.76,-1.35,-7.1,-80.4,-4.22,-4.4,1.84,-4.34,-7.44,Sitting
21:18.3,706,569,853.5,966,357,1.87,536.04,1.74,20724.09,349,716,20723.87,711,429478816,4294903670,2852,1,-0.12,0.09,-0.75,3.43,-1.24,-7.69,-79.57,-4.24,-4.22,1.78,-4.38,-7.23,Sitting
21:18.4,267,560,840,966,357,1.87,536.04,1.74,20724.09,349,713,20723.87,711,429478816,4294887751,3565,1,-0.12,0.09,-5.24,-2.43,-0.24,-7.16,-80.24,-4.84,-4.78,1.85,-4.93,-7.8,Sitting
21:18.5,727,565,847.5,966,358,1.86,538.35,1.75,20724.09,349,713,20723.87,711,429478816,4294871832,4278,1,-0.12,0.08,-0.16,1.84,1.4,-7.59,-80.13,-4.79,-4.8,2.13,-4.9,-7.81,Sitting
21:18.6,636,567,850.5,966,358,1.86,538.35,1.75,20724.09,349,715,20723.87,711,429478816,4294858769,4993,1.02,-0.13,0.1,1.05,4.01,-0.93,-7.58,-79.44,-4.59,-4.55,2.11,-4.71,-7.54,Sitting
21:18.8,232,558,837,966,358,1.86,538.35,1.75,20724.09,349,704,20723.87,711,429478816,4294830097,5697,0.98,-0.12,0.07,-2.83,-2.68,-3.83,-7.39,-80.52,-4.88,-5.14,1.73,-4.98,-8.16,Sitting
21:18.9,642,560,840,966,359,1.85,540.66,1.75,20724.09,349,714,20723.87,711,429478816,4294815605,6411,1,-0.12,0.07,-5.11,4.18,-0.4,-7.34,-80.62,-5.45,-4.87,1.78,-5.53,-7.9,Sitting
21:19.0,527,559,838.5,966,359,1.85,540.66,1.75,20724.22,357,711,20723.89,712,429479680,0,0,0.99,-0.09,0.08,-4.1,5.08,-2.4,-5.74,-81.63,-5.89,-4.48,1.57,-5.89,-7.57,Sitting
21:19.1,194,550,825,966,359,1.85,540.66,1.75,20724.22,357,703,20723.89,712,429479680,4294937217,703,1,-0.13,0.13,-3.5,6.16,2.63,-8.16,-77.72,-6.27,-3.95,2.01,-6.34,-6.9,Sitting
21:19.3,456,548,822,966,359,1.85,540.66,1.75,20724.22,357,710,20723.89,712,429479680,4294917029,1413,1.02,-0.11,0.08,-9.59,-6.53,4.22,-6.57,-80.84,-7.41,-5.03,2.64,-7.37,-8.06,Sitting
21:19.4,706,551,826.5,966,360,1.84,542.99,1.76,20724.22,357,720,20723.89,712,429479680,4294911141,2133,1.03,-0.16,0.12,5.95,2.15,-7.26,-9.48,-77.27,-6.58,-5.01,1.82,-6.7,-7.9,Sitting
21:19.5,184,543,814.5,966,360,1.84,542.99,1.76,20724.22,357,707,20723.89,712,429479680,4294886702,2840,0.98,-0.1,0.06,0.96,-6.6,-3.73,-6.38,-81.77,-6.39,-6.1,1.45,-6.39,-9.13,Sitting
21:19.6,589,544,816,966,360,1.84,542.99,1.76,20724.22,357,709,20723.89,712,429479680,4294865095,3549,1,-0.12,0.06,-5.1,-2.18,2.1,-7.4,-80.91,-6.96,-6.63,1.81,-6.98,-9.6,Sitting
21:19.8,710,547,820.5,966,359,1.85,540.66,1.75,20724.22,357,713,20723.89,712,429479680,4294849176,4262,1.01,-0.12,0.07,2.13,4.6,-3.44,-7.49,-80.35,-6.62,-6.3,1.48,-6.66,-9.26,Sitting
21:19.9,260,541,811.5,966,358,1.86,538.35,1.75,20724.22,357,706,20723.89,712,429479680,4294823324,4968,1,-0.11,0.08,0.3,0.34,-6.87,-6.58,-81.03,-6.51,-6.51,0.71,-6.52,-9.49,Sitting
21:20.0,827,547,820.5,966,357,1.87,536.04,1.74,20724.22,357,707,20723.89,712,429479680,4294798885,5675,0.99,-0.11,0.08,-5.55,2.41,-3.98,-7.08,-80.56,-7.15,-6.46,0.3,-7.14,-9.42,Sitting
21:20.2,710,551,826.5,966,356,1.87,533.73,1.74,20724.22,357,715,20723.89,712,429479680,4294785822,6390,1.01,-0.09,0.1,-1.63,14.77,-2.78,-5.92,-80.51,-7.28,-4.83,0.05,-7.23,-7.86,Sitting
21:20.3,177,543,814.5,966,354,1.89,529.15,1.73,20724.24,358,714,20723.83,710,429477120,0,0,1.02,-0.1,0.15,1.4,0.31,-3.58,-6.14,-78.21,-7.04,-5.05,-0.3,-7,-7.97,Sitting
21:20.4,317,538,807,966,353,1.9,526.87,1.73,20724.24,358,706,20723.83,710,429477120,4294941444,706,0.98,-0.09,0.11,-3.34,-5.92,1.56,-5.53,-80.19,-7.39,-6.05,0,-7.32,-9.02,Sitting
21:20.5,712,542,813,966,353,1.9,526.87,1.73,20724.24,358,717,20723.83,710,429477120,4294931245,1423,1.02,-0.12,0.09,-0.43,-5.87,2.79,-7.3,-79.91,-7.37,-7.04,0.45,-7.37,-9.96,Sitting
21:20.7,176,535,802.5,966,352,1.91,524.59,1.72,20724.24,358,706,20723.83,710,429477120,4294905393,2129,1.02,-0.12,0.07,1.73,2.51,-1.53,-7.08,-80.9,-7.08,-6.98,0.36,-7.08,-9.93,Sitting
21:20.8,347,531,796.5,966,352,1.91,524.59,1.72,20724.24,358,708,20723.83,710,429477120,4294882369,2837,1.01,-0.1,0.09,-3.78,6.96,-3.21,-6.33,-80.85,-7.49,-6.35,0.05,-7.45,-9.33,Sitting
21:20.9,744,535,802.5,966,351,1.91,522.32,1.72,20724.24,358,721,20723.83,710,429477120,4294877922,3558,0.99,-0.1,0.1,-6.35,4.83,0.35,-6.57,-80.13,-8.23,-5.99,0.2,-8.16,-8.95,Sitting
21:21.0,290,531,796.5,966,351,1.91,522.32,1.72,20724.24,358,713,20723.83,710,429477120,4294862003,4271,1.02,-0.11,0.13,6.17,8.78,-3.34,-6.8,-78.82,-7.37,-5.13,-0.13,-7.35,-8.07,Sitting
21:21.2,402,528,792,966,350,1.92,520.06,1.71,20724.24,358,711,20723.83,710,429477120,4294843236,4982,1.01,-0.09,0.16,-4.6,-1.26,-4.76,-5.73,-77.96,-7.88,-5.54,-0.63,-7.8,-8.43,Sitting
21:21.3,725,532,798,966,350,1.92,520.06,1.71,20724.24,358,714,20723.83,710,429477120,4294828744,5696,0.98,-0.08,0.12,-1.36,0.57,-0.47,-4.95,-80.25,-7.99,-5.72,-0.59,-7.86,-8.7,Sitting
21:21.4,283,528,792,966,350,1.92,520.06,1.71,20724.24,358,710,20723.83,710,429477120,4294808556,6406,1.01,-0.1,0.12,-0.47,0.79,-0.47,-6.37,-79.38,-7.97,-5.87,-0.55,-7.91,-8.81,Sitting
21:21.6,449,526,789,966,351,1.91,522.32,1.72,20724.12,351,705,20723.85,711,429478144,0,0,0.99,-0.09,0.12,-0.26,3.49,-1.21,-5.47,-79.94,-7.94,-5.69,-0.6,-7.84,-8.66,Sitting
21:21.7,805,531,796.5,966,351,1.91,522.32,1.72,20724.12,351,709,20723.85,711,429478144,4294945689,709,1,-0.1,0.13,-2.9,3.56,-0.57,-6.12,-79.21,-8.23,-5.49,-0.57,-8.15,-8.44,Sitting
21:21.8,334,528,792,966,351,1.91,522.32,1.72,20724.12,351,712,20723.85,711,429478144,4294928345,1421,1,-0.09,0.13,-0.39,2.15,-2.96,-5.61,-79.5,-8.21,-5.47,-0.85,-8.1,-8.43,Sitting
21:21.9,399,526,789,966,351,1.91,522.32,1.72,20724.12,351,704,20723.85,711,429478144,4294899673,2125,1,-0.07,0.13,-0.49,0.02,-2.01,-4.75,-80.02,-8.2,-5.73,-1,-8.06,-8.7,Sitting
21:22.1,815,530,795,966,350,1.92,520.06,1.71,20724.12,351,717,20723.85,711,429478144,4294889474,2842,1,-0.08,0.14,2.24,-2.68,-1.29,-5.24,-79.24,-7.84,-6.32,-1.07,-7.74,-9.24,Sitting
21:22.2,160,524,786,966,349,1.93,517.8,1.71,20724.12,351,709,20723.85,711,429478144,4294867867,3551,1.01,-0.08,0.12,-2.66,0.11,2.38,-5.34,-79.91,-8.11,-6.56,-0.66,-8,-9.49,Sitting
21:22.3,377,522,783,966,349,1.93,517.8,1.71,20724.12,351,713,20723.85,711,429478144,4294851948,4264,1.03,-0.1,0.13,-2.24,4.34,-0.48,-6.27,-79.1,-8.32,-6.27,-0.63,-8.24,-9.18,Sitting
21:22.4,765,526,789,966,348,1.94,515.56,1.7,20724.12,351,713,20723.85,711,429478144,4294836029,4977,0.99,-0.07,0.12,-2.53,0.89,-4.66,-4.89,-80.35,-8.57,-6.41,-1.11,-8.42,-9.36,Sitting
21:22.6,176,521,781.5,966,347,1.95,513.31,1.7,20724.12,351,709,20723.85,711,429478144,4294814422,5686,0.99,-0.08,0.13,-1.63,2.17,-0.02,-5.42,-79.41,-8.71,-6.38,-1.02,-8.58,-9.31,Sitting
21:22.7,448,519,778.5,966,347,1.95,513.31,1.7,20724.12,351,706,20723.85,711,429478144,4294788570,6392,1.01,-0.08,0.13,-1.99,0.5,-0.89,-5.25,-79.93,-8.89,-6.58,-1.03,-8.74,-9.51,Sitting
21:22.8,672,522,783,966,347,1.95,513.31,1.7,20724.08,349,716,20723.84,710,429477696,0,0,1,-0.08,0.11,-1.79,1.89,-2.46,-5.3,-80.48,-9.04,-6.59,-1.24,-8.89,-9.55,Sitting
21:22.9,294,518,777,966,347,1.95,513.31,1.7,20724.08,349,714,20723.84,710,429477696,4294952804,714,1,-0.08,0.12,-2.18,0.15,-1.75,-4.93,-80.24,-9.25,-6.82,-1.36,-9.08,-9.76,Sitting
21:23.1,400,517,775.5,966,347,1.95,513.31,1.7,20724.08,349,706,20723.84,710,429477696,4294926952,1420,1,-0.08,0.13,-1.98,0.43,0.94,-5,-79.93,-9.43,-7.02,-1.14,-9.25,-9.94,Sitting
21:23.2,851,521,781.5,966,347,1.95,513.31,1.7,20724.08,349,714,20723.84,710,429477696,4294912460,2134,1,-0.08,0.12,-0.31,-0.12,-1.37,-5.35,-79.88,-9.4,-7.29,-1.21,-9.23,-10.2,Sitting
21:23.3,291,518,777,966,348,1.94,515.56,1.7,20724.08,349,707,20723.84,710,429477696,4294888021,2841,0.99,-0.08,0.11,-3.95,2.51,0.54,-5.13,-80.58,-9.83,-7.23,-1.04,-9.64,-10.16,Sitting
21:23.5,480,518,777,966,348,1.94,515.56,1.7,20724.08,349,703,20723.84,710,429477696,4294857942,3544,1.01,-0.09,0.14,-1.79,-6.12,-0.53,-5.71,-78.82,-9.99,-8.26,-1.01,-9.82,-11.08,Sitting
21:23.6,818,522,783,966,348,1.94,515.56,1.7,20724.08,349,720,20723.84,710,429477696,4294852054,4264,0.99,-0.09,0.09,-1.71,0.32,1.11,-5.87,-80.93,-10.13,-8.47,-0.77,-9.96,-11.37,Sitting
21:23.7,293,519,778.5,966,349,1.93,517.8,1.71,20724.08,349,708,20723.84,710,429477696,4294829030,4972,1.01,-0.1,0.1,-0.4,8.08,-1.08,-6.29,-80.58,-10.11,-7.7,-0.81,-9.96,-10.62,Sitting
21:23.8,641,520,780,966,349,1.93,517.8,1.71,20724.08,349,708,20723.84,710,429477696,4294806006,5680,1,-0.08,0.17,-5.83,-1.7,-2.08,-5.03,-77.89,-10.79,-8.17,-0.97,-10.56,-10.96,Sitting
21:24.0,571,521,781.5,966,350,1.92,520.06,1.71,20724.08,349,714,20723.84,710,429477696,4294791514,6394,1,-0.09,0.13,4.37,-4.34,-1.68,-5.81,-79.31,-10.16,-8.98,-1.08,-9.99,-11.79,Sitting
21:24.1,312,518,777,966,350,1.92,520.06,1.71,20724.07,348,702,20723.8,709,429476000,0,0,1.01,-0.08,0.08,4.28,-4.76,-0.12,-5.06,-81.94,-9.55,-9.83,-1,-9.37,-12.72,Sitting
21:24.2,822,522,783,966,351,1.91,522.32,1.72,20724.07,348,712,20723.8,709,429476000,4294949952,712,1.01,-0.1,0.05,0.69,9.66,3.03,-6.42,-82.03,-9.39,-8.86,-0.52,-9.27,-11.79,Sitting
21:24.3,652,524,786,966,352,1.91,524.59,1.72,20724.07,348,714,20723.8,709,429476000,4294935460,1426,0.99,-0.09,0.12,-9.05,5,-1.21,-5.9,-79.78,-10.46,-8.48,-0.57,-10.28,-11.33,Sitting
21:24.5,274,521,781.5,966,352,1.91,524.59,1.72,20724.07,348,702,20723.8,709,429476000,4294903976,2128,1,-0.1,0.13,-2.27,2.5,-1.57,-6.08,-79.28,-10.68,-8.42,-0.67,-10.5,-11.25,Sitting
21:24.6,720,523,784.5,966,352,1.91,524.59,1.72,20724.07,348,712,20723.8,709,429476000,4294886632,2840,1,-0.1,0.14,1.98,1.35,-0.72,-6.15,-78.65,-10.36,-8.5,-0.66,-10.19,-11.31,Sitting
21:24.7,389,521,781.5,966,352,1.91,524.59,1.72,20724.07,348,715,20723.8,709,429476000,4294873569,3555,1.01,-0.1,0.11,-1.09,-0.65,-1.33,-6.04,-80,-10.43,-8.84,-0.73,-10.25,-11.69,Sitting
21:24.9,583,522,783,966,353,1.9,526.87,1.73,20724.07,348,708,20723.8,709,429476000,4294850545,4263,1,-0.1,0.14,-0.95,1.75,-3.31,-6.12,-78.78,-10.47,-8.87,-1.05,-10.3,-11.67,Sitting
21:25.0,727,524,786,966,354,1.89,529.15,1.73,20724.07,348,721,20723.8,709,429476000,4294846098,4984,0.99,-0.08,0.13,-0.42,1.76,2.74,-5.42,-79.72,-10.46,-8.9,-0.6,-10.26,-11.73,Sitting
21:25.1,216,521,781.5,966,354,1.89,529.15,1.73,20724.07,348,705,20723.8,709,429476000,4294818835,5689,1.01,-0.11,0.13,-2.1,2.4,0.56,-6.84,-78.81,-10.65,-8.85,-0.43,-10.5,-11.65,Sitting
21:25.2,378,519,778.5,966,354,1.89,529.15,1.73,20724.07,348,710,20723.8,709,429476000,4294798647,6399,1,-0.1,0.11,-0.89,1.19,-4.4,-6.1,-79.95,-10.69,-8.95,-0.89,-10.51,-11.79,Sitting
21:25.4,584,520,780,966,354,1.89,529.15,1.73,20724.14,352,714,20723.86,711,429478400,0,0,1,-0.1,0.11,-2.85,-0.5,-2.02,-6.08,-80.02,-10.98,-9.27,-1.05,-10.78,-12.1,Sitting
21:25.5,152,516,774,966,354,1.89,529.15,1.73,20724.14,352,706,20723.86,711,429478400,4294941444,706,0.99,-0.09,0.13,-3.73,2.88,-2.92,-5.69,-79.37,-11.39,-9.15,-1.32,-11.16,-11.96,Sitting
21:25.6,454,515,772.5,966,355,1.88,531.44,1.74,20724.14,352,708,20723.86,711,429478400,4294918420,1414,1,-0.09,0.13,-3.98,3.69,-1.31,-5.69,-79.26,-11.82,-8.94,-1.39,-11.57,-11.75,Sitting
21:25.7,517,515,772.5,966,355,1.88,531.44,1.74,20724.14,352,712,20723.86,711,429478400,4294901076,2126,1,-0.09,0.15,-2.73,-2.4,-1.68,-5.57,-78.71,-12.1,-9.5,-1.5,-11.84,-12.27,Sitting
21:25.9,168,511,766.5,966,355,1.88,531.44,1.74,20724.14,352,704,20723.86,711,429478400,4294872404,2830,1,-0.08,0.13,-0.98,-3,-1.5,-5.39,-79.56,-12.15,-10.14,-1.59,-11.88,-12.92,Sitting
21:26.0,633,513,769.5,966,355,1.88,531.44,1.74,20724.14,352,707,20723.86,711,429478400,4294847965,3537,1,-0.09,0.12,-2.79,1.93,-1.34,-5.51,-80,-12.43,-10.15,-1.66,-12.16,-12.95,Sitting
21:26.1,418,512,768,966,355,1.88,531.44,1.74,20724.14,352,713,20723.86,711,429478400,4294832046,4250,0.99,-0.08,0.12,-2.62,0.45,-3.07,-5.29,-80.02,-12.7,-10.35,-1.95,-12.4,-13.14,Sitting
21:26.3,433,511,766.5,966,356,1.87,533.73,1.74,20724.14,352,706,20723.86,711,429478400,4294806194,4956,0.99,-0.07,0.11,-1.77,-0.08,-2.49,-4.6,-81.16,-12.85,-10.62,-2.17,-12.52,-13.44,Sitting
21:26.4,853,514,771,966,356,1.87,533.73,1.74,20724.14,352,713,20723.86,711,429478400,4294790275,5669,1,-0.08,0.12,-1.83,0.73,-1.2,-4.88,-80.16,-13.01,-10.78,-2.22,-12.69,-13.56,Sitting
21:26.5,319,512,768,966,356,1.87,533.73,1.74,20724.14,352,704,20723.86,711,429478400,4294761603,6373,1,-0.08,0.11,-2.22,1.37,-1.31,-4.84,-80.77,-13.23,-10.86,-2.29,-12.89,-13.66,Sitting
21:26.6,700,514,771,966,356,1.87,533.73,1.74,20724.19,355,708,20723.75,708,429473856,0,0,1,-0.07,0.12,-2.16,2.24,-1.32,-4.66,-80.63,-13.43,-10.83,-2.35,-13.08,-13.62,Sitting
21:26.8,819,517,775.5,966,356,1.87,533.73,1.74,20724.19,355,714,20723.75,708,429473856,4294952804,714,1,-0.08,0.13,-2.08,-0.16,-0.83,-4.91,-80.03,-13.62,-11.1,-2.36,-13.27,-13.86,Sitting
21:26.9,265,513,769.5,966,356,1.87,533.73,1.74,20724.19,355,703,20723.75,708,429473856,4294922725,1417,1,-0.08,0.13,-2.26,1.63,-1.89,-5.07,-79.87,-13.84,-11.15,-2.5,-13.49,-13.9,Sitting
21:27.0,668,515,772.5,966,357,1.87,536.04,1.74,20724.19,355,720,20723.75,708,429473856,4294916837,2137,1,-0.08,0.11,-1.33,1.59,-0.88,-4.86,-80.99,-13.94,-11.2,-2.51,-13.57,-13.99,Sitting
21:27.1,468,518,777,966,357,1.87,536.04,1.74,20724.19,355,716,20723.75,708,429473856,4294905205,2853,1,-0.06,0.13,-1.92,2.11,-1.39,-4.25,-80.22,-14.11,-11.19,-2.59,-13.72,-13.95,Sitting
21:27.3,258,516,774,966,356,1.87,533.73,1.74,20724.19,355,707,20723.75,708,429473856,4294880766,3560,0.99,-0.06,0.14,-0.64,-1.35,-0.87,-4.2,-79.84,-14.12,-11.62,-2.6,-13.72,-14.35,Sitting
21:27.4,694,519,778.5,966,356,1.87,533.73,1.74,20724.19,355,711,20723.75,708,429473856,4294861999,4271,1,-0.08,0.12,-1.61,-1.45,1.18,-4.98,-80.23,-14.25,-12.06,-2.35,-13.88,-14.78,Sitting
21:27.5,171,515,772.5,966,355,1.88,531.44,1.74,20724.19,355,709,20723.75,708,429473856,4294840392,4980,1.01,-0.09,0.12,-1.93,2.07,-1.14,-5.46,-79.94,-14.43,-12.05,-2.39,-14.07,-14.76,Sitting
21:27.7,503,513,769.5,966,355,1.88,531.44,1.74,20724.19,355,707,20723.75,708,429473856,4294815953,5687,1,-0.08,0.13,-2.17,2.37,-1.16,-4.86,-79.96,-14.64,-12,-2.44,-14.24,-14.72,Sitting
21:27.8,820,517,775.5,820,355,1.88,531.44,1.74,20724.19,355,712,20723.75,708,429473856,4294798609,6399,1,-0.08,0.12,-1.73,0,-1.6,-4.88,-80.46,-14.79,-12.26,-2.54,-14.39,-14.98,Sitting
21:27.9,202,517,775.5,820,355,1.88,531.44,1.74,20724.2,355,709,20723.84,710,429477696,0,0,1.01,-0.09,0.11,-2.11,2.42,-1.42,-5.39,-80.46,-14.98,-12.2,-2.62,-14.6,-14.93,Sitting
21:28.0,572,519,778.5,820,355,1.88,531.44,1.74,20724.2,355,706,20723.84,710,429477696,4294941444,706,1.01,-0.08,0.13,-2.06,2.8,-2.29,-5.27,-79.73,-15.17,-12.1,-2.81,-14.78,-14.81,Sitting
21:28.2,430,515,772.5,820,355,1.88,531.44,1.74,20724.2,355,715,20723.84,710,429477696,4294928381,1421,1,-0.07,0.13,-2,0.92,-1.26,-4.68,-79.74,-15.36,-12.24,-2.87,-14.93,-14.94,Sitting
21:28.3,229,513,769.5,820,355,1.88,531.44,1.74,20724.2,355,706,20723.84,710,429477696,4294902529,2127,1,-0.07,0.11,-1.6,0.6,0.42,-4.73,-80.75,-15.49,-12.42,-2.72,-15.06,-15.15,Sitting
21:28.4,715,515,772.5,820,355,1.88,531.44,1.74,20724.2,355,710,20723.84,710,429477696,4294882341,2837,1.01,-0.08,0.13,-3,1.15,-0.59,-5.29,-79.63,-15.8,-12.53,-2.69,-15.38,-15.21,Sitting
21:28.6,292,508,762,820,355,1.88,531.44,1.74,20724.2,355,711,20723.84,710,429477696,4294863574,3548,1,-0.08,0.13,-1.81,0.72,-1.66,-5.12,-79.84,-15.96,-12.69,-2.81,-15.53,-15.38,Sitting
21:28.7,458,507,760.5,820,355,1.88,531.44,1.74,20724.2,355,711,20723.84,710,429477696,4294844807,4259,1,-0.08,0.12,-2.56,0.91,-1.6,-5.15,-80.41,-16.21,-12.83,-2.91,-15.77,-15.53,Sitting
21:28.8,698,510,765,820,356,1.87,533.73,1.74,20724.2,355,715,20723.84,710,429477696,4294831744,4974,1,-0.07,0.13,-1.74,0.19,-2.37,-4.58,-80.06,-16.37,-13.06,-3.11,-15.89,-15.74,Sitting
21:28.9,291,503,754.5,820,356,1.87,533.73,1.74,20724.2,355,706,20723.84,710,429477696,4294805892,5680,1,-0.07,0.12,-1.81,-1.55,-0.66,-4.65,-80.67,-16.53,-13.52,-3.09,-16.05,-16.2,Sitting
21:29.1,790,506,759,790,356,1.87,533.73,1.74,20724.2,355,709,20723.84,710,429477696,4294784285,6389,1.01,-0.08,0.11,-2.29,-2.33,-0.76,-5.05,-80.9,-16.75,-14.07,-3.09,-16.28,-16.74,Sitting
21:29.2,386,506,759,790,356,1.87,533.73,1.74,20724.19,355,707,20723.8,709,429475968,0,0,0.99,-0.07,0.09,-0.28,-1.03,-2.44,-4.76,-81.54,-16.71,-14.45,-3.3,-16.23,-17.13,Sitting
21:29.3,317,500,750,790,356,1.87,533.73,1.74,20724.19,355,708,20723.8,709,429475968,4294944272,708,1,-0.07,0.08,-2.05,0.3,-2.09,-4.38,-82.39,-16.9,-14.67,-3.46,-16.4,-17.38,Sitting
21:29.4,770,502,753,770,357,1.87,536.04,1.74,20724.19,355,715,20723.8,709,429475968,4294931209,1423,1,-0.08,0.11,-1.11,1.52,-1.08,-4.86,-80.91,-16.97,-14.73,-3.5,-16.49,-17.38,Sitting
21:35.7,672,672,1008,672,353,1.9,526.87,1.73,0,0,715,0,0,0,4294946906,1434,1.03,0.02,0.15,0.44,8.62,-11.05,0.67,-80.24,-0.15,0.79,-1.39,-0.11,-2.46,Left Fall while Sitting
21:35.8,346,509,763.5,672,353,1.9,526.87,1.73,0,0,711,0,0,0,4294928139,2145,1.02,0.05,0.1,0.29,5.15,-21.34,2.48,-82.04,-0.04,1.17,-3.92,0.06,-2.16,Left Fall while Sitting
21:35.9,370,462,693,672,354,1.89,529.15,1.73,0,0,707,0,0,0,4294903700,2852,0.93,0.12,0.13,4.73,12.56,-22.11,6.59,-77.73,0.61,2.47,-6.54,0.85,-0.74,Left Fall while Sitting
21:36.1,360,437,655.5,672,354,1.89,529.15,1.73,0,0,704,0,0,0,4294875028,3556,1.38,0.22,-0.15,-3.92,4.71,-1.65,8.48,-77.52,0.2,2.81,-6.64,0.53,-0.41,Left Fall while Sitting
21:36.2,615,472,708,672,355,1.88,531.44,1.74,0,0,705,0,0,0,4294847765,4261,0.98,0.14,0.13,3.23,6.61,-6.67,7.25,-77.44,0.66,3.37,-7.37,0.93,0.14,Left Fall while Sitting
21:36.3,735,516,774,735,354,1.89,529.15,1.73,0,0,708,0,0,0,4294824741,4969,0.99,0.15,0.11,0.24,-5.63,-5.79,8.01,-77.91,0.76,2.43,-7.98,1.05,-0.78,Left Fall while Sitting
21:36.4,738,548,822,738,353,1.9,526.87,1.73,0,0,711,0,0,0,4294805974,5680,0.97,0.16,0.09,12.15,-2.12,-16.31,8.89,-77.6,2.3,1.93,-9.86,2.56,-1.25,Left Fall while Sitting
21:36.5,378,526,789,738,351,1.91,522.32,1.72,0,0,707,0,0,0,4294781535,6387,1,0.25,0.09,0.58,0.14,-21.86,13.38,-73.48,2.44,1.7,-12.47,2.88,-1.3,Left Fall while Sitting
21:36.7,227,493,739.5,738,350,1.92,520.06,1.71,20724.15,353,711,20723.81,709,429476288,0,0,0.97,0.26,0.11,3.59,3.22,-20.96,14.45,-72,2.96,1.86,-14.97,3.41,-1.1,Left Fall while Sitting
21:36.8,352,479,718.5,738,348,1.94,515.56,1.7,20724.15,353,712,20723.81,709,429476288,4294949952,712,0.92,0.31,0.1,-2.76,-7.4,-17.59,18.06,-68.88,2.68,0.66,-17.11,3.29,-2.12,Left Fall while Sitting
21:36.9,426,474,711,738,348,1.94,515.56,1.7,20724.15,353,710,20723.81,709,429476288,4294929764,1422,0.89,0.36,0.1,4.18,-7.27,-20.29,21.25,-65.76,3.27,-0.51,-19.56,3.99,-3.12,Left Fall while Sitting
21:37.1,557,481,721.5,738,347,1.95,513.31,1.7,20724.15,353,714,20723.81,709,429476288,4294915272,2136,0.94,0.39,0.07,5.83,-2.74,-22,21.93,-65.54,4.08,-1.11,-22.26,4.8,-3.69,Left Fall while Sitting
21:37.2,794,505,757.5,794,347,1.95,513.31,1.7,20724.15,353,707,20723.81,709,429476288,4294890833,2843,0.91,0.45,-0.03,-2.27,-0.64,-16.36,25.61,-62.17,3.87,-1.45,-24.24,4.74,-3.87,Left Fall while Sitting
21:37.3,645,515,772.5,794,348,1.94,515.56,1.7,20724.15,353,709,20723.81,709,429476288,4294869226,3552,0.86,0.44,0.04,-5.89,4.34,-11.88,26.55,-61.15,3.19,-1.15,-25.64,4.12,-3.55,Left Fall while Sitting
21:37.4,487,513,769.5,794,347,1.95,513.31,1.7,20724.15,353,708,20723.81,709,429476288,4294846202,4260,0.89,0.48,0.05,-6.29,-0.05,-11.72,27.62,-60.07,2.46,-1.41,-27.03,3.47,-3.76,Left Fall while Sitting
21:37.6,622,520,780,794,347,1.95,513.31,1.7,20724.15,353,708,20723.81,709,429476288,4294823178,4968,0.87,0.47,0.08,-0.52,-10.49,-11.35,27.67,-59.68,2.47,-3,-28.37,3.48,-5.26,Left Fall while Sitting
21:37.7,485,518,777,794,347,1.95,513.31,1.7,20724.15,353,707,20723.81,709,429476288,4294798739,5675,0.89,0.52,0.03,6.33,-4.56,-13.96,29.5,-58.27,3.34,-3.83,-30.05,4.39,-6.01,Left Fall while Sitting
21:37.8,370,509,763.5,794,346,1.96,511.08,1.69,20724.15,353,708,20723.81,709,429476288,4294775715,6383,0.85,0.54,0.04,-9.16,11.27,-18.31,31.85,-55.88,2.25,-2.65,-32.27,3.43,-4.78,Left Fall while Sitting
21:37.9,272,497,745.5,794,347,1.95,513.31,1.7,20724.05,347,707,20723.78,709,429475136,0,0,0.81,0.54,0.05,0.89,-8.11,-15.28,33.13,-54.52,2.43,-3.91,-34.08,3.66,-5.94,Left Fall while Sitting
21:38.1,356,490,735,794,348,1.94,515.56,1.7,20724.05,347,708,20723.78,709,429475136,4294944272,708,0.68,0.63,0.04,-1.32,7.07,-15.47,42.24,-45.47,2.33,-3.27,-35.95,3.93,-4.96,Left Fall while Sitting
21:38.2,281,480,720,794,347,1.95,513.31,1.7,20724.05,347,710,20723.78,709,429475136,4294924084,1418,0.75,0.6,0.02,-5.52,-5.34,-13.32,37.9,-49.92,1.7,-4.2,-37.54,3.15,-6.03,Left Fall while Sitting
21:38.3,383,475,712.5,794,348,1.94,515.56,1.7,20724.05,347,707,20723.78,709,429475136,4294899645,2125,0.77,0.65,0.06,-5.71,-4.91,-12.61,39.52,-48.15,1.05,-5.08,-39.04,2.59,-6.8,Left Fall while Sitting
21:38.4,473,475,712.5,794,349,1.93,517.8,1.71,20724.05,347,710,20723.78,709,429475136,4294879457,2835,0.75,0.65,0.04,-4.46,-3.75,-13.01,40.16,-47.58,0.56,-5.81,-40.59,2.14,-7.48,Left Fall while Sitting
21:38.6,506,477,715.5,794,349,1.93,517.8,1.71,20724.05,347,708,20723.78,709,429475136,4294856433,3543,0.75,0.67,0.08,10.26,0.03,-17.76,41.14,-46.38,1.93,-6.06,-42.74,3.5,-7.67,Left Fall while Sitting
21:38.7,631,483,724.5,794,349,1.93,517.8,1.71,20724.05,347,706,20723.78,709,429475136,4294830581,4249,0.71,0.7,-0.02,13.41,5.18,-12.27,44.11,-43.69,3.7,-5.66,-44.2,5.32,-7.18,Left Fall while Sitting
21:38.8,986,502,753,986,350,1.92,520.06,1.71,20724.05,347,711,20723.78,709,429475136,4294811814,4960,0.68,0.7,-0.05,-4.44,2.3,-6.45,45.11,-42.59,3.21,-5.62,-44.92,4.89,-7.1,Left Fall while Sitting
21:39.0,543,504,756,986,349,1.93,517.8,1.71,20724.05,347,707,20723.78,709,429475136,4294787375,5667,0.69,0.73,0.01,-6.35,-0.84,-2.98,46.24,-41.6,2.48,-5.98,-45.2,4.23,-7.4,Left Fall while Sitting
21:39.1,433,501,751.5,986,348,1.94,515.56,1.7,20724.05,347,712,20723.78,709,429475136,4294770031,6379,0.67,0.7,0.02,4.19,-0.3,-4.25,45.8,-42.02,3.08,-6.27,-45.64,4.78,-7.7,Left Fall while Sitting
21:39.2,328,495,742.5,986,348,1.94,515.56,1.7,20724.07,348,709,20723.78,708,429474848,0,0,0.7,0.72,0.01,13.73,0.08,-9.21,45.3,-42.53,4.86,-6.51,-46.69,6.48,-7.95,Left Fall while Sitting
21:39.3,328,489,733.5,986,346,1.96,511.08,1.69,20724.07,348,706,20723.78,708,429474848,4294941444,706,0.69,0.77,-0.06,16.63,3.65,-12.31,47.43,-40.25,7.04,-6.3,-48.15,8.66,-7.66,Left Fall while Sitting
21:39.5,720,497,745.5,986,345,1.97,508.85,1.69,20724.07,348,704,20723.78,708,429474848,4294912772,1410,0.63,0.74,-0.11,13.27,0.89,-7.96,48.35,-38.71,8.8,-6.44,-49.06,10.38,-7.73,Left Fall while Sitting
21:39.6,334,492,738,986,345,1.97,508.85,1.69,20724.07,348,708,20723.78,708,429474848,4294889748,2118,0.62,0.74,-0.11,3.66,1.64,-9.17,49.07,-38.05,9.34,-6.49,-50.13,10.93,-7.75,Left Fall while Sitting
21:39.7,374,488,732,986,345,1.97,508.85,1.69,20724.07,348,710,20723.78,708,429474848,4294869560,2828,0.59,0.79,-0.14,-2.37,0.93,-4.21,52.05,-34.64,9.11,-6.62,-50.56,10.82,-7.74,Left Fall while Sitting
21:39.8,352,484,726,986,344,1.97,506.63,1.68,20724.07,348,712,20723.78,708,429474848,4294852216,3540,0.61,0.76,-0.13,-10.78,3.63,9.82,50.29,-36.56,7.81,-6.42,-49.21,9.51,-7.62,Left Fall while Sitting
21:40.0,429,483,724.5,986,344,1.97,506.63,1.68,20724.07,348,709,20723.78,708,429474848,4294830609,4249,0.64,0.75,-0.08,-8.65,3.44,4.22,48.58,-38.89,6.8,-6.24,-48.59,8.47,-7.54,Left Fall while Sitting
21:40.1,363,479,718.5,986,343,1.98,504.41,1.68,20724.07,348,717,20723.78,708,429474848,4294820410,4966,0.69,0.77,-0.04,-1.52,-0.37,3.79,47.36,-40.38,6.68,-6.54,-48.01,8.3,-7.89,Left Fall while Sitting
21:40.2,441,478,717,986,343,1.98,504.41,1.68,20724.07,348,713,20723.78,708,429474848,4294804491,5679,0.67,0.74,-0.09,8.11,3.2,-3.13,47.04,-40.37,7.78,-6.38,-48.3,9.35,-7.74,Left Fall while Sitting
21:40.3,456,478,717,986,344,1.97,506.63,1.68,20724.07,348,713,20723.78,708,429474848,4294788572,6392,0.67,0.76,-0.13,-0.24,-0.49,-0.41,47.17,-39.79,7.82,-6.7,-48.25,9.39,-8.02,Left Fall while Sitting
21:40.5,459,477,715.5,986,343,1.98,504.41,1.68,20724,344,712,20723.83,710,429477120,0,0,0.66,0.74,-0.08,-5.25,-1.15,-0.38,47.64,-39.78,7.23,-7.09,-48.2,8.85,-8.4,Left Fall while Sitting
21:40.6,435,476,714,986,342,1.99,502.2,1.67,20724,344,711,20723.83,710,429477120,4294948529,711,0.65,0.74,-0.08,-4.12,2.1,3.09,47.65,-39.79,6.78,-7.08,-47.71,8.41,-8.39,Left Fall while Sitting
21:40.7,455,476,714,986,343,1.98,504.41,1.68,20724,344,705,20723.83,710,429477120,4294921266,1416,0.66,0.73,-0.06,-7.65,1.89,7.47,47.29,-40.33,5.88,-7.09,-46.67,7.54,-8.42,Left Fall while Sitting
21:40.9,524,477,715.5,986,343,1.98,504.41,1.68,20724,344,715,20723.83,710,429477120,4294908203,2131,0.72,0.71,-0.05,-0.39,4.27,2.52,44.08,-43.62,5.91,-6.81,-46.25,7.43,-8.28,Left Fall while Sitting
21:41.0,413,475,712.5,986,342,1.99,502.2,1.67,20724,344,709,20723.83,710,429477120,4294886596,2840,0.69,0.73,-0.07,-0.47,-0.05,-3.58,45.91,-41.64,5.92,-7.07,-46.6,7.52,-8.45,Left Fall while Sitting
21:41.1,447,475,712.5,986,342,1.99,502.2,1.67,20724,344,716,20723.83,710,429477120,4294874964,3556,0.66,0.73,-0.08,-1.11,0.28,1.01,47.36,-40.08,5.85,-7.28,-46.38,7.51,-8.6,Left Fall while Sitting
21:41.2,806,482,723,986,339,2.02,495.61,1.66,20724,344,715,20723.83,710,429477120,4294861901,4271,0.67,0.7,-0.06,-0.89,-0.3,6.92,45.37,-42.22,5.81,-7.57,-45.4,7.39,-8.96,Left Fall while Sitting
21:41.4,332,479,718.5,986,337,2.04,491.25,1.65,20724,344,710,20723.83,710,429477120,4294841713,4981,0.71,0.7,-0.1,-0.6,-2.17,8.35,43.86,-43.4,5.8,-8.1,-44.24,7.32,-9.51,Left Fall while Sitting
21:41.5,574,481,721.5,986,336,2.04,489.08,1.64,20724,344,708,20723.83,710,429477120,4294818689,5689,0.73,0.68,-0.09,-8.69,1.76,11.57,42.11,-45.26,4.77,-8.13,-42.67,6.26,-9.62,Left Fall while Sitting
21:41.6,579,483,724.5,986,333,2.07,482.61,1.63,20724,344,716,20723.83,710,429477120,4294807057,6405,0.73,0.67,-0.08,-7.38,1.93,10.58,41.48,-45.99,3.9,-8.14,-41.23,5.41,-9.66,Left Fall while Sitting
21:41.7,531,484,726,986,331,2.09,478.32,1.62,20723.91,338,710,20723.87,711,429478688,0,0,0.77,0.65,-0.06,-8.97,5.95,14.72,39.89,-47.76,2.85,-7.65,-39.29,4.33,-9.25,Left Fall while Sitting
21:41.9,232,479,718.5,986,330,2.1,476.19,1.61,20723.91,338,717,20723.87,711,429478688,4294957097,717,0.78,0.62,-0.07,-4.9,0.37,15.26,38,-49.57,2.3,-7.85,-37.27,3.73,-9.52,Left Fall while Sitting
21:42.0,599,481,721.5,986,329,2.11,474.06,1.61,20723.91,338,716,20723.87,711,429478688,4294945465,1433,0.81,0.59,-0.05,-9.59,7.74,28.13,35.58,-52.1,1.16,-7.13,-33.6,2.53,-8.92,Left Fall while Sitting
21:42.1,995,491,736.5,995,329,2.11,474.06,1.61,20723.91,338,712,20723.87,711,429478688,4294928121,2145,0.79,0.48,-0.06,-30.02,-1.61,53.98,30.71,-56.87,-2.58,-7.58,-26.64,-1.25,-9.56,Left Fall while Sitting
21:42.2,793,497,745.5,995,329,2.11,474.06,1.61,20723.91,338,720,20723.87,711,429478688,4294922233,2865,0.96,0.36,0.05,-7.26,-2.27,47.13,19.89,-67.76,-3.44,-8.13,-20.51,-2.51,-10.52,Left Fall while Sitting
21:42.4,854,503,754.5,995,329,2.11,474.06,1.61,20723.91,338,713,20723.87,711,429478688,4294906314,3578,1,0.29,0.06,-11.6,2.99,32.64,15.84,-71.66,-4.84,-8.01,-16.26,-4.02,-10.55,Left Fall while Sitting
21:42.5,579,505,757.5,995,329,2.11,474.06,1.61,20723.91,338,711,20723.87,711,429478688,4294887547,4289,1.05,0.2,0.02,-2.98,-9.21,25.58,10.11,-77.67,-5.15,-9.43,-12.91,-4.54,-12.16,Left Fall while Sitting
21:42.6,374,502,753,995,330,2.1,476.19,1.61,20723.91,338,712,20723.87,711,429478688,4294870203,5001,1.04,0.18,0.02,-6.71,0.21,19.21,9.05,-78.71,-5.94,-9.66,-10.35,-5.34,-12.42,Left Fall while Sitting
21:42.8,324,499,748.5,995,330,2.1,476.19,1.61,20723.91,338,713,20723.87,711,429478688,4294854284,5714,0.96,0.1,0.04,-22.52,16.46,38.11,5.23,-82.04,-8.73,-7.82,-5.41,-8.17,-10.79,Left Fall while Sitting
21:42.9,415,498,747,995,331,2.09,478.32,1.62,20723.91,338,713,20723.87,711,429478688,4294838365,6427,1.05,0,-0.01,-23.19,-6.88,34.35,-0.43,-87.71,-11.6,-8.95,-0.95,-11.16,-12.1,Left Fall while Sitting
21:43.0,596,499,748.5,995,332,2.08,480.46,1.62,20723.77,329,715,20723.96,714,429482528,0,0,1.09,-0.06,0.05,-27.59,-5.14,19.63,-3.75,-84.41,-15.01,-9.85,1.63,-14.56,-12.83,Left Fall while Sitting
21:43.1,547,500,750,995,333,2.07,482.61,1.63,20723.77,329,716,20723.96,714,429482528,4294955664,716,0.96,-0.1,0.08,-15.7,16.53,13.54,-6.72,-80.52,-16.93,-8,3.45,-16.52,-10.91,Left Fall while Sitting
21:43.3,586,501,751.5,995,334,2.06,484.76,1.63,20723.77,329,711,20723.96,714,429482528,4294936897,1427,0.98,-0.11,-0.02,-12.54,-8.1,1.53,-7.01,-81.88,-18.46,-9.3,3.74,-18.01,-12.2,Left Fall while Sitting
21:43.4,481,501,751.5,995,335,2.05,486.92,1.64,20723.77,329,713,20723.96,714,429482528,4294920978,2140,0.97,-0.14,0.02,-0.96,-16.99,3.95,-8.59,-80.28,-18.52,-11.73,4.35,-18.12,-14.47,Left Fall while Sitting
21:43.5,628,503,754.5,995,336,2.04,489.08,1.64,20723.77,329,712,20723.96,714,429482528,4294903634,2852,1.09,-0.15,-0.03,6.37,0.91,-2.12,-8.23,-80.56,-17.64,-11.87,4.18,-17.26,-14.61,Left Fall while Sitting
21:43.6,705,506,759,995,337,2.04,491.25,1.65,20723.77,329,713,20723.96,714,429482528,4294887715,3565,1,-0.13,-0.05,10.11,33.4,-11.24,-8.18,-80.31,-16.27,-7.85,2.84,-15.95,-10.75,Left Fall while Sitting
21:43.8,588,507,760.5,995,337,2.04,491.25,1.65,20723.77,329,714,20723.96,714,429482528,4294873223,4279,1,-0.08,0.05,-12.73,5.31,-13.96,-5.33,-82.97,-17.83,-7.43,1.16,-17.33,-10.45,Left Fall while Sitting
21:43.9,561,508,762,995,336,2.04,489.08,1.64,20723.77,329,705,20723.96,714,429482528,4294845960,4984,0.99,-0.06,0.17,-1.58,2.82,-3.11,-3.89,-78.03,-17.96,-7.32,0.86,-17.4,-10.15,Left Fall while Sitting
21:44.0,361,506,759,995,336,2.04,489.08,1.64,20723.77,329,709,20723.96,714,429482528,4294824353,5693,1.02,-0.08,0.08,5.59,1.32,-3.49,-5.27,-82.06,-17.17,-7.41,0.52,-16.69,-10.39,Left Fall while Sitting
21:44.2,413,505,757.5,995,335,2.05,486.92,1.64,20723.77,329,709,20723.96,714,429482528,4294802746,6402,1,-0.06,0.07,0.86,-7.27,-2.98,-3.78,-83.31,-16.99,-8.59,0.24,-16.46,-11.58,Left Fall while Sitting
21:44.3,457,504,756,995,335,2.05,486.92,1.64,20723.85,335,715,20723.88,711,429478976,0,0,0.98,-0.07,0.02,-1.59,-13.23,0.36,-4.86,-84.02,-17.12,-10.49,0.38,-16.63,-13.43,Left Fall while Sitting
21:44.4,437,503,754.5,995,335,2.05,486.92,1.64,20723.85,335,711,20723.88,711,429478976,4294948529,711,1.02,-0.07,0.01,0.58,0.76,0.58,-4.35,-84.61,-16.97,-10.65,0.56,-16.47,-13.61,Left Fall while Sitting
21:44.5,442,502,753,995,333,2.07,482.61,1.63,20723.85,335,711,20723.88,711,429478976,4294929762,1422,1.04,-0.1,0.04,-4.42,-3.24,-3.11,-5.87,-82.74,-17.46,-11.31,0.26,-17,-14.17,Left Fall while Sitting
21:47.2,362,362,543,362,323,2.17,461.43,1.58,0,0,710,0,0,0,4294929764,1422,1,-0.05,0.16,-3.43,-6.13,-0.38,-3.15,-78.82,-1.05,-1.28,-0.16,-1.13,-4.38,Right Fall while Sitting
21:47.4,360,361,541.5,362,323,2.17,461.43,1.58,0,0,720,0,0,0,4294923876,2142,1.02,-0.06,0.12,2.88,4.31,-0.88,-3.67,-80.92,-0.62,-0.99,-0.17,-0.74,-4.19,Right Fall while Sitting
21:47.5,342,354,531,362,323,2.17,461.43,1.58,0,0,707,0,0,0,4294899437,2849,1,-0.03,0.1,-3.7,1.19,-2.52,-2.21,-82.74,-1.01,-1.09,-0.38,-1.05,-4.36,Right Fall while Sitting
21:47.6,354,354,531,362,323,2.17,461.43,1.58,0,0,712,0,0,0,4294882093,3561,0.99,-0.04,0.13,-4.94,-0.19,-0.95,-3,-80.59,-1.55,-1.36,-0.4,-1.61,-4.53,Right Fall while Sitting
21:47.7,316,346,519,362,323,2.17,461.43,1.58,0,0,712,0,0,0,4294864749,4273,1.01,-0.04,0.15,1.45,1.65,0.87,-2.99,-79.46,-1.3,-1.41,-0.2,-1.37,-4.53,Right Fall while Sitting
21:47.8,392,354,531,392,324,2.16,463.52,1.58,0,0,708,0,0,0,4294841725,4981,1.01,-0.03,0.12,3.46,5.32,-1.07,-2.28,-81.21,-0.8,-1,-0.23,-0.86,-4.21,Right Fall while Sitting
21:48.0,515,377,565.5,515,325,2.15,465.62,1.59,0,0,713,0,0,0,4294825806,5694,0.95,-0.05,0.13,-3.86,-5.17,5.33,-3.45,-79.91,-1.21,-1.89,0.53,-1.3,-5.01,Right Fall while Sitting
21:48.1,348,373,559.5,515,327,2.13,469.83,1.6,0,0,711,0,0,0,4294807039,6405,1.01,-0.08,0.14,-1.89,3.31,15.76,-4.84,-79.34,-1.38,-1.73,2.55,-1.52,-4.83,Right Fall while Sitting
21:48.2,192,353,529.5,515,328,2.12,471.94,1.6,20723.68,324,716,20723.89,712,429479552,0,0,0.98,-0.12,0.11,-2.15,13.29,25.11,-7.58,-79.04,-1.58,-0.31,5.78,-1.82,-3.46,Right Fall while Sitting
21:48.3,39,322,483,515,330,2.1,476.19,1.61,20723.68,324,711,20723.89,712,429479552,4294948529,711,0.99,-0.17,0.13,-8.91,-4.64,18.98,-10.14,-76.43,-2.64,-1.16,8.3,-2.94,-4.17,Right Fall while Sitting
21:48.5,60,298,447,515,331,2.09,478.32,1.62,20723.68,324,709,20723.89,712,429479552,4294926922,1420,0.97,-0.19,0.15,-3.85,10.36,27.66,-11.65,-74.34,-3.05,-0.1,11.91,-3.4,-3.07,Right Fall while Sitting
21:48.6,69,279,418.5,515,334,2.06,484.76,1.63,20723.68,324,706,20723.89,712,429479552,4294901070,2126,0.94,-0.29,0.18,1.15,2.63,25,-17.56,-68.2,-2.84,-0.02,15.18,-3.43,-2.74,Right Fall while Sitting
21:48.7,336,283,424.5,515,334,2.06,484.76,1.63,20723.68,324,709,20723.89,712,429479552,4294879463,2835,0.95,-0.33,0.16,-1.8,5.61,20.58,-19.65,-67.08,-2.99,0.44,17.9,-3.66,-2.26,Right Fall while Sitting
21:48.8,608,306,459,608,336,2.04,489.08,1.64,20723.68,324,714,20723.89,712,429479552,4294864971,3549,0.92,-0.38,0.16,0.06,4.8,23.45,-22.93,-64.07,-2.92,0.8,20.98,-3.72,-1.8,Right Fall while Sitting
21:49.0,669,330,495,669,337,2.04,491.25,1.65,20723.68,324,705,20723.89,712,429479552,4294837708,4254,0.88,-0.42,0.19,2,7.92,29.9,-25.64,-60.65,-2.59,1.55,24.87,-3.51,-0.94,Right Fall while Sitting
21:49.1,761,357,535.5,761,337,2.04,491.25,1.65,20723.68,324,710,20723.89,712,429479552,4294817520,4964,0.85,-0.51,0.18,0.23,7.56,34.93,-30.95,-55.96,-2.49,2.25,29.41,-3.63,-0.07,Right Fall while Sitting
21:49.2,650,374,561,761,339,2.02,495.61,1.66,20723.68,324,711,20723.89,712,429479552,4294798753,5675,0.8,-0.55,0.21,-3.68,-2.72,34.3,-34.29,-52.08,-2.89,1.66,33.87,-4.14,-0.49,Right Fall while Sitting
21:49.4,655,390,585,761,341,2,500,1.67,20723.68,324,707,20723.89,712,429479552,4294774314,6382,0.82,-0.63,0.24,0.23,3.16,26.06,-37,-48.95,-2.79,1.8,37.28,-4.15,-0.23,Right Fall while Sitting
21:49.5,770,410,615,770,340,2.01,497.8,1.66,20723.86,335,713,20723.8,709,429475840,0,0,0.77,-0.66,0.21,5.81,1.07,18.08,-40.45,-46.22,-1.99,1.69,39.64,-3.53,-0.23,Right Fall while Sitting
21:49.6,796,429,643.5,796,340,2.01,497.8,1.66,20723.86,335,713,20723.8,709,429475840,4294951377,713,0.74,-0.68,0.21,0.11,-1.67,11.47,-41.91,-44.67,-1.91,1.22,41.19,-3.51,-0.62,Right Fall while Sitting
21:49.7,987,456,684,987,341,2,500,1.67,20723.86,335,705,20723.8,709,429475840,4294924114,1418,0.71,-0.7,0.23,-2.08,-0.4,8.44,-43.56,-42.46,-2.1,0.92,42.36,-3.76,-0.82,Right Fall while Sitting
21:49.9,734,468,702,987,340,2.01,497.8,1.66,20723.86,335,710,20723.8,709,429475840,4294903926,2128,0.72,-0.71,0.21,1.94,2.5,3.18,-43.91,-42.82,-1.78,0.98,42.87,-3.47,-0.77,Right Fall while Sitting
21:50.0,668,477,715.5,987,339,2.02,495.61,1.66,20723.86,335,710,20723.8,709,429475840,4294883738,2838,0.73,-0.71,0.21,-2.4,-1.69,-3.15,-43.79,-42.95,-2.01,0.51,42.57,-3.68,-1.22,Right Fall while Sitting
21:50.1,649,484,726,987,339,2.02,495.61,1.66,20723.86,335,710,20723.8,709,429475840,4294863550,3548,0.77,-0.69,0.22,-1.65,-4.07,-14.15,-41.51,-45.03,-2.15,-0.26,40.87,-3.73,-2.05,Right Fall while Sitting
21:50.2,587,488,732,987,337,2.04,491.25,1.65,20723.86,335,724,20723.8,709,429475840,4294863438,4272,0.72,-0.66,0.2,-1.77,-1.37,-17.81,-41.99,-44.78,-2.31,-0.69,38.7,-3.89,-2.45,Right Fall while Sitting
21:50.4,624,493,739.5,987,336,2.04,489.08,1.64,20723.86,335,709,20723.8,709,429475840,4294841831,4981,0.76,-0.64,0.18,-7.28,-2.44,-16.95,-40.02,-47.13,-3.17,-1.26,36.63,-4.64,-3.09,Right Fall while Sitting
21:50.5,519,494,741,987,335,2.05,486.92,1.64,20723.86,335,714,20723.8,709,429475840,4294827339,5695,0.77,-0.61,0.19,-10.12,-5.61,-16,-37.99,-48.87,-4.38,-2.22,34.69,-5.73,-4.09,Right Fall while Sitting
21:50.6,539,496,744,987,333,2.07,482.61,1.63,20723.86,335,713,20723.8,709,429475840,4294811420,6408,0.79,-0.57,0.17,-8.77,-5.05,-15.15,-35.98,-51.19,-5.43,-3.13,32.86,-6.65,-5.05,Right Fall while Sitting
21:50.8,597,499,748.5,987,333,2.07,482.61,1.63,20723.89,337,706,20723.87,711,429478560,0,0,0.83,-0.57,0.16,-10.34,0.47,-12.43,-34.85,-52.7,-6.66,-3.32,31.4,-7.78,-5.29,Right Fall while Sitting
21:50.9,565,502,753,987,331,2.09,478.32,1.62,20723.89,337,712,20723.87,711,429478560,4294949952,712,0.85,-0.54,0.14,-6.11,1.66,-9.6,-32.8,-54.97,-7.37,-3.36,30.27,-8.38,-5.42,Right Fall while Sitting
21:51.0,635,506,759,987,330,2.1,476.19,1.61,20723.89,337,711,20723.87,711,429478560,4294931185,1423,0.83,-0.57,0.14,-6.12,5.77,-5.34,-34.67,-53.11,-8.07,-2.88,29.7,-9.14,-4.89,Right Fall while Sitting
21:51.1,595,509,763.5,987,329,2.11,474.06,1.61,20723.89,337,709,20723.87,711,429478560,4294909578,2132,0.83,-0.54,0.16,-3.81,-2,-3.05,-33.2,-54.3,-8.49,-3.39,29.41,-9.47,-5.43,Right Fall while Sitting
21:51.3,539,510,765,987,328,2.12,471.94,1.6,20723.89,337,713,20723.87,711,429478560,4294893659,2845,0.85,-0.56,0.12,-3.07,-0.94,0.21,-33.78,-54.35,-8.8,-3.76,29.54,-9.8,-5.79,Right Fall while Sitting
21:51.4,764,517,775.5,987,327,2.13,469.83,1.6,20723.89,337,712,20723.87,711,429478560,4294876315,3557,0.86,-0.56,0.11,-7.6,-0.66,-2.93,-33.56,-54.69,-9.71,-4.1,29.26,-10.66,-6.13,Right Fall while Sitting
21:51.5,571,519,778.5,987,327,2.13,469.83,1.6,20723.89,337,705,20723.87,711,429478560,4294849052,4262,0.85,-0.54,0.1,-5.94,-5.61,-2.15,-32.63,-55.74,-10.39,-5.07,29.09,-11.28,-7.1,Right Fall while Sitting
21:51.6,520,519,778.5,987,325,2.15,465.62,1.59,20723.89,337,713,20723.87,711,429478560,4294833133,4975,0.88,-0.55,0.11,-0.95,1.95,-2.2,-32.56,-55.71,-10.44,-5.08,28.91,-11.32,-7.1,Right Fall while Sitting
21:51.8,550,519,778.5,987,325,2.15,465.62,1.59,20723.89,337,707,20723.87,711,429478560,4294808694,5682,0.88,-0.54,0.09,-1.15,-4.02,-4.89,-31.97,-56.54,-10.51,-5.84,28.39,-11.37,-7.87,Right Fall while Sitting
21:51.9,393,516,774,987,325,2.15,465.62,1.59,20723.89,337,712,20723.87,711,429478560,4294791350,6394,0.87,-0.54,0.09,-3.62,-0.73,-6.53,-32.1,-56.35,-10.91,-6.19,27.65,-11.75,-8.2,Right Fall while Sitting
21:52.0,238,509,763.5,987,324,2.16,463.52,1.58,20723.72,327,711,20723.83,710,429477248,0,0,0.88,-0.5,0.1,-5.01,-0.5,-8.06,-30.15,-58.27,-11.47,-6.51,26.74,-12.21,-8.58,Right Fall while Sitting
