Datetime, ECGRaw , AvgECG , ampECG , MAX , GSRRaw , Resistance , GSR(kohm) , SCL , GSRRMS , GSRMAV , EMGRaw , EMGRMS , EMGMAV , EMGVAR , EMGSSI , IEMG , AccX , AccY, AccZ , GyroX , GyroY , GyroZ , Aroll , Apitch , Groll , Gpitch, Gyaw , Combroll , Combpitch,Features
03:07.9,530,530,795,530,352,1.91,524.59,1.72,0,0,198,0,0,0,4294915428,398,0.99,-0.04,0.11,-7.67,-7.08,-4.45,-2.88,-81.46,-0.58,-1.27,-0.88,-0.67,-4.48,Standing
03:08.0,413,471,706.5,530,352,1.91,524.59,1.72,0,0,199,0,0,0,4294889493,597,1,-0.02,0.11,5.59,7.53,-4.86,-1.85,-81.85,0.18,-0.58,-1.39,0.1,-3.83,Standing
03:08.1,452,465,697.5,530,352,1.91,524.59,1.72,0,0,199,0,0,0,4294863558,796,1.01,0,0.14,-8.02,-3.94,-0.89,-0.61,-80.36,-0.74,-1.31,-1.4,-0.73,-4.47,Standing
03:08.3,570,491,736.5,570,351,1.91,522.32,1.72,0,0,200,0,0,0,4294838022,996,1,-0.01,0.15,-4.76,0.19,-3.34,-1.04,-79.85,-1.26,-1.54,-1.72,-1.25,-4.67,Standing
03:08.4,668,526,789,668,351,1.91,522.32,1.72,0,0,202,0,0,0,4294813290,1198,1,-0.02,0.16,-3.53,1.27,-2.02,-1.58,-79.42,-1.62,-1.63,-1.87,-1.62,-4.74,Standing
03:08.5,524,526,789,668,352,1.91,524.59,1.72,0,0,201,0,0,0,4294788155,1399,0.99,-0.02,0.19,-3.44,2.42,-1.63,-1.75,-77.39,-1.98,-1.57,-1.97,-1.97,-4.61,Standing
03:08.6,451,515,772.5,668,351,1.91,522.32,1.72,0,0,201,0,0,0,4294763020,1600,0.97,-0.02,0.17,-2.66,-2.21,-2.34,-1.8,-78.22,-2.24,-2.1,-2.16,-2.22,-5.14,Standing
03:08.8,431,504,756,668,351,1.91,522.32,1.72,0,0,201,0,0,0,4294737885,1801,0.98,-0.01,0.16,-3.53,0.27,-0.56,-0.97,-79.09,-2.61,-2.31,-2.13,-2.54,-5.38,Standing
03:08.9,516,506,759,668,351,1.91,522.32,1.72,20724.12,351,201,20723.69,200,429471264,0,0,1,-0.01,0.16,3.98,3.89,-0.18,-0.9,-79.38,-2.04,-2.07,-2.06,-1.99,-5.16,Standing
03:09.0,639,519,778.5,668,351,1.91,522.32,1.72,20724.12,351,203,20723.69,200,429471264,4294942969,203,1.01,0,0.14,1.31,-1.53,-1.02,-0.62,-80.46,-1.8,-2.52,-2.09,-1.76,-5.63,Standing
03:09.1,462,514,771,668,351,1.91,522.32,1.72,20724.12,351,204,20723.69,200,429471264,4294919049,407,1.01,0.01,0.11,-0.16,-1.7,-1.65,0.1,-82.09,-1.75,-2.99,-2.2,-1.68,-6.15,Standing
03:09.3,498,512,768,668,351,1.91,522.32,1.72,20724.12,351,204,20723.69,200,429471264,4294895129,611,1,-0.01,0.15,-1.6,0.73,-1.21,-1.33,-79.89,-1.89,-3.15,-2.25,-1.86,-6.22,Standing
03:09.4,592,518,777,668,351,1.91,522.32,1.72,20724.12,351,204,20723.69,200,429471264,4294871209,815,1,0,0.17,1.26,2.66,0.05,-0.5,-79.02,-1.65,-3.07,-2.14,-1.61,-6.1,Standing
03:09.5,421,511,766.5,668,352,1.91,524.59,1.72,20724.12,351,201,20723.69,200,429471264,4294846074,1016,1.01,-0.01,0.13,-2.05,-4.39,-0.83,-0.99,-81.23,-1.84,-3.87,-2.15,-1.81,-6.97,Standing
03:09.6,542,513,769.5,668,351,1.91,522.32,1.72,20724.12,351,204,20723.69,200,429471264,4294822154,1220,1,0,0.12,-2.84,2.34,-2.79,-0.61,-81.76,-2.13,-3.83,-2.4,-2.07,-6.94,Standing
03:09.8,616,520,780,668,352,1.91,524.59,1.72,20724.12,351,203,20723.69,200,429471264,4294797827,1423,0.97,0,0.14,-2.13,0.15,2.76,-0.72,-80.34,-2.33,-4.06,-1.95,-2.27,-7.11,Standing
03:09.9,259,504,756,668,351,1.91,522.32,1.72,20724.12,351,202,20723.69,200,429471264,4294773095,1625,0.98,-0.02,0.14,-2.57,4.17,7.52,-1.51,-80.14,-2.59,-3.79,-0.91,-2.54,-6.84,Standing
03:10.0,587,509,763.5,668,351,1.91,522.32,1.72,20724.12,351,203,20723.69,200,429471264,4294748768,1828,1.01,-0.04,0.12,-0.81,-1.78,0.25,-2.71,-81.29,-2.62,-4.27,-0.77,-2.62,-7.35,Standing
03:10.1,524,510,765,668,352,1.91,524.59,1.72,20724.12,351,201,20723.72,202,429472352,0,0,1.02,-0.03,0.1,1.14,3.72,-1.97,-2.2,-82.76,-2.41,-4.05,-0.92,-2.4,-7.2,Standing
03:10.3,389,504,756,668,352,1.91,524.59,1.72,20724.12,351,202,20723.72,202,429472352,4294942564,202,1.01,-0.02,0.11,-3.36,3.28,-2.89,-1.65,-82.26,-2.76,-3.89,-1.19,-2.72,-7.03,Standing
03:10.4,558,506,759,668,352,1.91,524.59,1.72,20724.12,351,205,20723.72,202,429472352,4294919053,407,1,-0.01,0.11,-2.63,0.15,-1.84,-1.37,-82.3,-3.02,-4.13,-1.32,-2.96,-7.25,Standing
03:10.5,559,509,763.5,668,352,1.91,524.59,1.72,20724.12,351,203,20723.72,202,429472352,4294894726,610,1.01,-0.01,0.11,-4.34,-1.88,-0.12,-1.36,-82.32,-3.5,-4.62,-1.24,-3.42,-7.73,Standing
03:10.7,453,506,759,668,352,1.91,524.59,1.72,20724.12,351,204,20723.72,202,429472352,4294870806,814,1.01,-0.02,0.13,-3.64,-0.93,-1.85,-1.64,-80.95,-3.9,-4.99,-1.37,-3.8,-8.03,Standing
03:10.8,520,507,760.5,668,352,1.91,524.59,1.72,20724.12,351,206,20723.72,202,429472352,4294847706,1020,1,-0.02,0.11,-6.4,-0.55,-1.18,-1.86,-81.78,-4.64,-5.31,-1.42,-4.53,-8.37,Standing
03:10.9,490,506,759,668,352,1.91,524.59,1.72,20724.12,351,204,20723.72,202,429472352,4294823786,1224,1,-0.03,0.11,-1.2,1.69,-3.03,-2.06,-81.83,-4.72,-5.35,-1.7,-4.61,-8.41,Standing
03:11.0,469,505,757.5,668,352,1.91,524.59,1.72,20724.12,351,205,20723.72,202,429472352,4294800275,1429,1,-0.01,0.12,-4.59,-1.18,-0.97,-1.28,-81.6,-5.23,-5.76,-1.73,-5.07,-8.79,Standing
03:11.2,532,506,759,668,352,1.91,524.59,1.72,20724.12,351,204,20723.72,202,429472352,4294776355,1633,1.01,-0.03,0.13,-4.19,-4.63,1.5,-2.26,-81.12,-5.69,-6.6,-1.44,-5.55,-9.58,Standing
03:11.3,453,504,756,668,352,1.91,524.59,1.72,20724.12,351,204,20723.72,202,429472352,4294752435,1837,1.01,-0.01,0.09,0.15,2.58,-2.39,-1.27,-83.36,-5.6,-6.53,-1.64,-5.43,-9.6,Standing
03:11.4,535,505,757.5,668,352,1.91,524.59,1.72,20724.13,352,205,20723.73,204,429472896,0,0,1,-0.01,0.1,-1.76,2.69,-1.87,-1.19,-82.51,-5.75,-6.44,-1.77,-5.57,-9.48,Standing
03:11.5,624,509,763.5,668,351,1.91,522.32,1.72,20724.13,352,204,20723.73,204,429472896,4294943376,204,1.01,-0.02,0.09,-4.07,-2.14,-1.54,-1.92,-83.07,-6.2,-6.97,-1.87,-6.03,-10.01,Standing
03:11.7,438,506,759,668,352,1.91,524.59,1.72,20724.13,352,205,20723.73,204,429472896,4294919865,409,1,-0.02,0.1,-3.02,3.73,-2.45,-1.51,-82.57,-6.51,-6.75,-2.08,-6.31,-9.78,Standing
03:11.8,549,508,762,668,352,1.91,524.59,1.72,20724.13,352,206,20723.73,204,429472896,4294896765,615,0.99,-0.02,0.12,-4.94,-0.34,-0.27,-1.87,-81.19,-7.07,-7.05,-2.01,-6.86,-10.01,Standing
03:11.9,628,511,766.5,668,352,1.91,524.59,1.72,20724.13,352,205,20723.73,204,429472896,4294873254,820,1,-0.03,0.1,-2.85,2.09,0.47,-2.04,-82.29,-7.36,-7.03,-1.85,-7.15,-10.04,Standing
03:12.1,360,507,760.5,668,352,1.91,524.59,1.72,20724.13,352,206,20723.73,204,429472896,4294850154,1026,1.02,-0.03,0.13,-1.18,3.08,-0.69,-2.12,-81.22,-7.44,-6.9,-1.84,-7.22,-9.87,Standing
03:12.2,573,509,763.5,668,352,1.91,524.59,1.72,20724.13,352,206,20723.73,204,429472896,4294827054,1232,1.01,-0.02,0.12,0.74,-0.78,-1.82,-1.92,-81.79,-7.27,-7.25,-1.97,-7.06,-10.23,Standing
03:12.3,541,510,765,668,352,1.91,524.59,1.72,20724.13,352,206,20723.73,204,429472896,4294803954,1438,1.01,0,0.08,-0.69,-0.09,-3.64,-0.84,-84.02,-7.29,-7.51,-2.33,-7.03,-10.57,Standing
03:12.4,437,508,762,668,352,1.91,524.59,1.72,20724.13,352,206,20723.73,204,429472896,4294780854,1644,1.01,0,0.07,-0.65,1.21,-1.42,-0.54,-84.53,-7.3,-7.62,-2.42,-7.03,-10.69,Standing
03:12.6,634,511,766.5,668,352,1.91,524.59,1.72,20724.13,352,207,20723.73,204,429472896,4294758167,1851,1.02,0,0.07,-4.14,-0.91,-1.85,-0.79,-84.37,-7.75,-7.99,-2.55,-7.48,-11.04,Standing
03:12.7,476,510,765,668,353,1.9,526.87,1.73,20724.13,352,206,20723.74,205,429473504,0,0,1.02,0,0.07,-7.21,0.3,-3.27,-0.76,-84.33,-8.58,-8.2,-2.86,-8.27,-11.24,Standing
03:12.8,512,510,765,668,354,1.89,529.15,1.73,20724.13,352,207,20723.74,205,429473504,4294944609,207,1,-0.02,0.11,-6.27,1.09,-1.38,-1.72,-81.9,-9.3,-8.31,-2.93,-9,-11.26,Standing
03:12.9,360,506,759,668,353,1.9,526.87,1.73,20724.13,352,208,20723.74,205,429473504,4294922337,415,0.98,-0.02,0.11,-6.7,-2,0.75,-1.79,-81.86,-10.08,-8.82,-2.74,-9.75,-11.74,Standing
03:13.1,477,506,759,668,355,1.88,531.44,1.74,20724.13,352,207,20723.74,205,429473504,4294899650,622,1.01,-0.03,0.12,-0.18,-1.48,1.53,-2.12,-81.53,-10.03,-9.26,-2.44,-9.72,-12.15,Standing
03:13.2,507,506,759,668,355,1.88,531.44,1.74,20724.13,352,210,20723.74,205,429473504,4294878214,832,1.01,-0.01,0.1,4.19,5.9,-2.3,-1.3,-82.99,-9.43,-8.76,-2.64,-9.1,-11.73,Standing
03:13.3,580,507,760.5,668,355,1.88,531.44,1.74,20724.13,352,208,20723.74,205,429473504,4294855942,1040,1,-0.01,0.09,-0.95,-1.69,0.46,-1.38,-83.49,-9.48,-9.23,-2.48,-9.15,-12.2,Standing
03:13.4,421,506,759,668,356,1.87,533.73,1.74,20724.13,352,208,20723.74,205,429473504,4294833670,1248,1,-0.03,0.09,0.86,0.21,-0.64,-2.27,-83.02,-9.3,-9.46,-2.46,-9.01,-12.4,Standing
03:13.6,555,507,760.5,668,355,1.88,531.44,1.74,20724.13,352,209,20723.74,205,429473504,4294811815,1457,1.03,0,0.08,-0.56,-0.34,-0.13,-0.85,-84.04,-9.29,-9.76,-2.38,-8.96,-12.73,Standing
03:13.7,548,507,760.5,668,356,1.87,533.73,1.74,20724.13,352,208,20723.74,205,429473504,4294789543,1665,1.04,-0.01,0.07,-2.09,-0.69,-1.64,-1.14,-84.76,-9.49,-10.1,-2.48,-9.16,-13.09,Standing
03:13.8,402,505,757.5,668,357,1.87,536.04,1.74,20724.13,352,209,20723.74,205,429473504,4294767688,1874,1.04,0,0.06,-0.43,-3.85,-3.23,-0.74,-85.24,-9.47,-10.85,-2.8,-9.12,-13.82,Standing
03:14.0,651,508,762,668,356,1.87,533.73,1.74,20724.19,355,209,20723.77,208,429474592,0,0,1.03,-0.02,0.05,-5.69,-8.84,-4.34,-1.71,-85.44,-10.11,-12.2,-3.24,-9.78,-15.13,Standing
03:14.1,516,508,762,668,356,1.87,533.73,1.74,20724.19,355,208,20723.77,208,429474592,4294945024,208,1.01,-0.03,0.04,-4.4,-5.56,-2.33,-2.12,-85.58,-10.6,-13.17,-3.44,-10.27,-16.07,Standing
03:14.2,555,509,763.5,668,357,1.87,536.04,1.74,20724.19,355,208,20723.77,208,429474592,4294922752,416,1.03,-0.05,0.06,-0.53,7.34,-2.71,-3.21,-84.12,-10.6,-12.49,-3.68,-10.31,-15.36,Standing
03:14.3,647,512,768,668,356,1.87,533.73,1.74,20724.19,355,210,20723.77,208,429474592,4294901316,626,1.05,0.02,-0.03,4.57,3.15,-1.68,0.56,-86.54,-9.94,-12.35,-3.79,-9.52,-15.31,Standing
03:14.5,733,516,774,733,379,1.7,588.51,1.85,20724.19,355,817,20723.77,208,429474592,4294913445,1443,0.85,0.02,0.22,-9.7,10.89,-5.78,0.78,-74.09,-11.11,-11.22,-4.43,-10.63,-13.73,Standing
03:14.6,625,518,777,733,402,1.54,647.34,1.96,20724.19,355,652,20723.77,208,429474592,4294945333,2095,0.98,-0.01,0.08,-13.04,8.92,-4.56,-1.2,-83.49,-12.7,-10.33,-4.91,-12.24,-13.26,Standing
03:14.7,494,518,777,733,390,1.62,616.11,1.91,20724.19,355,613,20723.77,208,429474592,4294927886,2708,0.99,0.01,0.1,-1.44,13.76,-6.21,0.07,-82.64,-12.81,-8.84,-5.6,-12.3,-11.79,Standing
03:14.8,340,514,771,733,373,1.74,573.85,1.82,20724.19,355,312,20723.77,208,429474592,4294959694,3020,0.98,0.04,0.11,-8.25,-1.4,-8.76,1.6,-81.75,-13.8,-9.27,-6.62,-13.18,-12.17,Standing
03:15.0,489,514,771,733,359,1.85,540.66,1.75,20724.19,355,292,20723.77,208,429474592,12126,3312,0.98,0.06,0.15,3.67,6.66,-8.93,2.83,-79.22,-13.27,-8.68,-7.64,-12.62,-11.51,Standing
03:15.1,371,512,768,733,350,1.92,520.06,1.71,20724.19,355,288,20723.77,208,429474592,29534,3600,0.97,0.1,0.17,-0.53,10.07,1.94,5.45,-76.98,-13.26,-7.67,-7.3,-12.51,-10.44,Standing
03:15.2,383,509,763.5,733,343,1.98,504.41,1.68,59.75,366,287,68.09,388,4635,0,0,0.96,0.08,0.09,4.74,1.56,-0.79,4.08,-81.31,-12.6,-7.72,-7.3,-11.94,-10.67,Standing
03:15.4,487,509,763.5,733,337,2.04,491.25,1.65,59.75,366,290,68.09,388,4635,18564,290,0.98,0.04,0.11,-8.68,-1.62,3.12,1.89,-81.46,-13.61,-8.17,-6.81,-12.99,-11.1,Standing
03:15.5,521,509,763.5,733,334,2.06,484.76,1.63,59.75,366,357,68.09,388,4635,14941,647,1.02,0.04,0.12,-5.68,1.76,-1.64,1.8,-81.51,-14.25,-8.2,-6.92,-13.6,-11.13,Standing
03:15.6,492,509,763.5,733,333,2.07,482.61,1.63,59.75,366,647,68.09,388,4635,40334,1294,1.01,0.09,0.12,-12.54,-8.7,-7.85,4.23,-79.93,-15.74,-9.54,-7.8,-14.94,-12.35,Standing
03:15.7,421,507,760.5,733,331,2.09,478.32,1.62,59.75,366,664,68.09,388,4635,22478,1958,1,0.07,0.14,-7.11,-13.83,-2.52,3.65,-79.4,-16.56,-11.52,-8.02,-15.75,-14.23,Standing
03:15.8,513,508,762,733,331,2.09,478.32,1.62,59.75,366,687,68.09,388,4635,35695,2645,1.01,0.11,0.05,-1.82,-17.64,-12.99,5.42,-81.87,-16.72,-13.97,-9.54,-15.83,-16.69,Standing
03:16.0,655,510,765,733,332,2.08,480.46,1.62,59.75,366,723,68.09,388,4635,34136,3368,0.95,0.13,-0.01,-11.37,1.11,-0.47,7.35,-80.47,-18.07,-14.08,-9.51,-17.05,-16.74,Standing
03:16.1,507,510,765,733,333,2.07,482.61,1.63,59.75,366,703,68.09,388,4635,4057,4071,0.99,0.03,-0.02,-5.79,4.53,8.82,1.22,-86.14,-18.72,-13.77,-8.31,-17.92,-16.67,Standing
03:16.2,451,509,763.5,733,334,2.06,484.76,1.63,59.75,366,706,68.09,388,4635,4294945501,4777,1.06,0.04,-0.01,-9.63,-0.73,7.35,1.53,-86.26,-19.85,-14.11,-7.3,-19,-17,Standing
03:16.4,519,509,763.5,733,333,2.07,482.61,1.63,59.75,366,718,68.09,388,4635,4294936737,5495,1.11,0,0.01,-15.23,-15.79,3.66,-0.64,-87.97,-21.7,-16.35,-6.74,-20.86,-19.22,Standing
03:16.5,598,510,765,733,334,2.06,484.76,1.63,20723.82,333,722,20724.22,621,429493376,0,0,1.14,0.03,0.05,2.21,7.94,-16.62,0.84,-85.69,-21.35,-15.6,-8.73,-20.46,-18.41,Standing
03:16.6,442,509,763.5,733,334,2.06,484.76,1.63,20723.82,333,704,20724.22,621,429493376,4294938624,704,0.95,0.1,-0.05,19.14,14.11,-9.56,5.33,-81.73,-18.85,-14.07,-9.84,-17.88,-16.77,Standing
03:16.7,585,510,765,733,334,2.06,484.76,1.63,20723.82,333,723,20724.22,621,429493376,4294937065,1427,1,0.08,-0.01,-2.31,-8.4,5.92,4.02,-83.81,-19.08,-15.4,-8.99,-18.15,-18.14,Standing
03:16.9,528,511,766.5,733,333,2.07,482.61,1.63,20723.82,333,718,20724.22,621,429493376,4294928301,2145,0.96,0.04,0.02,7.05,8.97,3.67,1.52,-85.89,-18.1,-14.51,-8.42,-17.32,-17.36,Standing
03:17.0,433,510,765,733,329,2.11,474.06,1.61,20723.82,333,697,20724.22,621,429493376,4294955358,2842,0.96,0.04,-0.02,8.76,16.76,5.33,1.83,-85.81,-16.92,-12.63,-7.64,-16.17,-15.56,Standing
03:17.1,617,511,766.5,733,327,2.13,469.83,1.6,20723.82,333,732,20724.22,621,429493376,4294966894,3574,1.09,0.05,0,-25.49,-23.54,14.26,2.07,-85.77,-20.08,-15.88,-5.73,-19.2,-18.67,Standing
03:17.2,388,509,763.5,733,327,2.13,469.83,1.6,20723.82,333,693,20724.22,621,429493376,21095,4267,1.08,-0.06,0.08,-11.69,5.63,-8.36,-3.85,-83.18,-21.5,-15.42,-6.69,-20.79,-18.13,Standing
03:17.4,496,509,763.5,733,327,2.13,469.83,1.6,20723.82,333,699,20724.22,621,429493376,50944,4966,1,0.02,-0.01,2.19,1.78,-5.34,0.58,-87.08,-21.15,-15.44,-7.27,-20.28,-18.31,Standing
03:17.5,645,511,766.5,733,326,2.14,467.72,1.59,20723.82,333,724,20724.22,621,429493376,50832,5690,0.98,-0.02,0.1,-4.2,-13.31,6.11,-1.52,-82.54,-21.61,-17.37,-6.4,-20.8,-19.98,Standing
03:17.6,450,510,765,733,328,2.12,471.94,1.6,20723.82,333,683,20724.22,621,429493376,58569,6373,1.02,-0.02,0.04,5.62,-6.49,3.33,-1.89,-85.89,-20.81,-18.46,-5.87,-20.06,-21.16,Standing
03:17.7,508,510,765,733,327,2.13,469.83,1.6,20723.76,329,708,59.62,708,3553,0,0,1.04,-0.02,-0.01,-0.55,-7.73,1.15,-1.7,-87.12,-20.81,-19.66,-5.63,-20.05,-22.36,Standing
03:17.9,672,512,768,733,327,2.13,469.83,1.6,20723.76,329,726,59.62,708,3553,2788,726,1.03,-0.03,0.03,14.93,17.63,-9.85,-2.33,-86.03,-18.88,-17.71,-6.76,-18.22,-20.44,Standing
03:18.0,484,512,768,733,328,2.12,471.94,1.6,20723.76,329,708,59.62,708,3553,4294947060,1434,1,0.02,-0.02,-7.92,5.03,-7.44,0.55,-86.89,-19.81,-17.33,-7.6,-19,-20.11,Standing
03:18.1,434,511,766.5,733,329,2.11,474.06,1.61,20723.76,329,671,59.62,708,3553,4294938549,2105,1.01,0.01,0.02,-6.42,-2.25,-7.07,0.19,-87.14,-20.55,-17.86,-8.4,-19.72,-20.63,Standing
03:18.2,625,512,768,733,327,2.13,469.83,1.6,20723.76,329,721,59.62,708,3553,4294934102,2826,0.98,0.03,0.02,-10.92,0.6,-1.59,1.26,-86.11,-21.86,-18.04,-8.5,-20.93,-20.76,Standing
03:18.4,532,512,768,733,328,2.12,471.94,1.6,20723.76,329,710,59.62,708,3553,4294913914,3536,1.03,0.02,0.06,-9.86,2.94,-4.19,0.56,-85.02,-23.03,-17.92,-8.92,-22.08,-20.6,Standing
03:18.5,478,512,768,733,329,2.11,474.06,1.61,20723.76,329,688,59.62,708,3553,4294928506,4224,1.01,0.02,0.06,-7.28,2.31,-2.78,0.34,-84.86,-23.87,-17.88,-9.18,-22.91,-20.56,Standing
03:18.6,426,511,766.5,733,328,2.12,471.94,1.6,20723.76,329,729,59.62,708,3553,4294935659,4953,1.01,0.04,0.06,-1,6.44,-4.54,1.73,-84.08,-23.93,-17.32,-9.65,-22.9,-19.99,Standing
03:18.8,577,512,768,733,329,2.11,474.06,1.61,20723.76,329,711,59.62,708,3553,4294916892,5664,1,0.05,0.07,-3.78,1.68,-0.73,2.46,-83.59,-24.34,-17.36,-9.64,-23.26,-20.01,Standing
03:18.9,472,511,766.5,733,330,2.1,476.19,1.61,20723.76,329,699,59.62,708,3553,4294946741,6363,1.01,0.04,0.06,-0.52,0.51,-1.18,1.93,-84.14,-24.33,-17.55,-9.69,-23.28,-20.21,Standing
03:19.0,579,512,768,733,329,2.11,474.06,1.61,20723.74,328,705,20724.19,706,429491936,0,0,1.01,0.03,0.05,-0.91,-3.61,-1.24,1.03,-85.18,-24.37,-18.26,-9.75,-23.36,-20.93,Standing
03:19.1,640,513,769.5,733,329,2.11,474.06,1.61,20723.74,328,726,20724.19,706,429491936,2788,726,1.01,0.04,0.04,-0.18,2.53,-3.37,1.83,-85.11,-24.33,-18.19,-10.07,-23.28,-20.87,Standing
03:19.3,405,512,768,733,330,2.1,476.19,1.61,20723.74,328,684,20724.19,706,429491936,11892,1410,1,0.06,0.05,-2.29,-0.11,-1.78,2.59,-84.16,-24.55,-18.46,-10.19,-23.46,-21.09,Standing
03:19.4,540,513,769.5,733,329,2.11,474.06,1.61,20723.74,328,715,20724.19,706,429491936,4294966125,2125,0.99,0.05,0.04,-2.07,2.35,0.63,2.54,-84.64,-24.74,-18.41,-10.01,-23.65,-21.06,Standing
03:19.5,638,514,771,733,330,2.1,476.19,1.61,20723.74,328,714,20724.19,706,429491936,4294951633,2839,1.02,0.04,0.06,-0.91,1.94,0.16,1.59,-84.43,-24.78,-18.42,-9.89,-23.73,-21.06,Standing
03:19.6,418,513,769.5,733,331,2.09,478.32,1.62,20723.74,328,685,20724.19,706,429491936,4294962106,3524,1.02,0.04,0.06,-1.81,-0.99,-1.87,1.79,-84.51,-24.94,-18.8,-10.03,-23.87,-21.43,Standing
03:19.8,770,516,774,770,329,2.11,474.06,1.61,20723.74,328,731,20724.19,706,429491936,4883,4255,1.01,0.05,0.04,-2.83,-2.96,-3.12,2.06,-84.76,-25.23,-19.43,-10.33,-24.14,-22.05,Standing
03:19.9,764,518,777,770,330,2.1,476.19,1.61,20723.74,328,690,20724.19,706,429491936,22231,4945,1.01,0.05,0.03,-0.95,0.22,-1.85,2.24,-85.04,-25.28,-19.66,-10.46,-24.18,-22.27,Standing
03:20.0,573,519,778.5,770,331,2.09,478.32,1.62,20723.74,328,702,20724.19,706,429491936,4294958043,5647,1.01,0.06,0.04,-1.54,0.4,-1.16,2.68,-84.5,-25.4,-19.86,-10.51,-24.28,-22.45,Standing
03:20.1,626,520,780,770,329,2.11,474.06,1.61,20723.74,328,728,20724.19,706,429491936,4294963739,6375,1.02,0.05,0.03,-1.09,-0.11,0.09,2.06,-85.26,-25.47,-20.13,-10.39,-24.37,-22.73,Standing
03:20.3,731,522,783,770,331,2.09,478.32,1.62,20723.77,329,703,20724.22,707,429493376,0,0,1.02,0.05,0.03,-1.44,0.45,-1.98,2.06,-85.2,-25.58,-20.32,-10.54,-24.48,-22.92,Standing
03:20.4,737,524,786,770,331,2.09,478.32,1.62,20723.77,329,684,20724.22,707,429493376,9104,684,1.01,0.05,0.03,0.59,2.37,-2.67,2.15,-85.11,-25.44,-20.28,-10.78,-24.34,-22.87,Standing
03:20.5,467,523,784.5,770,329,2.11,474.06,1.61,20723.77,329,727,20724.22,707,429493376,13345,1411,1,0.05,0.04,-2.19,-0.05,0.45,2.3,-84.56,-25.65,-20.54,-10.62,-24.53,-23.1,Standing
03:20.7,49,520,780,770,330,2.1,476.19,1.61,20723.77,329,697,20724.22,707,429493376,40402,2108,1.02,0.04,0.04,-0.79,1.28,-1.46,1.55,-85.38,-25.68,-20.63,-10.71,-24.59,-23.22,Standing
03:20.8,255,518,777,770,329,2.11,474.06,1.61,20723.77,329,714,20724.22,707,429493376,25910,2822,1.02,0.05,0.04,-2.42,-2.94,-3.47,2.34,-84.87,-25.91,-21.26,-11.05,-24.78,-23.8,Standing
03:28.1,617,617,925.5,617,327,2.13,469.83,1.6,0,0,726,0,0,0,4294957021,1441,1.01,-0.03,0.01,2.03,14.27,-3.31,-2.08,-86.77,1.36,1.85,0.1,1.22,-1.7,Left Fall while Standing
03:28.2,580,598,897,617,327,2.13,469.83,1.6,0,0,725,0,0,0,4294958358,2166,1.06,-0.04,0.05,-7.19,2.62,-7.49,-2.48,-84.94,0.54,1.92,-0.72,0.42,-1.55,Left Fall while Standing
03:28.3,454,550,825,617,327,2.13,469.83,1.6,0,0,712,0,0,0,4294941014,2878,1.05,-0.03,0.06,8.12,23.46,-33.46,-2.45,-84.41,1.61,4.56,-4.74,1.45,1,Left Fall while Standing
03:28.4,451,525,787.5,617,327,2.13,469.83,1.6,0,0,719,0,0,0,4294933687,3597,0.96,0.06,0.07,7.02,18.53,-36.19,3.24,-82.92,2.54,6.6,-9.1,2.57,3.02,Left Fall while Standing
03:28.6,552,530,795,617,327,2.13,469.83,1.6,0,0,709,0,0,0,4294912080,4306,0.98,0.17,0.14,-11.24,-3.52,-20.24,9.11,-75.96,1.23,5.92,-11.49,1.55,2.64,Left Fall while Standing
03:28.7,589,540,810,617,327,2.13,469.83,1.6,0,0,716,0,0,0,4294900448,5022,0.96,0.17,0.22,15.32,-0.97,-20.56,9.41,-72.11,3.2,5.55,-13.94,3.45,2.44,Left Fall while Standing
03:28.8,626,552,828,626,327,2.13,469.83,1.6,0,0,729,0,0,0,4294907601,5751,0.99,0.23,0.12,10.25,3.73,-28.24,12.33,-73.85,4.52,5.76,-17.29,4.83,2.58,Left Fall while Standing
03:28.9,546,551,826.5,626,328,2.12,471.94,1.6,0,0,724,0,0,0,4294907489,6475,1.01,0.27,0.11,13.26,21.54,-34.95,14.47,-72.05,6.22,8.16,-21.49,6.55,4.96,Left Fall while Standing
03:29.1,309,524,786,626,330,2.1,476.19,1.61,20723.73,327,704,20724.09,717,429487872,0,0,0.79,0.38,0.21,10.58,23.4,-32.79,24.66,-59.41,7.61,10.84,-25.49,8.29,8.03,Left Fall while Standing
03:29.2,212,493,739.5,626,331,2.09,478.32,1.62,20723.73,327,714,20724.09,717,429487872,4294952804,714,0.86,0.43,0.24,1.56,28.96,-20.11,25.05,-58.83,7.88,14.24,-27.92,8.57,11.31,Left Fall while Standing
03:29.3,515,495,742.5,626,330,2.1,476.19,1.61,20723.73,327,730,20724.09,717,429487872,4294961416,1444,0.82,0.41,0.36,1.81,10.95,-5.14,24.26,-54.69,8.18,15.37,-28.48,8.82,12.57,Left Fall while Standing
03:29.4,296,478,717,626,332,2.08,480.46,1.62,20723.73,327,709,20724.09,717,429487872,4294939809,2153,0.84,0.46,0.28,1.85,-2.34,-15.33,26.87,-55.65,8.49,14.82,-30.32,9.22,12,Left Fall while Standing
03:29.6,362,469,703.5,626,332,2.08,480.46,1.62,20723.73,327,710,20724.09,717,429487872,4294919621,2863,0.82,0.5,0.28,9.21,0.84,-16.73,29.31,-53.66,9.73,14.67,-32.35,10.51,11.94,Left Fall while Standing
03:29.7,630,481,721.5,630,332,2.08,480.46,1.62,20723.73,327,733,20724.09,717,429487872,4294932622,3596,0.78,0.53,0.18,2.75,-0.3,-13.56,32.64,-53,10.15,14.38,-33.97,11.05,11.69,Left Fall while Standing
03:29.8,323,470,705,630,333,2.07,482.61,1.63,20723.73,327,706,20724.09,717,429487872,4294906770,4302,0.79,0.54,0.21,9.49,8.36,-3.23,32.88,-52.12,11.42,15.19,-34.28,12.28,12.5,Left Fall while Standing
03:29.9,352,463,694.5,630,331,2.09,478.32,1.62,20723.73,327,721,20724.09,717,429487872,4294902323,5023,0.82,0.55,0.2,4.77,9.88,-6.02,32.8,-52.68,12.1,16.19,-34.94,12.93,13.44,Left Fall while Standing
03:30.1,704,477,715.5,704,331,2.09,478.32,1.62,20723.73,327,727,20724.09,717,429487872,4294906564,5750,0.78,0.56,0.26,-2.41,12.85,-12.77,33.52,-50.12,11.87,17.56,-36.45,12.73,14.85,Left Fall while Standing
03:30.2,362,471,706.5,704,331,2.09,478.32,1.62,20723.73,327,707,20724.09,717,429487872,4294882125,6457,0.76,0.59,0.24,4.55,4.82,-12.64,35.91,-48.39,12.52,17.92,-37.97,13.45,15.27,Left Fall while Standing
03:30.3,580,476,714,704,330,2.1,476.19,1.61,20723.79,331,722,20724.09,717,429487904,0,0,0.76,0.62,0.21,4.24,-1.15,-14.17,37.84,-47.33,13.12,17.52,-39.64,14.11,14.93,Left Fall while Standing
03:30.4,681,487,730.5,704,330,2.1,476.19,1.61,20723.79,331,724,20724.09,717,429487904,4294967184,724,0.7,0.62,0.27,0.08,6.72,-11.67,39.01,-44.54,13.2,18.12,-41.02,14.23,15.62,Left Fall while Standing
03:30.6,418,483,724.5,704,331,2.09,478.32,1.62,20723.79,331,704,20724.09,717,429487904,4294938512,1428,0.68,0.65,0.23,-0.8,0.16,-8.15,41.45,-43.24,13.17,17.89,-41.96,14.3,15.44,Left Fall while Standing
03:30.7,614,489,733.5,704,330,2.1,476.19,1.61,20723.79,331,722,20724.09,717,429487904,4294935508,2150,0.69,0.65,0.25,0.44,-1.79,-0.66,40.72,-43.32,13.3,17.41,-41.94,14.39,14.98,Left Fall while Standing
03:30.8,578,493,739.5,704,331,2.09,478.32,1.62,20723.79,331,723,20724.09,717,429487904,4294933949,2873,0.69,0.64,0.23,0.96,-1.21,-5.11,40.85,-43.75,13.49,17,-42.49,14.59,14.57,Left Fall while Standing
03:31.0,376,488,732,704,331,2.09,478.32,1.62,20723.79,331,714,20724.09,717,429487904,4294919457,3587,0.65,0.65,0.21,-2.33,1.97,-2.08,43.05,-41.97,13.27,17,-42.65,14.46,14.64,Left Fall while Standing
03:31.1,652,495,742.5,704,330,2.1,476.19,1.61,20723.79,331,726,20724.09,717,429487904,4294922245,4313,0.69,0.66,0.21,-5.14,-1.22,2,41.65,-43.64,12.68,16.59,-42.3,13.84,14.18,Left Fall while Standing
03:31.2,468,494,741,704,331,2.09,478.32,1.62,20723.79,331,714,20724.09,717,429487904,4294907753,5027,0.7,0.66,0.22,-2.65,1.55,1.05,41.41,-43.64,12.42,16.53,-42.06,13.58,14.12,Left Fall while Standing
03:31.3,471,493,739.5,704,331,2.09,478.32,1.62,20723.79,331,710,20724.09,717,429487904,4294887565,5737,0.69,0.65,0.23,-3.79,-0.49,-1.49,41.08,-43.63,12.01,16.22,-42.15,13.17,13.82,Left Fall while Standing
03:31.5,710,501,751.5,710,331,2.09,478.32,1.62,20723.79,331,725,20724.09,717,429487904,4294888902,6462,0.68,0.65,0.25,-1.57,-0.52,0.24,41.35,-42.83,11.88,15.9,-42.02,13.06,13.55,Left Fall while Standing
03:31.6,362,496,744,710,332,2.08,480.46,1.62,20723.78,330,709,20724.06,717,429486720,0,0,0.7,0.65,0.23,-2.21,0.24,-1.76,40.58,-44.17,11.67,15.68,-42.14,12.83,13.28,Left Fall while Standing
03:31.7,397,492,738,710,332,2.08,480.46,1.62,20723.78,330,713,20724.06,717,429486720,4294951377,713,0.7,0.65,0.22,-2.14,-1.66,-1.81,41.15,-43.8,11.47,15.21,-42.27,12.66,12.85,Left Fall while Standing
03:31.8,669,498,747,710,331,2.09,478.32,1.62,20723.78,330,726,20724.06,717,429486720,4294954165,1439,0.7,0.65,0.21,-2.68,-2.43,-0.35,41.2,-43.92,11.2,14.65,-42.22,12.4,12.3,Left Fall while Standing
03:32.0,375,494,741,710,332,2.08,480.46,1.62,20723.78,330,707,20724.06,717,429486720,4294929726,2146,0.7,0.64,0.21,-0.94,0.57,-1.61,40.46,-44.61,11.16,14.47,-42.32,12.33,12.1,Left Fall while Standing
03:32.1,543,496,744,710,331,2.09,478.32,1.62,20723.78,330,715,20724.06,717,429486720,4294916663,2861,0.71,0.64,0.21,1.12,3.89,-6.21,40.18,-45.09,11.37,14.71,-43.01,12.52,12.31,Left Fall while Standing
03:32.2,687,501,751.5,710,330,2.1,476.19,1.61,20723.78,330,727,20724.06,717,429486720,4294920904,3588,0.67,0.66,0.22,-2.92,8.82,-11.6,42.69,-42.11,11.07,15.57,-44.38,12.33,13.26,Left Fall while Standing
03:32.4,331,496,744,710,331,2.09,478.32,1.62,20723.78,330,714,20724.06,717,429486720,4294906412,4302,0.66,0.67,0.22,0.57,-0.53,-3.62,43.78,-41.2,11.21,15.25,-44.74,12.52,12.99,Left Fall while Standing
03:32.5,568,498,747,710,329,2.11,474.06,1.61,20723.78,330,720,20724.06,717,429486720,4294900524,5022,0.67,0.68,0.21,0.39,-3.34,0.35,43.79,-41.51,11.33,14.57,-44.6,12.63,12.33,Left Fall while Standing
03:32.6,584,501,751.5,710,329,2.11,474.06,1.61,20723.78,330,727,20724.06,717,429486720,4294904765,5749,0.67,0.68,0.23,-3.09,-0.09,0.14,43.31,-41.52,11.01,14.31,-44.48,12.31,12.08,Left Fall while Standing
03:32.7,365,497,745.5,710,329,2.11,474.06,1.61,20723.78,330,713,20724.06,717,429486720,4294888846,6462,0.69,0.68,0.21,-0.16,-0.16,-1.93,42.54,-42.69,11.07,14.04,-44.63,12.32,11.77,Left Fall while Standing
03:32.9,730,503,754.5,730,328,2.12,471.94,1.6,20723.77,330,724,20724.11,718,429488864,0,0,0.67,0.68,0.19,-0.47,-2.17,-1.18,43.64,-42.1,11.08,13.51,-44.67,12.38,11.29,Left Fall while Standing
03:33.0,617,506,759,730,329,2.11,474.06,1.61,20723.77,330,720,20724.11,718,429488864,4294961408,720,0.67,0.67,0.19,-2.33,-3.23,1.48,43.28,-42.38,10.85,12.85,-44.39,12.15,10.64,Left Fall while Standing
03:33.1,371,503,754.5,730,329,2.11,474.06,1.61,20723.77,330,709,20724.11,718,429488864,4294939801,1429,0.68,0.68,0.2,-2.35,-2.11,1.71,43.15,-42.4,10.62,12.33,-44.07,11.92,10.14,Left Fall while Standing
03:33.2,671,507,760.5,730,329,2.11,474.06,1.61,20723.77,330,724,20724.11,718,429488864,4294939689,2153,0.7,0.67,0.19,-2.53,1.06,-0.35,42.09,-43.66,10.37,12.21,-44.01,11.64,9.97,Left Fall while Standing
03:33.4,495,506,759,730,329,2.11,474.06,1.61,20723.77,330,712,20724.11,718,429488864,4294922345,2865,0.68,0.67,0.19,-2.89,0.68,-0.15,42.95,-42.68,10.08,12.04,-43.93,11.39,9.85,Left Fall while Standing
03:33.5,505,506,759,730,329,2.11,474.06,1.61,20723.77,330,706,20724.11,718,429488864,4294896493,3571,0.7,0.66,0.17,-3.28,0.41,-0.32,42.13,-43.95,9.73,11.84,-43.87,11.03,9.61,Left Fall while Standing
03:33.6,771,512,768,771,329,2.11,474.06,1.61,20723.77,330,722,20724.11,718,429488864,4294893489,4293,0.69,0.66,0.2,-3.82,1.15,0.57,41.76,-43.65,9.32,11.73,-43.7,10.62,9.51,Left Fall while Standing
03:33.7,557,513,769.5,771,330,2.1,476.19,1.61,20723.77,330,709,20724.11,718,429488864,4294871882,5002,0.7,0.65,0.21,-1.53,-1.57,1.43,41.25,-44.02,9.2,11.28,-43.42,10.48,9.07,Left Fall while Standing
03:33.9,476,512,768,771,330,2.1,476.19,1.61,20723.77,330,708,20724.11,718,429488864,4294848858,5710,0.72,0.65,0.19,-2.9,-3.41,0.15,40.93,-44.86,8.9,10.59,-43.3,10.18,8.37,Left Fall while Standing
03:34.0,830,519,778.5,830,331,2.09,478.32,1.62,20723.77,330,722,20724.11,718,429488864,4294845854,6432,0.71,0.66,0.19,-2.1,-1.12,1.94,41.38,-44.3,8.7,10.2,-42.95,10.01,8.02,Left Fall while Standing
03:34.1,505,519,778.5,830,332,2.08,480.46,1.62,20723.76,329,711,20723.97,714,429482720,0,0,0.71,0.65,0.17,-5.4,-1.06,6.58,40.88,-45.17,8.1,9.81,-42.03,9.41,7.61,Left Fall while Standing
03:34.3,401,516,774,830,333,2.07,482.61,1.63,20723.76,329,711,20723.97,714,429482720,4294948529,711,0.72,0.64,0.19,-4.98,-1.4,6.85,40.11,-45.62,7.54,9.38,-41.07,8.85,7.18,Left Fall while Standing
03:34.4,656,519,778.5,830,333,2.07,482.61,1.63,20723.76,329,724,20723.97,714,429482720,4294948417,1435,0.75,0.61,0.21,-4.84,5.16,6.17,37.36,-47.86,7,9.78,-40.19,8.22,7.48,Left Fall while Standing
03:34.5,567,520,780,830,334,2.06,484.76,1.63,20723.76,329,717,20723.97,714,429482720,4294938218,2152,0.76,0.6,0.24,-3.95,0.91,1.6,36.73,-47.79,6.58,9.64,-39.89,7.78,7.35,Left Fall while Standing
03:34.6,331,516,774,830,335,2.05,486.92,1.64,20723.76,329,708,20723.97,714,429482720,4294915194,2860,0.74,0.59,0.21,-3.18,0.47,4.21,36.88,-48.12,6.25,9.45,-39.26,7.47,7.15,Left Fall while Standing
03:34.8,549,517,775.5,830,336,2.04,489.08,1.64,20723.76,329,716,20723.97,714,429482720,4294903562,3576,0.75,0.59,0.2,-4.86,-2.33,2.94,36.67,-48.74,5.7,8.9,-38.79,6.94,6.6,Left Fall while Standing
03:34.9,544,517,775.5,830,337,2.04,491.25,1.65,20723.76,329,718,20723.97,714,429482720,4294894798,4294,0.77,0.57,0.22,-2.79,1.92,6.95,34.58,-50.15,5.42,8.89,-37.81,6.59,6.53,Left Fall while Standing
03:35.0,287,513,769.5,830,338,2.03,493.43,1.65,20723.76,329,703,20723.97,714,429482720,4294864719,4997,0.78,0.58,0.18,-3.96,-3.3,5.1,35.31,-50.49,4.99,8.23,-37.07,6.2,5.88,Left Fall while Standing
03:35.1,567,514,771,830,338,2.03,493.43,1.65,20723.76,329,718,20723.97,714,429482720,4294855955,5715,0.78,0.54,0.19,-5.77,-5.53,15.94,33.18,-52.3,4.33,7.27,-34.95,5.48,4.89,Left Fall while Standing
03:35.3,584,515,772.5,830,339,2.02,495.61,1.66,20723.76,329,720,20723.97,714,429482720,4294850067,6435,0.82,0.5,0.18,-12.56,-2.95,24.93,30.24,-55.32,2.82,6.64,-31.71,3.91,4.17,Left Fall while Standing
03:35.4,276,511,766.5,830,339,2.02,495.61,1.66,20723.87,336,713,20723.98,714,429483424,0,0,0.86,0.46,0.18,-10.51,-4.92,25.22,27.19,-58.38,1.57,5.78,-28.45,2.6,3.21,Left Fall while Standing
03:35.5,455,510,765,830,339,2.02,495.61,1.66,20723.87,336,717,20723.98,714,429483424,4294957097,717,0.88,0.39,0.21,-10.68,-3.36,22.77,22.5,-61.78,0.3,5.1,-25.49,1.19,2.43,Left Fall while Standing
03:35.6,702,514,771,830,340,2.01,497.8,1.66,20723.87,336,726,20723.98,714,429483424,4294959885,1443,0.91,0.35,0.21,-4.76,1.12,14.28,19.76,-64.33,-0.24,4.99,-23.57,0.56,2.22,Left Fall while Standing
03:35.8,318,510,765,830,341,2,500,1.67,20723.87,336,702,20723.98,714,429483424,4294928401,2145,0.92,0.32,0.22,-4.53,0.31,11.98,17.86,-65.67,-0.74,4.78,-21.95,0,1.96,Left Fall while Standing
03:35.9,441,509,763.5,830,340,2.01,497.8,1.66,20723.87,336,715,20723.98,714,429483424,4294915338,2860,0.96,0.29,0.17,-12.11,-8.16,17.5,15.86,-69.14,-2.18,3.51,-19.66,-1.46,0.6,Left Fall while Standing
03:36.0,585,510,765,830,341,2,500,1.67,20723.87,336,722,20723.98,714,429483424,4294912334,3582,0.97,0.24,0.15,-14.07,-16.23,24.07,13.35,-72.03,-3.9,1.19,-16.51,-3.21,-1.74,Left Fall while Standing
03:36.1,378,508,762,830,342,1.99,502.2,1.67,20723.87,336,711,20723.98,714,429483424,4294893567,4293,1.01,0.16,0.15,-15.49,-8.47,14.2,8.27,-76.1,-5.8,-0.14,-14.6,-5.23,-3.18,Left Fall while Standing
03:36.3,560,509,763.5,830,341,2,500,1.67,20723.87,336,725,20723.98,714,429483424,4294894904,5018,0.98,0.14,0.13,-1.36,2.81,9.17,7.5,-77.23,-5.9,-0.03,-13.33,-5.36,-3.12,Left Fall while Standing
03:36.4,482,509,763.5,830,342,1.99,502.2,1.67,20723.87,336,713,20723.98,714,429483424,4294878985,5731,0.99,0.14,0.16,2.63,5.33,10.4,7.47,-76.27,-5.5,0.39,-11.92,-4.98,-2.68,Left Fall while Standing
03:36.5,373,507,760.5,830,342,1.99,502.2,1.67,20723.87,336,713,20723.98,714,429483424,4294863066,6444,0.96,0.11,0.15,-9.37,-5.2,20.41,5.73,-77.54,-6.61,-0.53,-9.23,-6.12,-3.61,Left Fall while Standing
03:36.7,689,509,763.5,830,341,2,500,1.67,20723.94,340,718,20724.03,716,429485440,0,0,0.99,0.07,0.09,-12.24,-5.95,14.47,3.45,-81.83,-8.07,-1.52,-7.32,-7.61,-4.73,Left Fall while Standing
03:36.8,501,509,763.5,830,343,1.98,504.41,1.68,20723.94,340,714,20724.03,716,429485440,4294952804,714,0.97,-0.01,0.14,-16.96,-11.74,17.24,-1.17,-80.19,-10.16,-3.27,-5.03,-9.8,-6.34,Left Fall while Standing
03:36.9,212,505,757.5,830,343,1.98,504.41,1.68,20723.94,340,709,20724.03,716,429485440,4294931197,1423,1.03,-0.06,0.11,-7.43,-11.08,8.74,-3.98,-81.39,-11.03,-4.93,-3.82,-10.75,-7.99,Left Fall while Standing
03:37.0,532,505,757.5,830,343,1.98,504.41,1.68,20723.94,340,720,20724.03,716,429485440,4294925309,2143,1.01,-0.05,0.08,-6.04,-8.8,-1.98,-3.37,-82.93,-11.73,-6.31,-3.97,-11.4,-9.38,Left Fall while Standing
03:37.2,409,504,756,830,344,1.97,506.63,1.68,20723.94,340,713,20724.03,716,429485440,4294909390,2856,0.98,-0.02,0.02,-22.72,-17.5,11.24,-1.85,-86.75,-14.54,-8.79,-2.44,-14.04,-11.91,Left Fall while Standing
03:37.3,319,502,753,830,343,1.98,504.41,1.68,20723.94,340,712,20724.03,716,429485440,4294892046,3568,1.1,-0.11,0,-7.18,5.3,-5.26,-6.12,-82.88,-15.39,-8.37,-3.01,-15.02,-11.35,Left Fall while Standing
03:37.4,484,501,751.5,830,344,1.97,506.63,1.68,20723.94,340,720,20724.03,716,429485440,4294886158,4288,1,-0.06,0.02,4.89,30.34,-0.38,-4.28,-84.48,-14.69,-4.74,-2.96,-14.28,-7.93,Left Fall while Standing
03:37.5,349,499,748.5,830,345,1.97,508.85,1.69,20723.94,340,711,20724.03,716,429485440,4294867391,4999,1.06,-0.13,0.06,-16.1,-5.85,-4.05,-7.4,-80.96,-16.67,-5.73,-3.38,-16.3,-8.74,Left Fall while Standing
03:37.7,626,501,751.5,830,343,1.98,504.41,1.68,20723.94,340,721,20724.03,716,429485440,4294862944,5720,1.03,-0.07,0.04,-17.13,-0.57,-6.82,-4.73,-83.73,-18.79,-6.06,-4.15,-18.23,-9.17,Left Fall while Standing
03:37.8,529,501,751.5,830,345,1.97,508.85,1.69,20723.94,340,707,20724.03,716,429485440,4294838505,6427,0.98,-0.07,0.08,-16.76,-3.34,2.85,-4.59,-82.14,-20.86,-6.75,-3.68,-20.21,-9.76,Left Fall while Standing
03:37.9,642,503,754.5,830,345,1.97,508.85,1.69,20723.99,343,705,20723.93,713,429481120,0,0,0.99,-0.11,0.09,-3.57,9.21,2.62,-6.6,-80.54,-21.24,-5.85,-3.26,-20.65,-8.83,Left Fall while Standing
03:38.1,712,506,759,830,344,1.97,506.63,1.68,20723.99,343,721,20723.93,713,429481120,4294962849,721,1.06,-0.1,0.09,-6.26,-6.89,3.71,-5.76,-81.45,-21.96,-6.97,-2.68,-21.31,-9.95,Left Fall while Standing
03:38.2,473,505,757.5,830,346,1.96,511.08,1.69,20723.99,343,709,20723.93,713,429481120,4294941242,1430,1.01,-0.11,0.07,-2.34,-0.45,-4.45,-6.9,-81.03,-22.19,-7.29,-3.15,-21.58,-10.24,Left Fall while Standing
03:38.3,467,505,757.5,830,345,1.97,508.85,1.69,20723.99,343,713,20723.93,713,429481120,4294925323,2143,0.99,-0.09,0.05,-0.71,0.87,-0.69,-6,-82.22,-22.21,-7.43,-3.14,-21.56,-10.42,Left Fall while Standing
03:38.4,627,506,759,830,345,1.97,508.85,1.69,20723.99,343,717,20723.93,713,429481120,4294915124,2860,0.97,-0.1,0.04,-0.37,2.26,4.27,-6.19,-82.41,-22.18,-7.4,-2.49,-21.54,-10.4,Left Fall while Standing
03:38.6,493,506,759,830,347,1.95,513.31,1.7,20723.99,343,710,20723.93,713,429481120,4294894936,3570,1.04,-0.13,0.06,-0.73,4.21,0.36,-7.94,-80.32,-22.2,-7.12,-2.34,-21.63,-10.04,Left Fall while Standing
03:38.7,672,508,762,830,345,1.97,508.85,1.69,20723.99,343,714,20723.93,713,429481120,4294880444,4284,1.01,-0.12,0.07,-5.69,3.6,-2.83,-7.1,-80.87,-22.86,-6.91,-2.6,-22.23,-9.87,Left Fall while Standing
03:38.8,457,507,760.5,830,346,1.96,511.08,1.69,20723.99,343,716,20723.93,713,429481120,4294868812,5000,1.02,-0.11,0.1,-5.06,1.22,-4.22,-6.54,-80.11,-23.43,-7.01,-3.04,-22.76,-9.94,Left Fall while Standing
03:38.9,443,507,760.5,830,346,1.96,511.08,1.69,20723.99,343,710,20723.93,713,429481120,4294848624,5710,1,-0.12,0.08,-4.21,-2.89,-2.47,-7.11,-80.47,-23.9,-7.63,-3.25,-23.22,-10.55,Left Fall while Standing
03:39.1,676,509,763.5,830,345,1.97,508.85,1.69,20723.99,343,720,20723.93,713,429481120,4294842736,6430,1.02,-0.09,0.08,0.27,-0.49,-5.85,-5.57,-81.73,-23.79,-7.95,-3.9,-23.06,-10.9,Left Fall while Standing
03:42.6,578,578,867,578,340,2.01,497.8,1.66,0,0,705,0,0,0,4294909954,1408,0.99,-0.13,0.13,1.19,0.18,-4.83,-8.28,-77.8,0.42,0.47,-1.2,0.07,-2.66,Right Fall while Standing
03:42.7,378,478,717,578,340,2.01,497.8,1.66,0,0,711,0,0,0,4294891187,2119,0.91,-0.11,0.14,3.36,0.8,8.51,-7.71,-76.97,0.9,0.32,-0.05,0.56,-2.77,Right Fall while Standing
03:42.8,651,535,802.5,651,341,2,500,1.67,0,0,709,0,0,0,4294869580,2828,0.92,-0.14,0.08,-8.06,-16.67,28.76,-9.08,-78.59,-0.02,-1.97,3.58,-0.38,-5.04,Right Fall while Standing
03:43.0,618,556,834,651,340,2.01,497.8,1.66,0,0,712,0,0,0,4294852236,3540,0.98,-0.25,0.09,-2.85,-11.62,27.62,-14.93,-73.13,-0.3,-3.66,7.11,-0.89,-6.44,Right Fall while Standing
03:43.1,546,554,831,651,339,2.02,495.61,1.66,0,0,708,0,0,0,4294829212,4248,0.96,-0.31,0.07,1.82,-13.02,26.17,-18.59,-69.89,-0.01,-5.53,10.45,-0.75,-8.1,Right Fall while Standing
03:43.2,572,557,835.5,651,339,2.02,495.61,1.66,0,0,710,0,0,0,4294809024,4958,1,-0.35,0,-2.79,-13.03,18.52,-19.88,-69.12,-0.28,-7.39,12.84,-1.07,-9.86,Right Fall while Standing
03:43.3,603,563,844.5,651,339,2.02,495.61,1.66,0,0,711,0,0,0,4294790257,5669,0.96,-0.39,-0.02,-3.53,-6.85,10.07,-22.88,-66.07,-0.65,-8.5,14.2,-1.54,-10.8,Right Fall while Standing
03:43.5,594,567,850.5,651,339,2.02,495.61,1.66,0,0,708,0,0,0,4294767233,6377,0.93,-0.4,-0.01,-3.7,-4.63,11.79,-23.9,-65.09,-1.04,-9.31,15.75,-1.96,-11.54,Right Fall while Standing
03:43.6,592,570,855,651,338,2.03,493.43,1.65,20723.92,339,712,20723.78,708,429474976,0,0,0.94,-0.44,-0.05,-4.27,-4.7,12.43,-25.75,-63.1,-1.51,-10.16,17.41,-2.48,-12.27,Right Fall while Standing
03:43.7,603,573,859.5,651,338,2.03,493.43,1.65,20723.92,339,711,20723.78,708,429474976,4294948529,711,0.93,-0.47,-0.06,-2.6,1.98,8.08,-27.44,-61.34,-1.77,-10.16,18.54,-2.79,-12.21,Right Fall while Standing
03:43.8,609,576,864,651,339,2.02,495.61,1.66,20723.92,339,705,20723.78,708,429474976,4294921266,1416,0.9,-0.48,-0.05,-2.59,-0.15,9.98,-28.41,-60.45,-2.03,-10.43,19.92,-3.08,-12.43,Right Fall while Standing
03:44.0,326,555,832.5,651,337,2.04,491.25,1.65,20723.92,339,711,20723.78,708,429474976,4294902499,2127,0.89,-0.5,-0.07,1.12,2.79,10.61,-29.61,-59.07,-1.81,-10.33,21.38,-2.92,-12.28,Right Fall while Standing
03:44.1,538,554,831,651,337,2.04,491.25,1.65,20723.92,339,709,20723.78,708,429474976,4294880892,2836,0.88,-0.51,-0.06,1.04,4.36,9.6,-30.73,-58.03,-1.61,-10.03,22.7,-2.77,-11.95,Right Fall while Standing
03:44.2,686,563,844.5,686,336,2.04,489.08,1.64,20723.92,339,707,20723.78,708,429474976,4294856453,3543,0.87,-0.55,-0.05,-4.08,2.47,11.27,-33.02,-55.82,-2.06,-9.97,24.23,-3.29,-11.81,Right Fall while Standing
03:44.4,667,570,855,686,334,2.06,484.76,1.63,20723.92,339,711,20723.78,708,429474976,4294837686,4254,0.85,-0.58,-0.05,-2.47,2.01,7.57,-34.67,-54.18,-2.3,-9.97,25.3,-3.59,-11.74,Right Fall while Standing
03:44.5,692,578,867,692,334,2.06,484.76,1.63,20723.92,339,710,20723.78,708,429474976,4294817498,4964,0.86,-0.58,-0.05,-4.08,3.05,7.46,-34.74,-54.12,-2.75,-9.84,26.34,-4.03,-11.61,Right Fall while Standing
03:44.6,669,583,874.5,692,332,2.08,480.46,1.62,20723.92,339,709,20723.78,708,429474976,4294795891,5673,0.85,-0.6,-0.02,-0.73,1.99,5.46,-35.44,-53.52,-2.77,-9.84,27.14,-4.07,-11.59,Right Fall while Standing
03:44.7,754,593,889.5,754,330,2.1,476.19,1.61,20723.92,339,706,20723.78,708,429474976,4294770039,6379,0.82,-0.61,-0.04,-0.44,0.27,4.47,-37.22,-51.67,-2.75,-10.06,27.81,-4.13,-11.73,Right Fall while Standing
03:44.9,648,596,894,754,331,2.09,478.32,1.62,20723.85,334,706,20723.77,708,429474432,0,0,0.83,-0.62,-0.05,-1.52,1.11,1.83,-37.06,-51.79,-2.87,-10.17,28.14,-4.24,-11.84,Right Fall while Standing
03:45.0,709,601,901.5,754,330,2.1,476.19,1.61,20723.85,334,711,20723.77,708,429474432,4294948529,711,0.82,-0.62,-0.04,-2.65,1.73,1.95,-37.45,-51.45,-3.14,-10.21,28.49,-4.51,-11.86,Right Fall while Standing
03:45.1,686,605,907.5,754,329,2.11,474.06,1.61,20723.85,334,705,20723.77,708,429474432,4294921266,1416,0.83,-0.62,-0.05,-4.04,-0.05,2.15,-37.18,-51.67,-3.58,-10.47,28.86,-4.92,-12.12,Right Fall while Standing
03:45.2,687,609,913.5,754,330,2.1,476.19,1.61,20723.85,334,708,20723.77,708,429474432,4294898242,2124,0.8,-0.62,-0.04,-3.25,0.1,2.9,-38.48,-50.43,-3.92,-10.71,29.33,-5.31,-12.3,Right Fall while Standing
03:45.4,635,610,915,754,329,2.11,474.06,1.61,20723.85,334,710,20723.77,708,429474432,4294878054,2834,0.81,-0.64,-0.07,-1.45,-1.01,3.63,-38.82,-49.95,-4.04,-11.1,29.9,-5.43,-12.65,Right Fall while Standing
03:45.5,610,610,915,754,330,2.1,476.19,1.61,20723.85,334,712,20723.77,708,429474432,4294860710,3546,0.81,-0.65,-0.07,-3.91,1.15,2.93,-39.23,-49.51,-4.46,-11.2,30.37,-5.85,-12.74,Right Fall while Standing
03:45.6,498,605,907.5,754,329,2.11,474.06,1.61,20723.85,334,707,20723.77,708,429474432,4294836271,4253,0.8,-0.67,-0.04,-3.02,0.18,2.91,-40.47,-48.43,-4.78,-11.44,30.85,-6.21,-12.92,Right Fall while Standing
03:45.8,484,601,901.5,754,329,2.11,474.06,1.61,20723.85,334,712,20723.77,708,429474432,4294818927,4965,0.8,-0.66,-0.06,-1.53,1.27,-1.85,-40.03,-48.77,-4.9,-11.53,30.71,-6.31,-13.02,Right Fall while Standing
03:45.9,447,595,892.5,754,330,2.1,476.19,1.61,20723.85,334,708,20723.77,708,429474432,4294795903,5673,0.78,-0.66,-0.06,-3.47,0.8,-2.14,-40.56,-48.22,-5.28,-11.68,30.54,-6.69,-13.14,Right Fall while Standing
03:46.0,442,590,885,754,329,2.11,474.06,1.61,20723.85,334,704,20723.77,708,429474432,4294767231,6377,0.79,-0.66,-0.08,-3.48,0.27,-2.5,-40.18,-48.48,-5.65,-11.9,30.32,-7.03,-13.37,Right Fall while Standing
03:46.1,464,585,877.5,754,330,2.1,476.19,1.61,20723.76,329,709,20723.77,708,429474560,0,0,0.79,-0.65,-0.06,-3.15,-1.08,-0.81,-39.92,-48.85,-5.97,-12.29,30.32,-7.33,-13.75,Right Fall while Standing
03:46.3,517,583,874.5,754,330,2.1,476.19,1.61,20723.76,329,711,20723.77,708,429474560,4294948529,711,0.8,-0.65,-0.07,-1.87,-1.06,0.06,-39.77,-48.97,-6.14,-12.68,30.43,-7.49,-14.13,Right Fall while Standing
03:46.4,776,589,883.5,776,329,2.11,474.06,1.61,20723.76,329,708,20723.77,708,429474560,4294925505,1419,0.8,-0.65,-0.08,-3.64,-0.38,-1.82,-39.44,-49.2,-6.54,-12.98,30.3,-7.85,-14.43,Right Fall while Standing
03:46.5,890,599,898.5,890,330,2.1,476.19,1.61,20723.76,329,707,20723.77,708,429474560,4294901066,2126,0.8,-0.65,-0.08,-2.5,-0.08,0.91,-39.43,-49.21,-6.78,-13.25,30.51,-8.09,-14.69,Right Fall while Standing
03:46.6,783,604,906,890,329,2.11,474.06,1.61,20723.76,329,708,20723.77,708,429474560,4294878042,2834,0.79,-0.66,-0.09,-2.55,-0.46,1,-40.53,-48.06,-7.04,-13.56,30.74,-8.38,-14.94,Right Fall while Standing
03:46.8,665,606,909,890,329,2.11,474.06,1.61,20723.76,329,713,20723.77,708,429474560,4294862123,3547,0.8,-0.67,-0.08,-2.55,1.02,-0.12,-40.18,-48.44,-7.29,-13.69,30.83,-8.61,-15.08,Right Fall while Standing
03:46.9,732,609,913.5,890,329,2.11,474.06,1.61,20723.76,329,711,20723.77,708,429474560,4294843356,4258,0.79,-0.67,-0.06,-1.02,-0.08,-2.53,-40.59,-48.21,-7.35,-13.95,30.6,-8.68,-15.33,Right Fall while Standing
03:47.0,670,611,916.5,890,329,2.11,474.06,1.61,20723.76,329,715,20723.77,708,429474560,4294830293,4973,0.79,-0.65,-0.1,0.6,0.1,-3.02,-39.72,-48.7,-7.2,-14.2,30.32,-8.5,-15.58,Right Fall while Standing
03:47.2,558,610,915,890,330,2.1,476.19,1.61,20723.76,329,708,20723.77,708,429474560,4294807269,5681,0.8,-0.67,-0.07,-1.66,3.13,-2.12,-40.43,-48.33,-7.34,-14.05,30.15,-8.66,-15.43,Right Fall while Standing
03:47.3,503,607,910.5,890,330,2.1,476.19,1.61,20723.76,329,709,20723.77,708,429474560,4294785662,6390,0.79,-0.65,-0.08,-2.48,4.04,-5.25,-39.81,-48.84,-7.59,-13.79,29.58,-8.88,-15.2,Right Fall while Standing
03:47.4,427,602,903,890,330,2.1,476.19,1.61,20723.76,329,713,20723.83,710,429476960,0,0,0.8,-0.64,-0.06,-2.78,0.29,-1.59,-39.25,-49.56,-7.86,-14.01,29.48,-9.12,-15.43,Right Fall while Standing
03:47.5,438,598,897,890,331,2.09,478.32,1.62,20723.76,329,709,20723.83,710,429476960,4294945689,709,0.82,-0.64,-0.08,-1.47,2.44,-2.47,-38.6,-50.09,-7.98,-13.95,29.26,-9.2,-15.4,Right Fall while Standing
03:47.7,415,594,891,890,331,2.09,478.32,1.62,20723.76,329,719,20723.83,710,429476960,4294938362,1428,0.82,-0.63,-0.08,-1.92,-0.45,-0.97,-37.92,-50.71,-8.15,-14.27,29.24,-9.34,-15.72,Right Fall while Standing
03:47.8,567,593,889.5,890,332,2.08,480.46,1.62,20723.76,329,701,20723.83,710,429476960,3715,2129,0.8,-0.62,-0.1,-2.01,1.79,-3.2,-38.27,-50.11,-8.34,-14.29,28.94,-9.53,-15.73,Right Fall while Standing
03:47.9,461,590,885,890,332,2.08,480.46,1.62,20723.76,329,712,20723.83,710,429476960,4294953667,2841,0.81,-0.63,-0.06,-1.23,1.78,-0.34,-38.16,-50.63,-8.42,-14.32,29,-9.61,-15.77,Right Fall while Standing
03:48.0,344,584,876,890,332,2.08,480.46,1.62,20723.76,329,707,20723.83,710,429476960,4294929228,3548,0.82,-0.64,-0.06,-1.34,1.76,-0.79,-38.61,-50.19,-8.52,-14.35,28.99,-9.73,-15.79,Right Fall while Standing
03:48.2,428,581,871.5,890,333,2.07,482.61,1.63,20723.76,329,707,20723.83,710,429476960,4294904789,4255,0.82,-0.65,-0.06,-0.71,3.36,-2.82,-38.88,-49.9,-8.54,-14.18,28.74,-9.75,-15.61,Right Fall while Standing
03:48.3,423,577,865.5,890,332,2.08,480.46,1.62,20723.76,329,714,20723.83,710,429476960,4294890297,4969,0.83,-0.64,-0.05,-1.92,3.89,-10.19,-38.37,-50.52,-8.71,-13.94,27.54,-9.9,-15.4,Right Fall while Standing
03:48.4,408,574,861,890,333,2.07,482.61,1.63,20723.76,329,709,20723.83,710,429476960,4294868690,5678,0.83,-0.61,-0.06,-3.43,6.34,-13.66,-36.86,-51.97,-9.08,-13.38,25.89,-10.19,-14.93,Right Fall while Standing
03:48.6,496,572,858,890,333,2.07,482.61,1.63,20723.76,329,711,20723.83,710,429476960,4294849923,6389,0.8,-0.58,-0.03,1.51,0.97,-6.27,-36.41,-52.55,-8.82,-13.51,25.19,-9.92,-15.08,Right Fall while Standing
03:48.7,479,570,855,890,333,2.07,482.61,1.63,20723.8,332,709,20723.97,709,429482816,0,0,0.84,-0.59,-0.05,-0.47,0.39,-3.3,-35.89,-52.98,-8.8,-13.72,24.88,-9.89,-15.29,Right Fall while Standing
03:48.8,473,568,852,890,334,2.06,484.76,1.63,20723.8,332,709,20723.97,709,429482816,4294945689,709,0.86,-0.59,-0.04,-1.91,1.86,-4.96,-35.12,-53.81,-8.98,-13.74,24.35,-10.02,-15.34,Right Fall while Standing
03:48.9,574,568,852,890,334,2.06,484.76,1.63,20723.8,332,714,20723.97,709,429482816,4294931197,1423,0.87,-0.57,-0.04,-1.53,2.16,-6.77,-33.95,-54.94,-9.1,-13.71,23.58,-10.09,-15.36,Right Fall while Standing
03:49.1,417,565,847.5,890,335,2.05,486.92,1.64,20723.8,332,709,20723.97,709,429482816,4294909590,2132,0.87,-0.57,-0.03,-1.16,3.32,-10.59,-33.83,-55.12,-9.18,-13.55,22.33,-10.16,-15.21,Right Fall while Standing
03:49.2,890,572,858,890,335,2.05,486.92,1.64,20723.8,332,721,20723.97,709,429482816,4294905143,2853,0.89,-0.54,-0.04,-1.6,3.21,-10.76,-31.82,-57.08,-9.31,-13.39,21.05,-10.21,-15.14,Right Fall while Standing
03:49.3,403,568,852,890,336,2.04,489.08,1.64,20723.8,332,705,20723.97,709,429482816,4294877880,3558,0.93,-0.51,-0.05,-0.44,6.67,-17.29,-29.54,-59.33,-9.29,-12.79,18.94,-10.1,-14.65,Right Fall while Standing
03:49.5,664,570,855,890,336,2.04,489.08,1.64,20723.8,332,712,20723.97,709,429482816,4294860536,4270,0.93,-0.48,-0.03,-0.98,13.92,-27.03,-27.79,-61.15,-9.35,-11.27,15.58,-10.09,-13.26,Right Fall while Standing
03:49.6,524,569,853.5,890,337,2.04,491.25,1.65,20723.8,332,717,20723.97,709,429482816,4294850337,4987,0.93,-0.43,0.02,-7.53,7.36,-22.99,-25.38,-63.61,-10.24,-10.58,12.74,-10.84,-12.7,Right Fall while Standing
03:49.7,398,566,849,890,337,2.04,491.25,1.65,20723.8,332,708,20723.97,709,429482816,4294827313,5695,0.96,-0.37,0.01,-5.67,2.73,-27.53,-21.4,-67.59,-10.89,-10.49,9.32,-11.31,-12.77,Right Fall while Standing
03:49.8,798,570,855,890,338,2.03,493.43,1.65,20723.8,332,719,20723.97,709,429482816,4294819986,6414,0.99,-0.34,0.04,-7.51,-2.82,-32.09,-19.48,-69.35,-11.78,-11.1,5.31,-12.09,-13.43,Right Fall while Standing
03:50.0,315,566,849,890,339,2.02,495.61,1.66,20723.87,336,705,20723.88,711,429479264,0,0,1.02,-0.28,0.03,1.36,7.71,-40.82,-15.73,-73.18,-11.54,-10.38,0.27,-11.71,-12.9,Right Fall while Standing
03:50.1,525,565,847.5,890,339,2.02,495.61,1.66,20723.87,336,710,20723.88,711,429479264,4294947108,710,0.97,-0.17,-0.02,-20.97,3.77,-30.6,-10.34,-78.6,-14.15,-10.16,-3.55,-14,-12.9,Right Fall while Standing
03:50.2,577,565,847.5,890,340,2.01,497.8,1.66,20723.87,336,716,20723.88,711,429479264,4294935476,1426,0.99,-0.11,0.06,-24.31,-4.06,-27.44,-6.79,-81.41,-17.19,-10.93,-6.96,-16.78,-13.75,Right Fall while Standing
03:50.3,387,563,844.5,890,340,2.01,497.8,1.66,20723.87,336,713,20723.88,711,429479264,4294919557,2139,0.92,-0.08,0.07,-14.78,2.43,-18.93,-5.57,-81.9,-19.01,-10.88,-9.28,-18.48,-13.72,Right Fall while Standing
03:50.5,762,566,849,890,340,2.01,497.8,1.66,20723.87,336,723,20723.88,711,429479264,4294917998,2862,1.03,-0.04,0.02,-9.41,3.1,-23.9,-2.95,-85.87,-20.15,-10.74,-12.24,-19.46,-13.74,Right Fall while Standing
03:50.6,334,562,843,890,341,2,500,1.67,20723.87,336,711,20723.88,711,429479264,4294899231,3573,1.02,0,0.02,-24.98,-7.34,-23.95,-0.43,-87.33,-23.27,-11.93,-15.21,-22.36,-14.95,Right Fall while Standing
03:50.7,625,563,844.5,890,341,2,500,1.67,20723.87,336,714,20723.88,711,429479264,4294884739,4287,0.99,0.08,0.04,-25.43,-11.5,-23.56,3.93,-83.22,-26.46,-13.66,-18.12,-25.24,-16.44,Right Fall while Standing
03:50.9,444,561,841.5,890,342,1.99,502.2,1.67,20723.87,336,712,20723.88,711,429479264,4294867395,4999,0.99,0.1,0,-24.93,-15.4,-10.19,5.33,-82.51,-29.58,-15.89,-19.32,-28.18,-18.55,Right Fall while Standing
03:51.0,507,560,840,890,342,1.99,502.2,1.67,20723.87,336,711,20723.88,711,429479264,4294848628,5710,0.98,0.09,0,-9.57,5.98,0.27,4.71,-83.12,-30.74,-15.38,-19.19,-29.32,-18.09,Right Fall while Standing
03:51.1,781,564,846,890,341,2,500,1.67,20723.87,336,723,20723.88,711,429479264,4294847069,6433,0.98,0.11,-0.02,-16.78,-6.03,4.21,5.69,-82.01,-32.8,-16.4,-18.55,-31.26,-19.02,Right Fall while Standing
03:51.2,271,559,838.5,890,343,1.98,504.41,1.68,20723.94,340,707,20723.95,714,429482272,0,0,1.03,0.09,-0.02,-1.57,0.94,4.31,4.29,-83.43,-32.93,-16.53,-17.91,-31.44,-19.21,Right Fall while Standing
03:51.4,432,558,837,890,342,1.99,502.2,1.67,20723.94,340,715,20723.95,714,429482272,4294954233,715,1.01,0.07,0,-1.59,2.61,-2.14,3.44,-84.4,-33.06,-16.45,-18.08,-31.6,-19.17,Right Fall while Standing
03:51.5,677,559,838.5,890,343,1.98,504.41,1.68,20723.94,340,719,20723.95,714,429482272,4294946906,1434,1.04,0.08,-0.05,-4.05,-2.97,-1.97,3.81,-83.23,-33.5,-17.09,-18.23,-32.01,-19.73,Right Fall while Standing
03:51.6,189,554,831,890,343,1.98,504.41,1.68,20723.94,340,708,20723.95,714,429482272,4294923882,2142,1.01,0.08,-0.03,-2.78,8.37,-0.97,3.82,-83.67,-33.79,-16.27,-18.25,-32.28,-18.97,Right Fall while Standing
03:51.8,556,554,831,890,341,2,500,1.67,20723.94,340,719,20723.95,714,429482272,4294916555,2861,1.03,0.08,-0.01,-4.3,-1.62,3.22,3.99,-83.83,-34.26,-16.73,-17.74,-32.73,-19.42,Right Fall while Standing
03:51.9,233,550,825,890,343,1.98,504.41,1.68,20723.94,340,713,20723.95,714,429482272,4294900636,3574,1.04,0.06,-0.02,-4.26,0.48,-2.53,2.88,-84.83,-34.74,-16.93,-17.97,-33.23,-19.64,Right Fall while Standing
03:52.0,264,546,819,890,342,1.99,502.2,1.67,20723.94,340,711,20723.95,714,429482272,4294881869,4285,0.99,0.11,0.02,8.38,19.89,-2.6,6.06,-81.66,-33.59,-14.64,-18.2,-32,-17.32,Right Fall while Standing
03:52.1,515,546,819,890,341,2,500,1.67,20723.94,340,720,20723.95,714,429482272,4294875981,5005,1,0.04,0.05,1.31,2.2,10.93,1.96,-84.64,-33.35,-14.61,-16.71,-31.94,-17.41,Right Fall while Standing
03:55.0,355,355,532.5,355,337,2.04,491.25,1.65,0,0,707,0,0,0,4294917005,1413,1,-0.07,0.01,3.82,-1.39,-15.14,-4.31,-84.63,1.87,0.72,-2.02,1.62,-2.69,Forward Fall while Standing
03:55.1,433,394,591,433,337,2.04,491.25,1.65,0,0,707,0,0,0,4294892566,2120,0.97,0.02,0.02,-9.39,-21.56,-8.79,0.8,-86.47,0.78,-2.18,-3.01,0.78,-5.55,Forward Fall while Standing
03:55.2,634,474,711,634,336,2.04,489.08,1.64,0,0,711,0,0,0,4294873799,2831,0.99,-0.01,0,-4,-7.66,1.88,-1.14,-87.8,0.36,-3.36,-2.68,0.3,-6.74,Forward Fall while Standing
03:55.3,746,542,813,746,336,2.04,489.08,1.64,0,0,728,0,0,0,4294879495,3559,1.01,-0.02,-0.02,0.56,-21.48,7.86,-1.64,-86.76,0.5,-6.28,-1.61,0.41,-9.5,Forward Fall while Standing
03:55.5,559,545,817.5,746,336,2.04,489.08,1.64,0,0,721,0,0,0,4294875048,4280,1.03,-0.04,-0.08,-6.41,-31.95,6.5,-2.93,-83.5,-0.22,-10.45,-0.71,-0.33,-13.37,Forward Fall while Standing
03:55.6,310,506,759,746,335,2.05,486.92,1.64,0,0,708,0,0,0,4294852024,4988,1.04,-0.09,-0.15,-6.22,-28,3.78,-5.26,-78.92,-0.93,-14.2,-0.14,-1.1,-16.79,Forward Fall while Standing
03:55.7,426,494,741,746,334,2.06,484.76,1.63,0,0,714,0,0,0,4294837532,5702,0.95,-0.07,-0.19,-0.37,-16.93,-5.4,-4.45,-76.65,-0.91,-16.55,-0.71,-1.05,-18.95,Forward Fall while Standing
03:55.8,626,511,766.5,746,334,2.06,484.76,1.63,0,0,715,0,0,0,4294824469,6417,1.03,-0.03,-0.27,-5.14,-31.4,-2.72,-1.93,-73.81,-1.47,-20.66,-0.95,-1.49,-22.78,Forward Fall while Standing
03:55.9,723,534,801,746,334,2.06,484.76,1.63,20723.86,335,795,20723.9,721,429480128,0,0,1.36,-0.11,-0.54,-3.93,-24.52,2.17,-4.84,-66.5,-1.89,-24,-0.57,-2.01,-25.7,Forward Fall while Standing
03:56.1,354,516,774,746,334,2.06,484.76,1.63,20723.86,335,718,20723.9,721,429480128,4294958532,718,0.96,-0.09,-0.36,-4.01,-15.46,-2.11,-5.56,-67.41,-2.34,-26.23,-0.74,-2.47,-27.88,Forward Fall while Standing
03:56.2,530,517,775.5,746,333,2.07,482.61,1.63,20723.86,335,728,20723.9,721,429480128,4294964228,1446,0.97,-0.06,-0.4,1.29,-27.08,-2.24,-3.79,-65.9,-2.1,-29.96,-0.93,-2.17,-31.39,Forward Fall while Standing
03:56.3,698,532,798,746,333,2.07,482.61,1.63,20723.86,335,722,20723.9,721,429480128,4294961224,2168,0.94,-0.08,-0.47,5.76,-17.29,-2.37,-4.99,-61.39,-1.3,-32.41,-1.13,-1.44,-33.57,Forward Fall while Standing
03:56.5,474,528,792,746,332,2.08,480.46,1.62,20723.86,335,707,20723.9,721,429480128,4294936785,2875,1,-0.08,-0.56,4.46,-12.34,-3.21,-4.53,-59.01,-0.65,-34.24,-1.44,-0.81,-35.23,Forward Fall while Standing
03:56.6,868,552,828,868,331,2.09,478.32,1.62,20723.86,335,735,20723.9,721,429480128,4294952722,3610,0.89,-0.07,-0.51,-2.26,-17.46,-0.54,-4.53,-58.14,-0.87,-36.73,-1.41,-1.02,-37.59,Forward Fall while Standing
03:56.7,582,554,831,868,332,2.08,480.46,1.62,20723.86,335,704,20723.9,721,429480128,4294924050,4314,0.88,-0.08,-0.57,-2.73,-22.31,-1.61,-4.82,-55.39,-1.15,-39.84,-1.51,-1.3,-40.47,Forward Fall while Standing
03:56.8,572,555,832.5,868,331,2.09,478.32,1.62,20723.86,335,714,20723.9,721,429480128,4294909558,5028,0.88,-0.08,-0.62,3.02,-23.78,0.95,-4.79,-53.06,-0.69,-43.12,-1.29,-0.86,-43.52,Forward Fall while Standing
03:57.0,640,560,840,868,331,2.09,478.32,1.62,20723.86,335,723,20723.9,721,429480128,4294907999,5751,0.84,-0.09,-0.69,-2.09,-18.82,-0.95,-5.55,-48.99,-0.89,-45.78,-1.31,-1.08,-45.91,Forward Fall while Standing
03:57.1,346,548,822,868,330,2.1,476.19,1.61,20723.86,335,706,20723.9,721,429480128,4294882147,6457,0.82,-0.08,-0.71,0.2,-12.23,0.12,-5.03,-47.49,-0.79,-47.6,-1.2,-0.96,-47.6,Forward Fall while Standing
03:57.2,679,555,832.5,868,329,2.11,474.06,1.61,20723.79,331,724,20724.1,718,429488192,0,0,0.8,-0.09,-0.72,2.12,-9.66,0.21,-5.59,-46.03,-0.46,-49.06,-1.07,-0.66,-48.94,Forward Fall while Standing
03:57.4,597,557,835.5,868,330,2.1,476.19,1.61,20723.79,331,714,20724.1,718,429488192,4294952804,714,0.78,-0.11,-0.74,1.63,-9.23,0.82,-6.56,-44.66,-0.18,-50.5,-0.86,-0.43,-50.27,Forward Fall while Standing
03:57.5,341,547,820.5,868,329,2.11,474.06,1.61,20723.79,331,716,20724.1,718,429488192,4294941172,1430,0.75,-0.12,-0.75,0.4,-12.32,1.55,-7,-42.84,-0.06,-52.32,-0.57,-0.33,-51.94,Forward Fall while Standing
03:57.6,827,560,840,868,328,2.12,471.94,1.6,20723.79,331,718,20724.1,718,429488192,4294932408,2148,0.73,-0.14,-0.78,0.83,-11.04,4.27,-8.08,-41.09,0.12,-53.97,0.08,-0.21,-53.46,Forward Fall while Standing
03:57.7,449,555,832.5,868,329,2.11,474.06,1.61,20723.79,331,709,20724.1,718,429488192,4294910801,2857,0.74,-0.14,-0.82,1.11,-6.11,2.25,-7.62,-40.02,0.34,-55.01,0.47,0.02,-54.41,Forward Fall while Standing
03:57.9,477,551,826.5,868,328,2.12,471.94,1.6,20723.79,331,712,20724.1,718,429488192,4294893457,3569,0.7,-0.14,-0.8,-3.85,-12.91,1.6,-8.17,-39.05,-0.08,-56.89,0.77,-0.4,-56.18,Forward Fall while Standing
03:58.0,575,552,828,868,328,2.12,471.94,1.6,20723.79,331,723,20724.1,718,429488192,4294891898,4292,0.66,-0.15,-0.81,-3.56,-16.77,1.87,-8.93,-37.11,-0.46,-59.29,1.11,-0.8,-58.41,Forward Fall while Standing
03:58.1,364,545,817.5,868,327,2.13,469.83,1.6,20723.79,331,292,20724.1,718,429488192,4294911626,4584,0.52,-0.13,-0.65,0.48,-4.14,2.19,-9.72,-36.38,-0.33,-60.07,1.49,-0.71,-59.12,Forward Fall while Standing
03:58.2,563,546,819,868,328,2.12,471.94,1.6,20723.79,331,717,20724.1,718,429488192,4294901427,5301,0.69,-0.18,-0.86,2.53,-9.91,3.02,-9.8,-36.37,0.06,-61.6,1.97,-0.33,-60.59,Forward Fall while Standing
03:58.4,568,547,820.5,868,329,2.11,474.06,1.61,20723.79,331,718,20724.1,718,429488192,4294892663,6019,0.64,-0.2,-0.88,1.83,-4.99,-2.72,-10.85,-33.79,0.37,-62.48,1.73,-0.08,-61.34,Forward Fall while Standing
03:58.5,311,538,807,868,329,2.11,474.06,1.61,20723.75,328,715,20724.09,673,429487968,0,0,0.62,-0.19,-0.85,4.06,-6.6,-6.25,-10.63,-34.05,0.95,-63.56,1.05,0.48,-62.38,Forward Fall while Standing
03:58.6,608,541,811.5,868,329,2.11,474.06,1.61,20723.75,328,713,20724.09,673,429487968,4294951377,713,0.59,-0.2,-0.88,5.06,-5.33,-3,-11.12,-31.6,1.66,-64.49,0.77,1.15,-63.17,Forward Fall while Standing
03:58.7,568,542,813,868,330,2.1,476.19,1.61,20723.75,328,711,20724.09,673,429487968,4294932610,1424,0.61,-0.2,-0.91,5.05,4.45,-4.21,-10.93,-31.86,2.37,-64.18,0.33,1.84,-62.89,Forward Fall while Standing
03:58.9,299,534,801,868,331,2.09,478.32,1.62,20723.75,328,710,20724.09,673,429487968,4294912422,2134,0.6,-0.21,-0.87,5.24,-0.8,-3.26,-11.64,-32.14,3.11,-64.53,0.02,2.52,-63.24,Forward Fall while Standing
03:59.0,661,538,807,868,331,2.09,478.32,1.62,20723.75,328,716,20724.09,673,429487968,4294900790,2850,0.59,-0.21,-0.89,1.23,-2.85,-3.6,-11.87,-31.33,3.34,-65.15,-0.34,2.73,-63.8,Forward Fall while Standing
03:59.1,405,534,801,868,332,2.08,480.46,1.62,20723.75,328,706,20724.09,673,429487968,4294874938,3556,0.59,-0.22,-0.89,1.39,1.5,-4.34,-12.09,-31.14,3.58,-65.21,-0.79,2.96,-63.85,Forward Fall while Standing
03:59.3,337,528,792,868,332,2.08,480.46,1.62,20723.75,328,714,20724.09,673,429487968,4294860446,4270,0.58,-0.22,-0.88,0.41,-1.67,-2.74,-12.19,-31.06,3.71,-65.68,-1.04,3.07,-64.3,Forward Fall while Standing
03:59.4,787,535,802.5,868,333,2.07,482.61,1.63,20723.75,328,723,20724.09,673,429487968,4294858887,4993,0.59,-0.22,-0.92,-2.27,-3.34,-1.4,-12.15,-30.07,3.49,-66.36,-1.12,2.87,-64.91,Forward Fall while Standing
03:59.5,448,533,799.5,868,333,2.07,482.61,1.63,20723.75,328,716,20724.09,673,429487968,4294847255,5709,0.57,-0.23,-0.89,-6.29,-3.25,-0.56,-12.7,-30.06,2.76,-67.03,-1.09,2.14,-65.55,Forward Fall while Standing
03:59.6,501,532,798,868,334,2.06,484.76,1.63,20723.75,328,708,20724.09,673,429487968,4294824231,6417,0.59,-0.23,-0.89,-2.66,1.63,-1.87,-12.73,-31.03,2.49,-67.08,-1.23,1.88,-65.64,Forward Fall while Standing
03:59.8,460,530,795,868,333,2.07,482.61,1.63,20723.8,331,706,20723.9,712,429479840,0,0,0.58,-0.23,-0.88,-0.37,1.96,-3.34,-12.77,-31.06,2.51,-67.08,-1.55,1.9,-65.64,Forward Fall while Standing
03:59.9,496,529,793.5,868,332,2.08,480.46,1.62,20723.8,331,707,20723.9,712,429479840,4294942857,707,0.58,-0.23,-0.91,-3.01,6.15,-2.31,-12.49,-30.31,2.2,-66.56,-1.74,1.62,-65.11,Forward Fall while Standing
04:00.0,507,529,793.5,868,333,2.07,482.61,1.63,20723.8,331,710,20723.9,712,429479840,4294922669,1417,0.6,-0.22,-0.88,-2.86,5.65,-3,-11.98,-31.65,1.91,-66.09,-2.02,1.36,-64.72,Forward Fall while Standing
04:00.1,544,529,793.5,868,332,2.08,480.46,1.62,20723.8,331,711,20723.9,712,429479840,4294903902,2128,0.61,-0.21,-0.89,-3.33,6.08,-2.73,-11.5,-31.82,1.56,-65.57,-2.27,1.03,-64.22,Forward Fall while Standing
04:00.3,510,529,793.5,868,331,2.09,478.32,1.62,20723.8,331,707,20723.9,712,429479840,4294879463,2835,0.62,-0.21,-0.87,-4.52,7.2,-4.14,-11.73,-33.03,1.05,-64.91,-2.69,0.54,-63.64,Forward Fall while Standing
04:00.4,513,528,792,868,331,2.09,478.32,1.62,20723.8,331,704,20723.9,712,429479840,4294850791,3539,0.62,-0.21,-0.88,-2.05,11.56,-2.7,-11.63,-32.88,0.86,-63.7,-2.94,0.36,-62.46,Forward Fall while Standing
04:00.5,500,528,792,868,329,2.11,474.06,1.61,20723.8,331,709,20723.9,712,429479840,4294829184,4248,0.68,-0.2,-0.88,-1.13,23.12,-2.12,-10.99,-35.24,0.79,-60.99,-3.11,0.32,-59.96,Forward Fall while Standing
04:00.7,473,527,790.5,868,328,2.12,471.94,1.6,20723.8,331,706,20723.9,712,429479840,4294803332,4954,0.73,-0.2,-0.8,-0.24,37.42,-6.21,-10.78,-39.96,0.83,-56.5,-3.8,0.37,-55.83,Forward Fall while Standing
04:00.8,773,532,798,868,328,2.12,471.94,1.6,20723.8,331,713,20723.9,712,429479840,4294787413,5667,0.77,-0.18,-0.71,-11.21,44.53,-8.47,-10.17,-44.92,-0.53,-51.05,-4.78,-0.92,-50.81,Forward Fall while Standing
04:00.9,284,527,790.5,868,328,2.12,471.94,1.6,20723.8,331,710,20723.9,712,429479840,4294767225,6377,0.76,-0.11,-0.61,-7.95,59.5,-0.88,-6.77,-49.14,-1.48,-43.69,-4.79,-1.69,-43.91,Forward Fall while Standing
04:01.0,669,530,795,868,326,2.14,467.72,1.59,20723.77,329,721,20723.81,709,429476288,0,0,0.94,-0.12,-0.52,-1.13,45.53,4.71,-7.13,-58.85,-1.55,-38.21,-4.1,-1.77,-39.03,Forward Fall while Standing
04:01.2,533,530,795,868,325,2.15,465.62,1.59,20723.77,329,722,20723.81,709,429476288,4294964292,722,0.97,-0.18,-0.49,3.06,41.42,-7.47,-9.8,-60.32,-1.09,-33.2,-4.95,-1.44,-34.29,Forward Fall while Standing
04:01.3,348,526,789,868,324,2.16,463.52,1.58,20723.77,329,707,20723.81,709,429476288,4294939853,1429,0.96,-0.15,-0.42,-10.62,18.15,-14.56,-8.76,-63.8,-2.37,-31.15,-6.7,-2.62,-32.46,Forward Fall while Standing
04:01.4,799,531,796.5,868,322,2.18,459.34,1.57,20723.77,329,722,20723.81,709,429476288,4294936849,2151,0.96,-0.09,-0.4,-5.85,31.47,-7.36,-5.45,-65.19,-3.05,-27.35,-7.54,-3.15,-28.86,Forward Fall while Standing
04:01.5,515,531,796.5,868,319,2.21,453.13,1.56,20723.77,329,712,20723.81,709,429476288,4294919505,2863,0.92,-0.07,-0.27,-6.69,44.37,4.66,-4.83,-71.47,-3.83,-21.97,-6.85,-3.87,-23.95,Forward Fall while Standing
04:01.7,688,534,801,868,318,2.22,451.06,1.55,20723.77,329,715,20723.81,709,429476288,4294906442,3578,0.96,-0.07,-0.24,-15.01,41.44,17.5,-4.68,-73.71,-5.68,-16.92,-4.51,-5.64,-19.19,Forward Fall while Standing
04:01.8,801,539,808.5,868,318,2.22,451.06,1.55,20723.77,329,721,20723.81,709,429476288,4294901995,4299,0.91,-0.14,-0.11,-24.02,40.69,12.34,-9.5,-77.28,-8.68,-11.97,-2.83,-8.72,-14.58,Forward Fall while Standing
04:01.9,518,538,807,868,317,2.23,449.01,1.55,20723.77,329,712,20723.81,709,429476288,4294884651,5011,1.02,-0.2,-0.06,-27.34,13.43,10.66,-11.51,-76.96,-12.08,-10.52,-1.37,-12.06,-13.17,Forward Fall while Standing
04:02.1,745,542,813,868,316,2.24,446.96,1.54,20723.77,329,725,20723.81,709,429476288,4294885988,5736,1.01,-0.25,0.04,-12.55,-1.38,2.76,-14.35,-74.47,-13.63,-10.95,-0.92,-13.66,-13.49,Forward Fall while Standing
04:02.2,75,534,801,868,316,2.24,446.96,1.54,20723.77,329,709,20723.81,709,429476288,4294864381,6445,1.06,-0.21,-0.05,4.66,0.61,-5.06,-11.61,-77.04,-12.96,-11.13,-1.46,-12.91,-13.77,Forward Fall while Standing
04:02.3,66,526,789,868,315,2.25,444.92,1.54,20723.6,319,712,20724.01,715,429484704,0,0,1,-0.24,-0.09,-1.87,-5.02,-4.32,-13.92,-74.06,-13.13,-12.01,-1.9,-13.16,-14.49,Forward Fall while Standing
04:02.4,107,519,778.5,868,316,2.24,446.96,1.54,20723.6,319,723,20724.01,715,429484704,4294965737,723,1.04,-0.2,-0.08,1.94,0.59,-7.3,-11.3,-76.91,-12.81,-12.19,-2.74,-12.75,-14.78,Forward Fall while Standing
04:02.6,0,510,765,868,316,2.24,446.96,1.54,20723.6,319,710,20724.01,715,429484704,4294945549,1433,0.98,-0.16,-0.05,-2.64,1.67,-6.05,-10.01,-78.48,-13.07,-12.23,-3.41,-12.95,-14.88,Forward Fall while Standing
04:02.7,0,502,753,868,314,2.26,442.88,1.53,20723.6,319,729,20724.01,715,429484704,4294952702,2162,1,-0.16,-0.11,1.14,-1.1,1.57,-9.7,-77.39,-12.85,-12.63,-3.11,-12.73,-15.22,Forward Fall while Standing
04:02.8,113,496,744,868,316,2.24,446.96,1.54,20723.6,319,713,20724.01,715,429484704,4294936783,2875,1.01,-0.18,-0.05,0.32,8.21,0.47,-10.59,-78.02,-12.74,-11.84,-2.95,-12.66,-14.49,Forward Fall while Standing
04:03.0,233,492,738,868,316,2.24,446.96,1.54,20723.6,319,718,20724.01,715,429484704,4294928019,3593,1.03,-0.18,-0.05,-6.18,1.02,-3.86,-10.61,-77.93,-13.46,-11.96,-3.34,-13.35,-14.6,Forward Fall while Standing
04:09.0,488,488,732,488,324,2.16,463.52,1.58,0,0,819,0,0,0,4294956874,1570,0.98,-0.03,0.07,-2.32,-9.12,-0.81,-2.51,-83.8,-0.19,-2.03,-0.29,-0.28,-5.3,Sitting
04:09.2,384,436,654,488,324,2.16,463.52,1.58,0,0,400,0,0,0,18506,1970,1.05,-0.04,0.08,-14.98,2.88,-8.23,-2.58,-83.38,-1.96,-1.93,-1.21,-1.99,-5.18,Sitting
04:09.3,403,425,637.5,488,323,2.17,461.43,1.58,0,0,700,0,0,0,49754,2670,1.03,-0.05,0.1,-3.09,9.53,-11.39,-3.49,-82.18,-2.27,-1,-2.51,-2.32,-4.25,Sitting
04:09.4,327,400,600,488,322,2.18,459.34,1.57,0,0,720,0,0,0,43866,3390,1,0,0.1,-3.56,3.38,-17.19,-0.36,-82.52,-2.64,-0.83,-4.53,-2.55,-4.1,Sitting
04:09.5,619,444,666,619,320,2.2,455.19,1.56,0,0,729,0,0,0,51019,4119,0.94,0.03,0.12,-6.4,0.87,1.4,0.98,-81.13,-3.36,-0.97,-4.26,-3.19,-4.17,Sitting
04:09.7,645,477,715.5,645,320,2.2,455.19,1.56,0,0,727,0,0,0,55260,4846,1.01,-0.01,0.05,-3.7,-12.17,-2.61,-1.12,-85.44,-3.74,-2.7,-4.48,-3.64,-6.01,Sitting
04:09.8,553,488,732,645,320,2.2,455.19,1.56,0,0,721,0,0,0,50813,5567,1.05,0.03,0.05,-8.61,-8.37,-9.2,1.15,-85.04,-4.73,-3.96,-5.51,-4.49,-7.2,Sitting
04:09.9,437,482,723,645,319,2.21,453.13,1.56,0,0,718,0,0,0,42049,6285,1.03,0.02,0.06,-13.14,-1.75,-5.83,0.45,-85.12,-6.27,-4.42,-6.13,-6,-7.65,Sitting
04:10.0,431,476,714,645,319,2.21,453.13,1.56,20723.63,321,710,46.75,699,2185,0,0,1.02,-0.08,0.04,-13.17,-4.03,-6.74,-5.02,-83.49,-7.84,-5.17,-6.87,-7.72,-8.3,Sitting
04:10.1,467,475,712.5,645,317,2.23,449.01,1.55,20723.63,321,710,46.75,699,2185,4294947108,710,1.03,0.02,0.07,-7.85,6.4,-17.67,0.52,-84.14,-8.75,-4.62,-8.99,-8.38,-7.8,Sitting
04:10.3,633,489,733.5,645,318,2.22,451.06,1.55,20723.63,321,711,46.75,699,2185,4294928341,1421,0.96,0.07,0.1,-17.39,0.34,-6.41,3.49,-81,-10.86,-4.82,-9.7,-10.28,-7.87,Sitting
04:10.4,500,490,735,645,316,2.24,446.96,1.54,20723.63,321,719,46.75,699,2185,4294921014,2140,0.99,0.07,0.07,-30.29,-28.97,-0.48,3.36,-82.59,-14.6,-8.73,-9.66,-13.89,-11.68,Sitting
04:10.5,492,490,735,645,315,2.25,444.92,1.54,20723.63,321,711,46.75,699,2185,4294902247,2851,1.04,0.05,0.02,-16.12,-15.53,8.6,2.32,-85.34,-16.57,-10.93,-8.47,-15.81,-13.91,Sitting
04:10.6,518,492,738,645,315,2.25,444.92,1.54,20723.63,321,711,46.75,699,2185,4294883480,3562,1.02,-0.04,0,11.73,0.85,-1.21,-3.05,-85.95,-15,-11.08,-8.53,-14.53,-14.07,Sitting
04:10.8,495,492,738,645,314,2.26,442.88,1.53,20723.63,321,716,46.75,699,2185,4294871848,4278,1.04,0.04,-0.08,18.15,19.68,-7.63,1.43,-83.44,-12.65,-8.85,-9.39,-12.08,-11.84,Sitting
04:10.9,539,495,742.5,645,316,2.24,446.96,1.54,20723.63,321,708,46.75,699,2185,4294848824,4986,0.89,0.05,0.02,8.13,31.32,-8.53,2.53,-85.06,-11.54,-5.13,-10.37,-10.98,-8.33,Sitting
04:11.0,552,499,748.5,645,315,2.25,444.92,1.54,20723.63,321,710,46.75,699,2185,4294828636,5696,0.95,0.05,0.08,-1.63,-31.93,15.67,2.73,-82.69,-11.68,-9.37,-8.31,-11.1,-12.3,Sitting
04:11.2,564,502,753,645,315,2.25,444.92,1.54,20723.63,321,709,46.75,699,2185,4294807029,6405,1.05,-0.03,0.11,-1.81,-23.47,16.21,-2.34,-82.01,-11.84,-12.6,-6.15,-11.46,-15.38,Sitting
04:11.3,507,502,753,645,314,2.26,442.88,1.53,20723.54,315,714,20723.88,711,429479264,0,0,1.06,-0.05,0,24.87,33.77,-3.56,-3.42,-85.58,-8.63,-8.6,-6.5,-8.42,-11.68,Sitting
04:11.4,530,504,756,645,315,2.25,444.92,1.54,20723.54,315,707,20723.88,711,429479264,4294942857,707,1.02,-0.05,0.02,-6.84,-6.11,-5.64,-3.29,-85.4,-9.43,-9.63,-7.12,-9.18,-12.66,Sitting
04:11.5,500,504,756,645,314,2.26,442.88,1.53,20723.54,315,711,20723.88,711,429479264,4294924090,1418,0.99,0.01,0.04,-1.24,1.05,-2.82,-0.06,-85.86,-9.52,-9.75,-7.38,-9.14,-12.8,Sitting
04:11.7,493,503,754.5,645,314,2.26,442.88,1.53,20723.54,315,713,20723.88,711,429479264,4294908171,2131,1.02,-0.01,0.02,1.84,1.74,1.91,-1.14,-87.14,-9.21,-9.79,-7.04,-8.89,-12.88,Sitting
04:11.8,556,505,757.5,645,315,2.25,444.92,1.54,20723.54,315,709,20723.88,711,429479264,4294886564,2840,1.02,-0.01,0.03,-3.06,-0.44,-1.43,-1.24,-86.56,-9.53,-10.1,-7.12,-9.2,-13.16,Sitting
04:11.9,540,507,760.5,645,315,2.25,444.92,1.54,20723.54,315,713,20723.88,711,429479264,4294870645,3553,1,-0.02,0.03,-2.47,2.24,-4.49,-1.76,-86.37,-9.77,-10.07,-7.59,-9.45,-13.12,Sitting
04:12.0,656,513,769.5,656,315,2.25,444.92,1.54,20723.54,315,708,20723.88,711,429479264,4294847621,4261,1,0,0.05,-4.24,2.85,-2.79,-0.5,-85.75,-10.24,-9.96,-7.84,-9.85,-12.99,Sitting
04:12.2,540,514,771,656,316,2.24,446.96,1.54,20723.54,315,715,20723.88,711,429479264,4294834558,4976,1.02,0,0.03,-1.31,2.93,0.44,-0.55,-86.82,-10.33,-9.84,-7.69,-9.94,-12.92,Sitting
04:12.3,480,512,768,656,316,2.24,446.96,1.54,20723.54,315,711,20723.88,711,429479264,4294815791,5687,1.02,-0.02,0.05,-5.88,0.52,-0.43,-1.73,-85.23,-11.01,-10.03,-7.64,-10.64,-13.04,Sitting
04:12.4,485,511,766.5,656,316,2.24,446.96,1.54,20723.54,315,715,20723.88,711,429479264,4294802728,6402,1.01,-0.01,0.04,-0.92,2.66,-0.34,-1.21,-85.97,-11.06,-9.94,-7.58,-10.66,-12.98,Sitting
04:12.5,495,511,766.5,656,317,2.23,449.01,1.55,20723.54,315,712,20723.86,711,429478528,0,0,0.99,-0.02,0.08,-1.66,1.44,0.75,-1.79,-83.56,-11.19,-10.01,-7.39,-10.82,-12.95,Sitting
04:12.7,493,510,765,656,317,2.23,449.01,1.55,20723.54,315,709,20723.86,711,429478528,4294945689,709,1.03,-0.03,0.06,-2.24,0.96,0.55,-2.51,-84.55,-11.41,-10.14,-7.22,-11.05,-13.12,Sitting
04:12.8,548,511,766.5,656,318,2.22,451.06,1.55,20723.54,315,716,20723.86,711,429478528,4294934057,1425,1.02,-0.02,0.05,1.66,3,-3.85,-1.93,-85.18,-11.13,-10.02,-7.61,-10.76,-13.02,Sitting
04:12.9,325,506,759,656,318,2.22,451.06,1.55,20723.54,315,714,20723.86,711,429478528,4294919565,2139,1,0,0.04,-2.7,2.18,-2.51,-0.83,-85.97,-11.4,-9.99,-7.83,-10.98,-13.03,Sitting
04:13.1,521,506,759,656,319,2.21,453.13,1.56,20723.54,315,710,20723.86,711,429478528,4294899377,2849,1.01,-0.02,0.07,-3.6,0.08,0.97,-1.87,-84.34,-11.78,-10.24,-7.61,-11.39,-13.2,Sitting
04:13.2,527,507,760.5,656,320,2.2,455.19,1.56,20723.54,315,721,20723.86,711,429478528,4294894930,3570,1.01,-0.02,0.06,1.16,1.37,-1.79,-1.72,-84.63,-11.56,-10.32,-7.74,-11.17,-13.29,Sitting
04:13.3,491,506,759,656,320,2.2,455.19,1.56,20723.54,315,710,20723.86,711,429478528,4294874742,4280,1.01,-0.02,0.05,-4.24,0.06,-0.53,-1.63,-85.25,-12.03,-10.56,-7.7,-11.61,-13.55,Sitting
04:13.4,552,507,760.5,656,321,2.19,457.26,1.57,20723.54,315,713,20723.86,711,429478528,4294858823,4993,1.02,-0.02,0.07,-2.41,3.83,-0.83,-1.63,-84.42,-12.27,-10.33,-7.71,-11.84,-13.29,Sitting
04:13.6,578,509,763.5,656,322,2.18,459.34,1.57,20723.54,315,711,20723.86,711,429478528,4294840056,5704,1.02,-0.02,0.07,-0.72,-0.14,-1.69,-1.92,-84.03,-12.29,-10.6,-7.82,-11.87,-13.54,Sitting
04:13.7,556,511,766.5,656,322,2.18,459.34,1.57,20723.54,315,708,20723.86,711,429478528,4294817032,6412,1,-0.01,0.03,0.23,0.93,-1.21,-1.11,-86.36,-12.19,-10.74,-7.88,-11.74,-13.76,Sitting
04:13.8,519,511,766.5,656,323,2.17,461.43,1.58,20723.61,320,716,20723.91,712,429480544,0,0,1.02,-0.01,0.07,1.66,8.81,-1.34,-1.09,-84.54,-11.91,-9.89,-7.94,-11.48,-12.87,Sitting
04:13.9,575,512,768,656,323,2.17,461.43,1.58,20723.61,320,710,20723.91,712,429480544,4294947108,710,1.03,-0.02,0.08,-0.08,0.17,-2.72,-1.74,-83.89,-11.85,-10.12,-8.19,-11.44,-13.07,Sitting
04:14.1,520,513,769.5,656,323,2.17,461.43,1.58,20723.61,320,713,20723.91,712,429480544,4294931189,1423,1.02,0,0.04,-4.2,-2.66,-3.57,-0.39,-86.34,-12.31,-10.72,-8.55,-11.84,-13.74,Sitting
04:14.2,518,513,769.5,656,324,2.16,463.52,1.58,20723.61,320,713,20723.91,712,429480544,4294915270,2136,1,-0.01,0.08,-4.94,1.8,-0.69,-0.97,-83.92,-12.87,-10.74,-8.53,-12.4,-13.67,Sitting
04:14.3,504,512,768,656,324,2.16,463.52,1.58,20723.61,320,724,20723.91,712,429480544,4294915158,2860,1.02,-0.03,0.1,-3.23,0.34,-0.31,-1.99,-82.66,-13.21,-10.95,-8.47,-12.76,-13.82,Sitting
04:14.5,513,512,768,656,324,2.16,463.52,1.58,20723.61,320,713,20723.91,712,429480544,4294899239,3573,1.01,-0.01,0.07,-0.32,1.33,-0.98,-1.11,-84.47,-13.18,-11.04,-8.5,-12.7,-13.98,Sitting
04:14.6,510,512,768,656,325,2.15,465.62,1.59,20723.61,320,711,20723.91,712,429480544,4294880472,4284,1.03,-0.02,0.07,-4.05,1.39,0.94,-1.61,-84.21,-13.63,-11.12,-8.28,-13.15,-14.04,Sitting
04:14.7,467,511,766.5,656,323,2.17,461.43,1.58,20723.61,320,714,20723.91,712,429480544,4294865980,4998,1.01,-0.03,0.08,0.18,-2.13,-0.18,-2.02,-83.63,-13.54,-11.64,-8.2,-13.08,-14.52,Sitting
04:14.8,547,512,768,656,324,2.16,463.52,1.58,20723.61,320,713,20723.91,712,429480544,4294850061,5711,1.01,-0.02,0.04,0.52,5.23,-0.36,-1.91,-85.59,-13.4,-11.23,-8.14,-12.94,-14.2,Sitting
04:15.0,505,512,768,656,324,2.16,463.52,1.58,20723.61,320,715,20723.91,712,429480544,4294836998,6426,1.02,-0.03,0.07,-2.27,-4.79,-0.76,-2.42,-83.89,-13.62,-12.09,-8.14,-13.17,-14.96,Sitting
04:15.1,499,512,768,656,324,2.16,463.52,1.58,20723.67,323,708,20723.93,713,429481408,0,0,1.01,-0.03,0.06,-3.02,0.86,-2.85,-2.07,-84.83,-13.93,-12.23,-8.4,-13.45,-15.14,Sitting
04:15.2,444,510,765,656,325,2.15,465.62,1.59,20723.67,323,711,20723.93,713,429481408,4294948529,711,1.01,-0.02,0.06,-3.72,3.79,-2.19,-1.9,-84.54,-14.33,-12,-8.58,-13.83,-14.91,Sitting
04:15.4,403,508,762,656,325,2.15,465.62,1.59,20723.67,323,709,20723.93,713,429481408,4294926922,1420,1.02,-0.02,0.08,-2.6,1.95,-2.02,-1.79,-83.92,-14.59,-12.01,-8.73,-14.08,-14.89,Sitting
04:15.5,436,507,760.5,656,325,2.15,465.62,1.59,20723.67,323,718,20723.93,713,429481408,4294918158,2138,1.01,-0.02,0.1,-1.46,0.73,-1.45,-1.58,-82.78,-14.7,-12.17,-8.82,-14.18,-15,Sitting
04:15.6,513,507,760.5,656,326,2.14,467.72,1.59,20723.67,323,713,20723.93,713,429481408,4294902239,2851,1,-0.01,0.06,-3.08,-0.78,-0.62,-1.38,-84.73,-15.03,-12.53,-8.8,-14.48,-15.42,Sitting
04:15.7,533,507,760.5,656,325,2.15,465.62,1.59,20723.67,323,709,20723.93,713,429481408,4294880632,3560,1.01,-0.02,0.08,-3.07,0.79,-3.56,-1.79,-83.83,-15.35,-12.69,-9.15,-14.81,-15.53,Sitting
04:15.9,596,509,763.5,656,325,2.15,465.62,1.59,20723.67,323,711,20723.93,713,429481408,4294861865,4271,1,0,0.07,-0.81,2.94,-2.39,-0.66,-84.38,-15.38,-12.57,-9.36,-14.79,-15.44,Sitting
04:16.0,363,506,759,656,325,2.15,465.62,1.59,20723.67,323,716,20723.93,713,429481408,4294850233,4987,1.02,-0.02,0.1,-4.12,-0.61,0.12,-1.55,-82.5,-15.84,-12.9,-9.24,-15.26,-15.68,Sitting
04:16.1,543,507,760.5,656,325,2.15,465.62,1.59,20723.67,323,715,20723.93,713,429481408,4294837170,5702,1,-0.01,0.04,-1.58,4.76,-2.34,-1.3,-85.78,-15.97,-12.55,-9.44,-15.38,-15.48,Sitting
04:16.2,548,508,762,656,325,2.15,465.62,1.59,20723.67,323,716,20723.93,713,429481408,4294825538,6418,0.99,-0.01,0.11,-0.89,1.43,-1.08,-1.28,-81.8,-16.01,-12.62,-9.47,-15.42,-15.39,Sitting
04:16.4,485,507,760.5,656,324,2.16,463.52,1.58,20723.69,325,714,20723.93,713,429481088,0,0,1.02,-0.01,0.07,-2.52,-3.92,-0.87,-1.32,-84.63,-16.26,-13.37,-9.48,-15.66,-16.22,Sitting
04:16.5,510,507,760.5,656,324,2.16,463.52,1.58,20723.69,325,714,20723.93,713,429481088,4294952804,714,1.01,-0.01,0.07,-5.76,3.35,-3.32,-1.15,-84.3,-16.92,-13.19,-9.81,-16.29,-16.04,Sitting
04:16.6,549,508,762,656,323,2.17,461.43,1.58,20723.69,325,713,20723.93,713,429481088,4294936885,1427,0.99,-0.01,0.09,-2.98,1.44,-1.12,-1.02,-83.1,-17.23,-13.26,-9.85,-16.58,-16.06,Sitting
04:16.8,504,508,762,656,322,2.18,459.34,1.57,20723.69,325,715,20723.93,713,429481088,4294923822,2142,1.01,-0.02,0.08,-1.05,-0.38,0.34,-1.56,-83.61,-17.29,-13.57,-9.71,-16.66,-16.37,Sitting
04:16.9,515,508,762,656,322,2.18,459.34,1.57,20723.69,325,713,20723.93,713,429481088,4294907903,2855,1.02,-0.01,0.07,-0.44,1.89,-2.84,-1.02,-84.47,-17.28,-13.58,-9.97,-16.63,-16.42,Sitting
04:17.0,483,508,762,656,322,2.18,459.34,1.57,20723.69,325,713,20723.93,713,429481088,4294891984,3568,1,0.01,0.07,-3.22,1.63,-2.16,-0.1,-84.45,-17.62,-13.63,-10.14,-16.92,-16.46,Sitting
04:17.1,494,507,760.5,656,321,2.19,457.26,1.57,20723.69,325,714,20723.93,713,429481088,4294877492,4282,1.01,0,0.07,-0.44,2.35,0.49,-0.52,-84.19,-17.6,-13.58,-9.98,-16.92,-16.41,Sitting
04:17.3,552,508,762,656,322,2.18,459.34,1.57,20723.69,325,720,20723.93,713,429481088,4294871604,5002,1.02,-0.01,0.06,-3.08,-0.32,-0.47,-1.07,-84.77,-17.93,-13.88,-9.94,-17.25,-16.72,Sitting
04:17.4,704,511,766.5,704,321,2.19,457.26,1.57,20723.69,325,711,20723.93,713,429481088,4294852837,5713,1.01,-0.02,0.08,-4.63,1.4,-2.29,-1.72,-83.76,-18.44,-13.96,-10.13,-17.77,-16.75,Sitting
04:17.5,522,511,766.5,704,321,2.19,457.26,1.57,20723.69,325,713,20723.93,713,429481088,4294836918,6426,0.99,0,0.09,-0.53,1.56,-0.93,-0.79,-82.96,-18.44,-14.01,-10.15,-17.73,-16.77,Sitting
04:17.6,479,511,766.5,704,321,2.19,457.26,1.57,20723.64,321,713,20723.95,713,429482112,0,0,1,0,0.06,-0.08,0.42,1.01,-0.75,-85.04,-18.38,-14.21,-9.92,-17.67,-17.05,Sitting
04:17.8,513,511,766.5,704,320,2.2,455.19,1.56,20723.64,321,713,20723.95,713,429482112,4294951377,713,1.03,-0.01,0.07,-2.3,3.21,0.56,-1.22,-84.31,-18.6,-14.06,-9.75,-17.91,-16.87,Sitting
04:17.9,378,509,763.5,704,321,2.19,457.26,1.57,20723.64,321,716,20723.95,713,429482112,4294939745,1429,1.01,-0.02,0.09,-0.56,1.05,-1.27,-1.87,-83.29,-18.6,-14.18,-9.81,-17.93,-16.94,Sitting
04:18.0,446,508,762,704,320,2.2,455.19,1.56,20723.64,321,712,20723.95,713,429482112,4294922401,2141,1.01,0,0.08,-2.27,1.85,-1.93,-0.83,-83.98,-18.82,-14.2,-9.96,-18.1,-16.99,Sitting
04:18.2,446,507,760.5,704,320,2.2,455.19,1.56,20723.64,321,711,20723.95,713,429482112,4294903634,2852,1.02,-0.01,0.07,-1.95,-1.58,-2.18,-1.02,-84.5,-19,-14.65,-10.13,-18.28,-17.45,Sitting
04:18.3,506,507,760.5,704,321,2.19,457.26,1.57,20723.64,321,710,20723.95,713,429482112,4294883446,3562,1.01,-0.02,0.07,-3.84,0.4,-3.14,-1.52,-84.31,-19.42,-14.86,-10.44,-18.7,-17.63,Sitting
04:18.4,334,505,757.5,704,320,2.2,455.19,1.56,20723.64,321,716,20723.95,713,429482112,4294871814,4278,1.01,0,0.07,-1.35,2.42,-2.45,-0.51,-84.28,-19.52,-14.8,-10.65,-18.76,-17.58,Sitting
04:18.5,506,505,757.5,704,320,2.2,455.19,1.56,20723.64,321,713,20723.95,713,429482112,4294855895,4991,1,-0.01,0.08,-2.63,-0.13,-1.82,-0.98,-83.88,-19.78,-15.07,-10.78,-19.03,-17.83,Sitting
04:18.7,477,504,756,704,319,2.21,453.13,1.56,20723.64,321,711,20723.95,713,429482112,4294837128,5702,1.01,-0.01,0.09,-2.66,1.12,-0.85,-0.95,-83.45,-20.05,-15.19,-10.79,-19.29,-17.92,Sitting
04:18.8,477,504,756,704,319,2.21,453.13,1.56,20723.64,321,714,20723.95,713,429482112,4294822636,6416,1.01,-0.01,0.09,-0.56,-0.97,-1.23,-0.92,-83.34,-20.05,-15.57,-10.84,-19.29,-18.28,Sitting
04:18.9,519,504,756,704,319,2.21,453.13,1.56,20723.61,319,713,20723.92,712,429480672,0,0,1,0,0.07,-0.55,0.63,-2.5,-0.84,-84.26,-20.05,-15.74,-11.06,-19.28,-18.48,Sitting
04:19.1,553,505,757.5,704,318,2.22,451.06,1.55,20723.61,319,713,20723.92,712,429480672,4294951377,713,1,0,0.08,-1.15,1.13,-0.24,-0.45,-83.93,-20.12,-15.85,-10.99,-19.34,-18.57,Sitting
04:19.2,582,506,759,704,318,2.22,451.06,1.55,20723.61,319,716,20723.92,712,429480672,4294939745,1429,1.02,-0.01,0.06,-2.08,-0.98,0.36,-1,-84.83,-20.32,-16.23,-10.84,-19.55,-18.97,Sitting
04:19.3,562,506,759,704,318,2.22,451.06,1.55,20723.61,319,711,20723.92,712,429480672,4294920978,2140,1.01,-0.01,0.07,-1.66,0.82,-1.82,-1.38,-84.18,-20.46,-16.38,-10.98,-19.7,-19.09,Sitting
04:19.4,557,507,760.5,704,318,2.22,451.06,1.55,20723.61,319,717,20723.92,712,429480672,4294910779,2857,1.01,0,0.08,-1.41,0.33,-1.58,-0.58,-83.95,-20.57,-16.59,-11.08,-19.77,-19.29,Sitting
04:19.6,618,508,762,704,318,2.22,451.06,1.55,20723.61,319,714,20723.92,712,429480672,4294896287,3571,1.02,-0.01,0.07,-1.02,0.69,0.05,-1.13,-84.64,-20.63,-16.76,-10.97,-19.85,-19.48,Sitting
04:19.7,561,509,763.5,704,318,2.22,451.06,1.55,20723.61,319,715,20723.92,712,429480672,4294883224,4286,1.02,-0.01,0.04,-3.76,0.95,-1.35,-1.28,-85.83,-21.03,-16.9,-11.04,-20.24,-19.65,Sitting
04:19.8,537,509,763.5,704,318,2.22,451.06,1.55,20723.61,319,714,20723.92,712,429480672,4294868732,5000,1.03,-0.02,0.09,-4.61,1.56,-2.66,-1.48,-83.23,-21.55,-16.95,-11.28,-20.75,-19.6,Sitting
04:19.9,559,510,765,704,319,2.21,453.13,1.56,20723.61,319,712,20723.92,712,429480672,4294851388,5712,1.01,0.01,0.07,-2.24,1.69,-4.17,-0.14,-84.26,-21.77,-16.99,-11.71,-20.9,-19.68,Sitting
04:20.1,535,510,765,704,318,2.22,451.06,1.55,20723.61,319,710,20723.92,712,429480672,4294831200,6422,1,0.01,0.08,-1.09,1.05,-0.55,0.07,-83.95,-21.83,-17.11,-11.68,-20.96,-19.79,Sitting
04:20.2,600,511,766.5,704,319,2.21,453.13,1.56,20723.58,318,716,20723.95,713,429481952,0,0,1,0.01,0.05,-2.48,-0.51,-1.15,-0.04,-85.52,-22.07,-17.43,-11.73,-21.19,-20.15,Sitting
04:20.3,351,509,763.5,704,319,2.21,453.13,1.56,20723.58,318,713,20723.95,713,429481952,4294951377,713,1.02,0,0.08,0.18,-0.14,-0.21,-0.53,-83.7,-21.98,-17.7,-11.65,-21.12,-20.34,Sitting
04:20.5,537,510,765,704,320,2.2,455.19,1.56,20723.58,318,711,20723.95,713,429481952,4294932610,1424,1.01,-0.01,0.05,-2.45,1.4,0.25,-0.92,-85.8,-22.22,-17.78,-11.52,-21.37,-20.5,Sitting
04:20.6,551,510,765,704,321,2.19,457.26,1.57,20723.58,318,715,20723.95,713,429481952,4294919547,2139,1.01,0,0.06,-1.08,3.78,-3.47,-0.65,-84.95,-22.29,-17.55,-11.86,-21.42,-20.25,Sitting
04:20.7,519,510,765,704,321,2.19,457.26,1.57,20723.58,318,715,20723.95,713,429481952,4294906484,2854,1,0,0.09,-1.79,0.64,-0.09,-0.68,-83,-22.45,-17.73,-11.77,-21.57,-20.34,Sitting
04:20.8,535,510,765,704,321,2.19,457.26,1.57,20723.58,318,715,20723.95,713,429481952,4294893421,3569,1,0,0.07,-0.11,-0.26,0.23,-0.65,-84.31,-22.39,-18.02,-11.64,-21.52,-20.67,Sitting
04:21.0,524,511,766.5,704,322,2.18,459.34,1.57,20723.58,318,712,20723.95,713,429481952,4294876077,4281,1.01,-0.01,0.06,-0.81,2.42,-0.23,-1.22,-84.96,-22.42,-17.96,-11.57,-21.57,-20.64,Sitting
04:21.1,530,511,766.5,704,322,2.18,459.34,1.57,20723.58,318,714,20723.95,713,429481952,4294861585,4995,1.01,0,0.07,-4.11,-0.25,-4.23,-0.76,-84.32,-22.87,-18.25,-12.01,-21.99,-20.89,Sitting
04:21.2,673,512,768,704,324,2.16,463.52,1.58,20723.58,318,711,20723.95,713,429481952,4294842818,5706,0.98,0,0.08,-5.67,-2.85,-2.95,-0.85,-83.94,-23.53,-18.87,-12.28,-22.62,-21.47,Sitting
04:21.4,492,512,768,704,323,2.17,461.43,1.58,20723.58,318,713,20723.95,713,429481952,4294826899,6419,0.99,0,0.08,-0.64,-0.21,0.41,-0.65,-83.73,-23.54,-19.15,-12.13,-22.62,-21.74,Sitting
04:21.5,503,512,768,704,324,2.16,463.52,1.58,20723.64,321,713,20723.93,713,429481088,0,0,1.02,0.01,0.04,-4.5,-7.53,-4.63,-0.2,-86.33,-24.04,-20.36,-12.61,-23.08,-22.99,Sitting
04:21.6,485,512,768,704,324,2.16,463.52,1.58,20723.64,321,716,20723.93,713,429481088,4294955664,716,0.98,0.01,0.03,-6.47,-10.32,0.05,0.07,-86.74,-24.79,-21.92,-12.51,-23.79,-24.51,Sitting
04:21.7,468,512,768,704,324,2.16,463.52,1.58,20723.64,321,715,20723.93,713,429481088,4294942601,1431,0.98,-0.02,0.05,-0.48,-0.1,13.65,-1.63,-85.27,-24.78,-22.19,-10.66,-23.85,-24.71,Sitting
04:21.9,536,513,769.5,704,324,2.16,463.52,1.58,20723.64,321,713,20723.93,713,429481088,4294926682,2144,1.12,-0.08,0.04,-4.05,-5.89,7.27,-4.8,-83.79,-25.22,-23.2,-9.63,-24.41,-25.62,Sitting
04:22.0,531,514,771,704,324,2.16,463.52,1.58,20723.64,321,718,20723.93,713,429481088,4294917918,2862,1.03,-0.06,-0.01,4.37,5.02,-9.84,-4.03,-84.9,-24.59,-22.81,-10.78,-23.77,-25.3,Sitting
04:22.1,500,516,774,704,324,2.16,463.52,1.58,20723.64,321,709,20723.93,713,429481088,4294896311,3571,0.98,0,-0.01,-7,-1.39,-5.89,-0.58,-87.64,-25.42,-23.25,-11.44,-24.42,-25.82,Sitting
04:22.2,556,516,774,704,324,2.16,463.52,1.58,20723.64,321,712,20723.93,713,429481088,4294878967,4283,1.03,-0.01,0.01,-8.26,0.45,0.56,-0.97,-87.92,-26.4,-23.44,-11.26,-25.39,-26.02,Sitting
04:22.4,503,514,771,704,323,2.17,461.43,1.58,20723.64,321,713,20723.93,713,429481088,4294863048,4996,1.01,0,0.01,2.4,2.31,-0.54,-0.44,-87.81,-26.03,-23.4,-11.23,-25,-25.98,Sitting
04:22.5,504,514,771,704,323,2.17,461.43,1.58,20723.64,321,713,20723.93,713,429481088,4294847129,5709,1.03,-0.05,0.03,1.15,-3.12,-2.05,-3.11,-85.27,-25.81,-24.06,-11.39,-24.9,-26.51,Sitting
04:22.6,485,514,771,704,323,2.17,461.43,1.58,20723.64,321,714,20723.93,713,429481088,4294832637,6423,1.02,-0.03,-0.04,2.2,-0.11,-0.3,-2.08,-85.9,-25.46,-24.33,-11.33,-24.52,-26.79,Sitting
04:22.8,535,515,772.5,704,323,2.17,461.43,1.58,20723.67,323,711,20723.93,713,429481376,0,0,1.03,-0.02,-0.06,-7.24,3.98,-2.96,-1.91,-84.67,-26.3,-24.08,-11.6,-25.32,-26.5,Sitting
04:29.8,485,485,727.5,485,321,2.19,457.26,1.57,0,0,819,0,0,0,4294954025,1523,1.05,0,0.07,5.69,2.79,3.92,-0.47,-84.86,1.64,0.92,0.47,1.56,-2.51,Left Fall while Sitting
04:30.0,525,505,757.5,525,320,2.2,455.19,1.56,0,0,777,0,0,0,634,2300,1.04,-0.06,0.03,2.43,3.5,-1.66,-3.98,-84.68,2.01,1.11,0.36,1.77,-2.32,Left Fall while Sitting
04:30.1,483,497,745.5,525,320,2.2,455.19,1.56,0,0,795,0,0,0,4294944595,3095,1.03,-0.03,0.1,-0.11,9.07,-6.64,-2.07,-82.9,2.06,1.98,-0.36,1.9,-1.42,Left Fall while Sitting
04:30.2,465,489,733.5,525,320,2.2,455.19,1.56,0,0,298,0,0,0,567,3393,1.01,0,0.12,-2.64,1.92,-9.24,-0.58,-81.82,1.81,1.97,-1.39,1.71,-1.39,Left Fall while Sitting
04:30.3,482,488,732,525,320,2.2,455.19,1.56,0,0,718,0,0,0,4294959099,4111,0.99,0.03,0.14,6.68,10.02,-11.22,1.04,-80.31,2.7,2.95,-2.67,2.63,-0.38,Left Fall while Sitting
04:30.5,542,497,745.5,542,320,2.2,455.19,1.56,0,0,721,0,0,0,4294954652,4832,0.98,0.06,0.07,-3,4.14,-5.4,2.69,-82.98,2.4,3.21,-3.23,2.41,-0.23,Left Fall while Sitting
04:30.6,538,502,753,542,321,2.19,457.26,1.57,0,0,714,0,0,0,4294940160,5546,0.99,0.05,0.13,-9.37,3.73,2.31,2.1,-80.56,1.32,3.43,-2.85,1.35,0.07,Left Fall while Sitting
04:30.7,506,503,754.5,542,321,2.19,457.26,1.57,0,0,717,0,0,0,4294929961,6263,1.01,0.03,0.13,-4.79,2.51,4.15,1.29,-80.89,0.8,3.49,-2.24,0.82,0.11,Left Fall while Sitting
04:30.8,506,503,754.5,542,321,2.19,457.26,1.57,20723.62,320,714,20724.18,697,429491552,0,0,0.98,0.01,0.16,-0.69,0.11,4.02,-0.03,-79.39,0.78,3.25,-1.65,0.75,-0.05,Left Fall while Sitting
04:30.9,481,501,751.5,542,320,2.2,455.19,1.56,20723.62,320,709,20724.18,697,429491552,4294945689,709,1.06,0.03,0.09,2.78,-12.76,-0.08,1.03,-83.53,1.2,1.39,-1.56,1.19,-2,Left Fall while Sitting
04:31.1,539,504,756,542,321,2.19,457.26,1.57,20723.62,320,737,20724.18,697,429491552,4294964570,1446,0.98,0,0.03,9.08,-9.51,0.72,-0.67,-86.53,2.42,-0.06,-1.37,2.29,-3.52,Left Fall while Sitting
04:31.2,645,516,774,645,322,2.18,459.34,1.57,20723.62,320,718,20724.18,697,429491552,4294955806,2164,0.96,-0.03,0.15,5.16,13.53,1.52,-2.15,-79.62,3.14,1.4,-1.07,2.92,-1.84,Left Fall while Sitting
04:31.3,502,515,772.5,645,322,2.18,459.34,1.57,20723.62,320,718,20724.18,697,429491552,4294947042,2882,1.07,-0.04,0.07,-4.33,8.22,-15.43,-2.51,-84.21,2.66,2.19,-2.93,2.45,-1.27,Left Fall while Sitting
04:31.4,528,516,774,645,322,2.18,459.34,1.57,20723.62,320,717,20724.18,697,429491552,4294936843,3599,1.05,0.05,0.16,8.24,21.11,-34.69,2.19,-79.31,3.77,4.61,-7.24,3.71,1.26,Left Fall while Sitting
04:31.6,533,517,775.5,645,323,2.17,461.43,1.58,20723.62,320,708,20724.18,697,429491552,4294913819,4307,0.95,0.16,0.11,-7.17,-1.56,-21.06,8.84,-76.87,2.94,4.17,-9.79,3.18,0.92,Left Fall while Sitting
04:31.7,487,515,772.5,645,323,2.17,461.43,1.58,20723.62,320,751,20724.18,697,429491552,4294887996,5058,0.96,0.2,0.2,0.37,6.39,-8.05,10.76,-71.96,3.06,4.72,-10.71,3.37,1.65,Left Fall while Sitting
04:31.8,560,518,777,645,323,2.17,461.43,1.58,20723.62,320,733,20724.18,697,429491552,4294900997,5791,1.01,0.18,0.12,1.47,-0.79,-7.41,9.66,-76.26,3.32,4.37,-11.54,3.57,1.14,Left Fall while Sitting
04:32.0,548,519,778.5,645,325,2.15,465.62,1.59,20723.62,320,707,20724.18,697,429491552,4294876558,6498,0.97,0.2,0.14,-0.18,6.29,-12.9,11.02,-74.32,3.36,4.91,-13.07,3.67,1.74,Left Fall while Sitting
04:32.1,490,518,777,645,324,2.16,463.52,1.58,20723.65,322,290,20724.13,678,429489504,0,0,0.94,0.22,0.19,-0.69,4.3,-13.76,12.34,-71.17,3.35,5.2,-14.69,3.71,2.14,Left Fall while Sitting
04:32.2,502,517,775.5,645,325,2.15,465.62,1.59,20723.65,322,595,20724.13,678,429489504,26345,595,0.95,0.26,0.17,3.55,3.26,-13.44,14.29,-70.38,3.86,5.35,-16.27,4.28,2.32,Left Fall while Sitting
04:32.3,545,518,777,645,325,2.15,465.62,1.59,20723.65,322,730,20724.13,678,429489504,34957,1325,0.94,0.28,0.17,7.06,10.06,-15.06,15.82,-69.25,4.82,6.37,-18.07,5.26,3.34,Left Fall while Sitting
04:32.5,563,520,780,645,326,2.14,467.72,1.59,20723.65,322,715,20724.13,678,429489504,21894,2040,0.91,0.29,0.2,15.24,-2.11,-28.44,16.61,-67.45,6.81,5.85,-21.55,7.2,2.92,Left Fall while Sitting
04:32.6,264,509,763.5,645,325,2.15,465.62,1.59,20723.65,322,520,20724.13,678,429489504,30150,2560,0.89,0.41,0.18,9.9,10.66,-22.51,23.46,-61.92,8.12,6.93,-24.27,8.73,4.18,Left Fall while Sitting
04:32.7,512,509,763.5,645,326,2.14,467.72,1.59,20723.65,322,727,20724.13,678,429489504,34391,3287,0.82,0.4,0.14,2.36,4.44,-11.57,25.36,-60.81,8.48,7.24,-25.62,9.16,4.52,Left Fall while Sitting
04:32.8,535,510,765,645,327,2.13,469.83,1.6,20723.65,322,717,20724.13,678,429489504,24192,4004,0.91,0.45,0.16,-1.95,-0.67,-6.53,25.16,-60.87,8.31,6.9,-26.34,8.98,4.19,Left Fall while Sitting
04:33.0,467,508,762,645,327,2.13,469.83,1.6,20723.65,322,710,20724.13,678,429489504,4004,4714,0.89,0.43,0.2,-3.7,3.82,-12.32,24.83,-60.2,7.92,7.13,-27.78,8.59,4.44,Left Fall while Sitting
04:33.1,450,506,759,645,327,2.13,469.83,1.6,20723.65,322,713,20724.13,678,429489504,4294955381,5427,0.86,0.46,0.16,-1.1,-8.6,-13.11,27.3,-58.85,7.85,5.78,-29.35,8.63,3.2,Left Fall while Sitting
04:33.2,538,507,760.5,645,328,2.12,471.94,1.6,20723.65,322,713,20724.13,678,429489504,4294939462,6140,0.86,0.51,0.16,-5.59,5.74,-14.82,29.66,-56.53,7.21,6.26,-31.13,8.11,3.75,Left Fall while Sitting
04:33.3,515,508,762,645,327,2.13,469.83,1.6,20723.71,326,716,20724.21,685,429492768,0,0,0.82,0.5,0.2,-2.56,-0.33,-20.73,30.15,-55.01,6.96,5.97,-33.6,7.89,3.53,Left Fall while Sitting
04:33.5,363,503,754.5,645,326,2.14,467.72,1.59,20723.71,326,714,20724.21,685,429492768,4294952804,714,0.78,0.55,0.16,12.55,-14.32,-13.66,33.94,-52.27,8.63,3.9,-35.24,9.64,1.65,Left Fall while Sitting
04:33.6,463,502,753,645,326,2.14,467.72,1.59,20723.71,326,706,20724.21,685,429492768,4294926952,1420,0.82,0.6,0.13,-9.86,3.64,-14.99,35.55,-51.38,7.45,4.1,-37.02,8.58,1.88,Left Fall while Sitting
04:33.7,12,486,729,645,327,2.13,469.83,1.6,20723.71,326,712,20724.21,685,429492768,4294909608,2132,0.79,0.58,0.14,-1.04,-4.39,-15.3,35.26,-51.32,7.39,3.29,-38.87,8.51,1.11,Left Fall while Sitting
04:33.8,0,471,706.5,645,326,2.14,467.72,1.59,20723.71,326,715,20724.21,685,429492768,4294896545,2847,0.77,0.64,0.13,3.52,-0.96,-21.41,38.66,-48.26,7.91,2.92,-41.47,9.14,0.87,Left Fall while Sitting
04:34.0,0,458,687,645,326,2.14,467.72,1.59,20723.71,326,712,20724.21,685,429492768,4294879201,3559,0.69,0.65,0.12,-1.89,2.34,-18.54,42.49,-44.44,7.74,2.96,-43.7,9.13,1.06,Left Fall while Sitting
04:34.1,97,447,670.5,645,326,2.14,467.72,1.59,20723.71,326,716,20724.21,685,429492768,4294867569,4275,0.7,0.69,0.1,-1.35,3.57,-9.73,44.05,-43.16,7.64,3.16,-44.84,9.1,1.31,Left Fall while Sitting
04:34.2,0,435,652.5,645,325,2.15,465.62,1.59,20723.71,326,711,20724.21,685,429492768,4294848802,4986,0.73,0.7,0.09,-8.26,2.27,-8.92,42.87,-44.55,6.67,3.19,-45.86,8.12,1.28,Left Fall while Sitting
04:34.3,183,428,642,645,324,2.16,463.52,1.58,20723.71,326,714,20724.21,685,429492768,4294834310,5700,0.69,0.68,0.15,0.87,-0.04,-14.27,43.39,-43.06,6.85,2.94,-47.56,8.31,1.1,Left Fall while Sitting
04:34.5,353,426,639,645,325,2.15,465.62,1.59,20723.71,326,721,20724.21,685,429492768,4294829863,6421,0.66,0.74,0.1,11.68,-3.07,-19.65,47.52,-39.72,8.4,2.29,-49.96,9.97,0.61,Left Fall while Sitting
04:34.6,458,427,640.5,645,321,2.19,457.26,1.57,20723.69,325,710,20723.92,713,429480960,0,0,0.6,0.76,0.06,1.33,-1.22,-14.89,50.94,-36.71,8.64,1.89,-51.7,10.33,0.35,Left Fall while Sitting
04:34.7,550,430,645,645,320,2.2,455.19,1.56,20723.69,325,720,20723.92,713,429480960,4294961408,720,0.59,0.77,0.06,-1.18,-2.36,-10.19,51.93,-35.72,8.56,1.34,-52.9,10.29,-0.14,Left Fall while Sitting
04:34.9,511,432,648,645,319,2.21,453.13,1.56,20723.69,325,708,20723.92,713,429480960,4294938384,1428,0.61,0.78,0.07,-5.16,2.02,-7.72,51.57,-35.99,7.98,1.34,-53.78,9.72,-0.15,Left Fall while Sitting
04:35.0,732,439,658.5,732,319,2.21,453.13,1.56,20723.69,325,716,20723.92,713,429480960,4294926752,2144,0.56,0.77,0.1,-3.64,2.68,-11.13,52.88,-34.3,7.59,1.43,-55.08,9.4,0,Left Fall while Sitting
04:35.1,611,443,664.5,732,318,2.22,451.06,1.55,20723.69,325,719,20723.92,713,429480960,4294919425,2863,0.54,0.81,0.08,-3.52,2.76,-7.34,55.26,-32.21,7.21,1.52,-55.91,9.13,0.18,Left Fall while Sitting
04:35.2,718,449,673.5,732,318,2.22,451.06,1.55,20723.69,325,715,20723.92,713,429480960,4294906362,3578,0.56,0.8,0.09,-2.48,3.11,-2.87,54.14,-33.23,6.97,1.67,-56.17,8.86,0.27,Left Fall while Sitting
04:35.4,715,455,682.5,732,318,2.22,451.06,1.55,20723.69,325,721,20723.92,713,429480960,4294901915,4299,0.56,0.8,0.08,-1.67,2.86,-3.85,53.99,-33.47,6.83,1.77,-56.56,8.71,0.37,Left Fall while Sitting
04:35.5,574,458,687,732,318,2.22,451.06,1.55,20723.69,325,739,20723.92,713,429480960,4294923748,5038,0.54,0.81,0.08,0.84,3.06,-6.74,55.51,-31.9,7,1.91,-57.31,8.94,0.56,Left Fall while Sitting
04:35.6,638,462,693,732,317,2.23,449.01,1.55,20723.69,325,797,20723.92,713,429480960,4294903597,5835,0.52,0.82,0.08,-1.6,2.39,-10.02,56.76,-30.6,6.87,1.96,-58.47,8.87,0.65,Left Fall while Sitting
04:35.7,609,465,697.5,732,318,2.22,451.06,1.55,20723.69,325,756,20723.92,713,429480960,4294885309,6591,0.48,0.84,0.08,-1.63,1.63,-5.2,58.93,-28.4,6.74,1.91,-59.03,8.82,0.7,Left Fall while Sitting
04:35.9,558,466,699,732,317,2.23,449.01,1.55,20723.58,318,734,20724.14,732,429489984,0,0,0.52,0.82,0.09,-3.48,2.53,-1.62,56.55,-30.81,6.37,1.98,-59.13,8.38,0.66,Left Fall while Sitting
04:36.0,473,467,700.5,732,317,2.23,449.01,1.55,20723.58,318,293,20724.14,732,429489984,20313,293,0.5,0.83,0.09,-5.02,5.43,-6,57.84,-29.48,5.81,2.41,-59.79,7.89,1.13,Left Fall while Sitting
04:36.1,597,469,703.5,732,318,2.22,451.06,1.55,20723.58,318,718,20724.14,732,429489984,11549,1011,0.48,0.83,0.12,-8.23,2,2.71,58.53,-28.32,4.85,2.41,-59.35,7,1.18,Left Fall while Sitting
04:36.2,659,473,709.5,732,317,2.23,449.01,1.55,20723.58,318,799,20724.14,732,429489984,4294961886,1810,0.5,0.81,0.12,-6.64,0.3,9.22,56.96,-29.86,4.09,2.19,-58.09,6.2,0.91,Left Fall while Sitting
04:36.4,618,476,714,732,318,2.22,451.06,1.55,20723.58,318,286,20724.14,732,429489984,10850,2096,0.55,0.81,0.16,0.95,-0.05,6.63,53.88,-32.36,4.28,1.94,-57.16,6.26,0.56,Left Fall while Sitting
04:36.5,331,473,709.5,732,317,2.23,449.01,1.55,20723.58,318,288,20724.14,732,429489984,28258,2384,0.55,0.81,0.12,4.54,-0.42,-0.42,54.48,-32.39,4.92,1.63,-57.11,6.9,0.27,Left Fall while Sitting
04:36.6,718,477,715.5,732,317,2.23,449.01,1.55,20723.58,318,499,20724.14,732,429489984,15115,2883,0.53,0.8,0.1,-0.18,1.18,2.35,55.43,-31.73,4.96,1.53,-56.71,6.98,0.2,Left Fall while Sitting
04:36.7,325,475,712.5,732,316,2.24,446.96,1.54,20723.58,318,713,20724.14,732,429489984,4294966492,3596,0.56,0.8,0.09,-1.93,1.83,3.92,54,-33.37,4.79,1.51,-56.12,6.76,0.11,Left Fall while Sitting
04:36.9,35,467,700.5,732,315,2.25,444.92,1.54,20723.58,318,707,20724.14,732,429489984,4294942053,4303,0.54,0.8,0.11,-4.08,1.14,7.05,54.87,-32.26,4.35,1.4,-55.13,6.37,0.05,Left Fall while Sitting
04:37.0,995,476,714,995,314,2.26,442.88,1.53,20723.58,318,737,20724.14,732,429489984,4294960934,5040,0.54,0.79,0.1,-10.14,4.5,24.04,54.79,-32.36,3.14,1.72,-52,5.21,0.35,Left Fall while Sitting
04:37.1,485,476,714,995,314,2.26,442.88,1.53,20723.56,316,727,20724.3,576,429496512,0,0,0.62,0.71,0.1,-14.16,0.8,46.79,47.81,-39.41,1.45,1.57,-46.11,3.31,-0.07,Left Fall while Sitting
04:37.2,108,470,705,995,314,2.26,442.88,1.53,20723.56,316,709,20724.3,576,429496512,4294945689,709,0.77,0.64,0.17,-17,6.08,37.6,38.25,-47.86,-0.63,2.08,-41.23,0.92,0.09,Left Fall while Sitting
04:37.4,923,477,715.5,995,313,2.27,440.85,1.53,20723.56,316,722,20724.3,576,429496512,4294942685,1431,0.78,0.55,0.22,-8.04,-2.37,20.98,33.74,-50.93,-1.58,1.53,-38.47,-0.17,-0.57,Left Fall while Sitting
04:37.5,679,481,721.5,995,315,2.25,444.92,1.54,20723.56,316,729,20724.3,576,429496512,4294949838,2160,0.79,0.57,0.17,-6.53,-3.05,25.65,34.54,-51.59,-2.34,0.89,-35.11,-0.87,-1.21,Left Fall while Sitting
04:37.6,208,476,714,995,315,2.25,444.92,1.54,20723.56,316,704,20724.3,576,429496512,4294921166,2864,0.84,0.5,0.15,-14.93,-9.02,37.92,29.98,-56.31,-4.17,-0.51,-30.19,-2.8,-2.74,Left Fall while Sitting
04:37.7,775,481,721.5,995,314,2.26,442.88,1.53,20723.56,316,727,20724.3,576,429496512,4294925407,3591,0.85,0.38,0.2,-17.82,-11.3,43.57,22.75,-61.64,-6.36,-2.2,-24.56,-5.19,-4.58,Left Fall while Sitting
04:37.9,552,482,723,995,315,2.25,444.92,1.54,20723.56,316,712,20724.3,576,429496512,4294908063,4303,0.97,0.3,0.14,-8.4,-24.3,41.57,16.55,-69.49,-7.36,-5.57,-19.13,-6.41,-8.12,Left Fall while Sitting
04:38.0,655,485,727.5,995,316,2.24,446.96,1.54,20723.56,316,717,20724.3,576,429496512,4294897864,5020,1.06,0.2,0.11,-20.44,-22.3,29.66,10.24,-76.06,-9.89,-8.65,-15.27,-9.08,-11.35,Left Fall while Sitting
04:38.1,516,485,727.5,995,317,2.23,449.01,1.55,20723.56,316,718,20724.3,576,429496512,4294889100,5738,0.95,0.15,0.08,-3.39,3.59,22.41,8.36,-78.4,-10.25,-8.45,-12.3,-9.5,-11.25,Left Fall while Sitting
04:38.3,457,485,727.5,995,316,2.24,446.96,1.54,20723.56,316,715,20724.3,576,429496512,4294876037,6453,0.97,0.1,0.1,-16.59,15.12,23.1,5.49,-79.88,-12.28,-6.78,-9.26,-11.57,-9.71,Left Fall while Sitting
04:38.4,250,481,721.5,995,317,2.23,449.01,1.55,20723.7,315,713,20724.05,716,429486016,0,0,0.98,0.02,0.14,-22.99,-10.4,29.3,0.45,-80.38,-15.07,-8.32,-5.53,-14.44,-11.2,Left Fall while Sitting
04:38.5,343,479,718.5,995,317,2.23,449.01,1.55,20723.7,315,719,20724.05,716,429486016,4294959969,719,1.03,-0.03,0.12,-6.04,-5.16,9.34,-2.29,-81.53,-15.77,-9.24,-4.24,-15.23,-12.13,Left Fall while Sitting
04:38.6,416,478,717,995,316,2.24,446.96,1.54,20723.7,315,718,20724.05,716,429486016,4294951205,1437,1.05,-0.03,0.04,0.24,6.18,-0.37,-1.97,-85.76,-15.67,-8.71,-4.18,-15.12,-11.79,Left Fall while Sitting
04:38.8,483,478,717,995,317,2.23,449.01,1.55,20723.7,315,711,20724.05,716,429486016,4294932438,2148,0.96,-0.05,0.1,-0.08,14.76,-10.49,-3.62,-81.99,-15.6,-7.07,-5.43,-15.12,-10.07,Left Fall while Sitting
04:38.9,522,479,718.5,995,316,2.24,446.96,1.54,20723.7,315,715,20724.05,716,429486016,4294919375,2863,0.99,0.03,0.09,-8.96,5.31,1.15,1.33,-83.05,-16.67,-6.65,-5.18,-15.95,-9.71,Left Fall while Sitting
04:39.0,582,480,720,995,317,2.23,449.01,1.55,20723.7,315,712,20724.05,716,429486016,4294902031,3575,1.01,-0.05,0.24,-4.44,0.63,4.06,-3.41,-74.86,-17.16,-6.83,-4.56,-16.61,-9.55,Left Fall while Sitting
04:39.1,602,482,723,995,318,2.22,451.06,1.55,20723.7,315,715,20724.05,716,429486016,4294888968,4290,1.01,-0.04,0.18,-0.41,-1.92,2.2,-2.84,-78.05,-17.14,-7.33,-4.18,-16.57,-10.16,Left Fall while Sitting
04:39.3,501,482,723,995,318,2.22,451.06,1.55,20723.7,315,725,20724.05,716,429486016,4294890305,5015,1,-0.04,0.1,-2.8,-1.85,0.85,-3.06,-82.22,-17.43,-7.82,-3.97,-16.85,-10.8,Left Fall while Sitting
04:39.4,554,483,724.5,995,318,2.22,451.06,1.55,20723.7,315,716,20724.05,716,429486016,4294878673,5731,1.02,-0.06,0.16,-6.98,3.2,-3.53,-3.63,-79.23,-18.25,-7.67,-4.32,-17.67,-10.53,Left Fall while Sitting
04:39.5,537,484,726,995,319,2.21,453.13,1.56,20723.7,315,713,20724.05,716,429486016,4294862754,6444,0.99,-0.06,0.16,-9.13,2.64,-3.62,-4.17,-78.41,-19.34,-7.58,-4.68,-18.73,-10.42,Left Fall while Sitting
04:39.7,511,484,726,995,319,2.21,453.13,1.56,20723.57,317,718,20724.03,716,429485408,0,0,0.99,-0.05,0.17,-4.41,3.3,1.31,-3.15,-78.14,-19.83,-7.42,-4.42,-19.16,-10.25,Left Fall while Sitting
04:43.2,399,399,598.5,399,316,2.24,446.96,1.54,0,0,714,0,0,0,4294925541,1419,0.98,-0.18,0.12,4.92,24.37,-11.21,-10.96,-76.04,0.55,2.97,-1.08,0.09,-0.19,Right Fall while Sitting
04:43.3,360,379,568.5,399,316,2.24,446.96,1.54,0,0,716,0,0,0,4294913909,2135,0.96,-0.13,0.17,-12.07,17.61,-15.36,-8.23,-75.9,-0.86,4.89,-2.87,-1.16,1.66,Right Fall while Sitting
04:43.5,387,382,573,399,316,2.24,446.96,1.54,0,0,720,0,0,0,4294908021,2855,0.96,-0.12,0.18,-5.77,5.77,10.3,-7.8,-75.4,-1.51,5.36,-1.49,-1.76,2.13,Right Fall while Sitting
04:43.6,447,398,597,447,316,2.24,446.96,1.54,0,0,714,0,0,0,4294893529,3569,0.96,-0.18,0.22,-2.65,-1.03,18.32,-10.89,-71.82,-1.77,4.99,0.86,-2.13,1.92,Right Fall while Sitting
04:43.7,419,402,603,447,316,2.24,446.96,1.54,0,0,715,0,0,0,4294880466,4284,0.9,-0.22,0.21,7.15,10.12,35.85,-14.14,-69.45,-0.81,5.99,5.4,-1.35,2.98,Right Fall while Sitting
04:43.8,375,397,595.5,447,315,2.25,444.92,1.54,0,0,722,0,0,0,4294877462,5006,0.89,-0.32,0.17,4.42,-1.47,42.5,-19.85,-66.33,-0.2,5.57,10.72,-0.99,2.69,Right Fall while Sitting
04:44.0,383,395,592.5,447,314,2.26,442.88,1.53,0,0,718,0,0,0,4294868698,5724,0.95,-0.39,0.14,-10.74,-27.49,35.71,-22.68,-64.95,-1.46,1.91,15.25,-2.31,-0.76,Right Fall while Sitting
04:44.1,446,402,603,447,314,2.26,442.88,1.53,0,0,717,0,0,0,4294858499,6441,0.95,-0.47,0.14,-2.85,-16.7,22.56,-26.46,-61.39,-1.74,-0.39,18.12,-2.73,-2.83,Right Fall while Sitting
04:44.2,478,410,615,478,314,2.26,442.88,1.53,20723.54,315,715,20724.01,715,429484544,0,0,0.89,-0.51,0.12,5.43,-3.21,10.2,-30.01,-58.13,-1,-1.04,19.5,-2.16,-3.32,Right Fall while Sitting
04:44.3,592,428,642,592,314,2.26,442.88,1.53,20723.54,315,721,20724.01,715,429484544,4294962849,721,0.86,-0.51,0.09,-1.26,-5.51,8.72,-31.06,-57.46,-1.09,-2,20.71,-2.28,-4.22,Right Fall while Sitting
04:44.5,487,433,649.5,592,314,2.26,442.88,1.53,20723.54,315,722,20724.01,715,429484544,4294959845,1443,0.87,-0.51,0.05,-9.85,-13.82,12.37,-30.83,-58.04,-2.27,-4.01,22.39,-3.41,-6.17,Right Fall while Sitting
04:44.6,733,458,687,733,314,2.26,442.88,1.53,20723.54,315,717,20724.01,715,429484544,4294949646,2160,0.87,-0.56,0.05,-7.68,-6.11,10.24,-33.29,-55.54,-3.17,-5.04,23.79,-4.37,-7.06,Right Fall while Sitting
04:44.7,767,482,723,767,314,2.26,442.88,1.53,20723.54,315,720,20724.01,715,429484544,4294943758,2880,0.87,-0.59,0.02,-1.67,-0.21,3.19,-34.68,-54.3,-3.31,-5.33,24.29,-4.57,-7.29,Right Fall while Sitting
04:44.8,794,504,756,794,314,2.26,442.88,1.53,20723.54,315,716,20724.01,715,429484544,4294932126,3596,0.84,-0.59,0.04,-0.46,-4.02,4.96,-35.32,-53.6,-3.3,-6.09,25.03,-4.58,-7.99,Right Fall while Sitting
04:45.0,762,521,781.5,794,315,2.25,444.92,1.54,20723.54,315,712,20724.01,715,429484544,4294914782,4308,0.86,-0.6,0,1.65,1.78,1.61,-35.32,-53.68,-3.02,-6.12,25.33,-4.31,-8.02,Right Fall while Sitting
04:45.1,661,530,795,794,314,2.26,442.88,1.53,20723.54,315,719,20724.01,715,429484544,4294907455,5027,0.82,-0.6,0,-2.34,1.19,3.34,-36.9,-52.1,-3.24,-6.22,25.86,-4.59,-8.06,Right Fall while Sitting
04:45.2,616,535,802.5,794,314,2.26,442.88,1.53,20723.54,315,721,20724.01,715,429484544,4294903008,5748,0.84,-0.6,0.04,2.24,-1.23,4.27,-36.3,-52.6,-2.89,-6.63,26.5,-4.22,-8.47,Right Fall while Sitting
04:45.3,697,544,816,794,315,2.25,444.92,1.54,20723.54,315,719,20724.01,715,429484544,4294895681,6467,0.83,-0.63,0,2.73,4.98,2.59,-37.64,-51.36,-2.47,-6.25,26.93,-3.88,-8.06,Right Fall while Sitting
04:45.5,708,553,829.5,794,314,2.26,442.88,1.53,20723.52,314,722,20724.12,718,429489280,0,0,0.84,-0.62,0,-9.01,5.78,-1.13,-36.91,-52.09,-3.53,-5.78,26.89,-4.86,-7.63,Right Fall while Sitting
04:45.6,640,557,835.5,794,314,2.26,442.88,1.53,20723.52,314,715,20724.12,718,429489280,4294954233,715,0.82,-0.62,0.03,-5.76,7.21,-0.64,-37.81,-51.13,-4.19,-5.12,26.9,-5.53,-6.96,Right Fall while Sitting
04:45.7,561,557,835.5,794,315,2.25,444.92,1.54,20723.52,314,718,20724.12,718,429489280,4294945469,1433,0.83,-0.61,0.04,-11.67,-1.7,3.35,-36.65,-52.26,-5.6,-5.59,27.43,-6.84,-7.46,Right Fall while Sitting
04:45.9,480,554,831,794,314,2.26,442.88,1.53,20723.52,314,717,20724.12,718,429489280,4294935270,2150,0.8,-0.63,0.06,0.85,16.62,-4.15,-38.85,-49.94,-5.42,-3.72,27,-6.75,-5.57,Right Fall while Sitting
04:46.0,496,551,826.5,794,314,2.26,442.88,1.53,20723.52,314,715,20724.12,718,429489280,4294922207,2865,0.77,-0.59,0.02,-13.66,3.1,0.27,-38.04,-50.94,-7.08,-3.58,27.14,-8.32,-5.47,Right Fall while Sitting
04:46.1,424,546,819,794,315,2.25,444.92,1.54,20723.52,314,715,20724.12,718,429489280,4294909144,3580,0.81,-0.63,0.04,-13.43,-0.57,4.56,-38.41,-50.51,-8.72,-3.9,27.81,-9.9,-5.77,Right Fall while Sitting
04:46.2,395,540,810,794,315,2.25,444.92,1.54,20723.52,314,711,20724.12,718,429489280,4294890377,4291,0.82,-0.64,0.01,-4.31,3.47,-2.61,-38.73,-50.27,-9.19,-3.72,27.58,-10.37,-5.58,Right Fall while Sitting
04:46.4,423,535,802.5,794,315,2.25,444.92,1.54,20723.52,314,725,20724.12,718,429489280,4294891714,5016,0.82,-0.65,0,-5.03,-2.58,2.69,-38.88,-50.12,-9.76,-4.3,28.03,-10.93,-6.14,Right Fall while Sitting
04:46.5,403,530,795,794,315,2.25,444.92,1.54,20723.52,314,714,20724.12,718,429489280,4294877222,5730,0.8,-0.64,-0.01,-1.69,0.05,-1.17,-39.16,-49.84,-9.91,-4.55,27.98,-11.08,-6.36,Right Fall while Sitting
04:46.6,473,528,792,794,315,2.25,444.92,1.54,20723.52,314,713,20724.12,718,429489280,4294861303,6443,0.81,-0.65,0,-4.77,-2.53,-1,-39.02,-49.98,-10.45,-5.13,27.95,-11.59,-6.93,Right Fall while Sitting
04:46.7,578,530,795,794,316,2.24,446.96,1.54,20723.53,314,717,20724.02,716,429485120,0,0,0.8,-0.65,-0.01,-3.62,1.83,-3.63,-39.5,-49.5,-10.83,-5.15,27.6,-11.97,-6.93,Right Fall while Sitting
04:46.9,610,533,799.5,794,315,2.25,444.92,1.54,20723.53,314,716,20724.02,716,429485120,4294955664,716,0.81,-0.64,0.01,-1.98,0.76,-6,-39.08,-49.92,-11.01,-5.31,26.93,-12.13,-7.1,Right Fall while Sitting
04:47.0,552,533,799.5,794,315,2.25,444.92,1.54,20723.53,314,718,20724.02,716,429485120,4294946900,1434,0.84,-0.62,-0.02,0.95,5.98,-9.31,-36.91,-52.07,-10.82,-4.81,25.85,-11.86,-6.7,Right Fall while Sitting
04:47.1,545,534,801,794,316,2.24,446.96,1.54,20723.53,314,720,20724.02,716,429485120,4294941012,2154,0.82,-0.6,0,-2.18,0.18,-6.83,-36.71,-52.29,-11.03,-5.04,25.08,-12.05,-6.93,Right Fall while Sitting
04:47.3,522,533,799.5,794,316,2.24,446.96,1.54,20723.53,314,718,20724.02,716,429485120,4294932248,2872,0.82,-0.61,0.02,-0.55,4.3,-5.39,-37.46,-51.52,-11.03,-4.75,24.49,-12.08,-6.62,Right Fall while Sitting
04:47.4,539,533,799.5,794,316,2.24,446.96,1.54,20723.53,314,720,20724.02,716,429485120,4294926360,3592,0.84,-0.58,0.01,-0.81,1.24,-3.11,-35.17,-53.82,-11.06,-4.84,24.19,-12.02,-6.8,Right Fall while Sitting
04:47.5,491,532,798,794,317,2.23,449.01,1.55,20723.53,314,714,20724.02,716,429485120,4294911868,4306,0.84,-0.58,0.03,0.95,6.43,-5.93,-35.3,-53.65,-10.86,-4.27,23.54,-11.84,-6.25,Right Fall while Sitting
04:47.6,452,530,795,794,317,2.23,449.01,1.55,20723.53,314,718,20724.02,716,429485120,4294903104,5024,0.82,-0.6,0.05,5.76,10.74,-6.22,-36.75,-52.13,-10.06,-3.16,22.85,-11.13,-5.12,Right Fall while Sitting
04:47.8,481,529,793.5,794,318,2.22,451.06,1.55,20723.53,314,717,20724.02,716,429485120,4294892905,5741,0.87,-0.55,0.07,11.95,6.81,-10.03,-32.82,-55.91,-8.46,-2.55,21.66,-9.44,-4.68,Right Fall while Sitting
04:47.9,456,527,790.5,794,317,2.23,449.01,1.55,20723.53,314,718,20724.02,716,429485120,4294884141,6459,0.86,-0.55,0.07,4.02,6.11,-10.47,-33.13,-55.54,-7.88,-2.03,20.44,-8.89,-4.17,Right Fall while Sitting
04:48.0,471,525,787.5,794,317,2.23,449.01,1.55,20723.56,316,718,20724.08,717,429487552,0,0,0.89,-0.51,0.05,-8.22,-2.21,-15.88,-30.54,-58.33,-8.84,-2.55,18.55,-9.71,-4.78,Right Fall while Sitting
04:48.1,482,524,786,794,318,2.22,451.06,1.55,20723.56,316,716,20724.08,717,429487552,4294955664,716,0.91,-0.51,0.11,-0.07,6.6,-21.6,-29.72,-58.6,-8.78,-1.97,15.91,-9.61,-4.23,Right Fall while Sitting
04:48.3,452,522,783,794,318,2.22,451.06,1.55,20723.56,316,718,20724.08,717,429487552,4294946900,1434,0.93,-0.44,0.1,-6.77,8.2,-18.91,-25.83,-62.5,-9.57,-1.17,13.59,-10.22,-3.63,Right Fall while Sitting
04:48.4,512,522,783,794,318,2.22,451.06,1.55,20723.56,316,718,20724.08,717,429487552,4294938136,2152,0.94,-0.39,0.08,-3.63,8.24,-20.86,-22.97,-65.48,-9.96,-0.38,11.04,-10.48,-2.99,Right Fall while Sitting
04:48.5,549,523,784.5,794,319,2.21,453.13,1.56,20723.56,316,714,20724.08,717,429487552,4294923644,2866,0.93,-0.36,0.11,-8.45,-2.91,-21.14,-21.49,-66.56,-10.97,-1.01,8.43,-11.39,-3.63,Right Fall while Sitting
04:48.7,505,522,783,794,318,2.22,451.06,1.55,20723.56,316,722,20724.08,717,429487552,4294920640,3588,0.96,-0.31,0.1,-7.54,-1.82,-11.92,-18.3,-69.74,-11.86,-1.5,7.01,-12.12,-4.23,Right Fall while Sitting
04:48.8,561,523,784.5,794,319,2.21,453.13,1.56,20723.56,316,720,20724.08,717,429487552,4294914752,4308,0.97,-0.33,0.12,-7.58,-12.02,-12.37,-19.43,-68.27,-12.76,-3.28,5.54,-13.02,-5.88,Right Fall while Sitting
04:48.9,529,523,784.5,794,319,2.21,453.13,1.56,20723.56,316,713,20724.08,717,429487552,4294898833,5021,1,-0.28,0.04,-11.84,-18.57,-27.69,-16.23,-72.59,-14.2,-5.91,2.09,-14.28,-8.58,Right Fall while Sitting
04:49.0,507,523,784.5,794,319,2.21,453.13,1.56,20723.56,316,709,20724.08,717,429487552,4294877226,5730,0.99,-0.23,0.01,-6,-19.51,-25.24,-13.86,-75.13,-14.9,-8.67,-1.04,-14.85,-11.33,Right Fall while Sitting
04:49.2,534,523,784.5,794,320,2.2,455.19,1.56,20723.56,316,714,20724.08,717,429487552,4294862734,6444,0.99,-0.17,-0.06,4.77,10.21,-16.38,-10.11,-78.37,-14.21,-7.62,-3.03,-14.05,-10.45,Right Fall while Sitting
04:49.3,561,524,786,794,319,2.21,453.13,1.56,20723.59,318,714,20724.02,715,429484832,0,0,0.92,-0.15,0.09,-7.92,1.85,-13.85,-10,-77.41,-15.14,-7.64,-4.68,-14.94,-10.43,Right Fall while Sitting
04:49.4,512,524,786,794,320,2.2,455.19,1.56,20723.59,318,713,20724.02,715,429484832,4294951377,713,1.03,-0.14,0.01,-8.08,-0.3,-22.82,-8.32,-80.67,-16.1,-7.93,-7.5,-15.79,-10.84,Right Fall while Sitting
04:49.5,477,523,784.5,794,320,2.2,455.19,1.56,20723.59,318,724,20724.02,715,429484832,4294951265,1437,1,-0.16,0.03,-6.25,7.58,-17.66,-9.84,-79,-16.83,-7.22,-9.66,-16.55,-10.09,Right Fall while Sitting
04:49.7,515,523,784.5,794,320,2.2,455.19,1.56,20723.59,318,712,20724.02,715,429484832,4294933921,2149,1.01,-0.04,-0.01,-11.11,0.56,-15.69,-2.79,-86.08,-18.18,-7.4,-11.56,-17.57,-10.55,Right Fall while Sitting
04:49.8,643,525,787.5,794,321,2.19,457.26,1.57,20723.59,318,712,20724.02,715,429484832,4294916577,2861,1,-0.02,-0.03,-8.51,11.22,-7.82,-1.56,-86.44,-19.2,-6.22,-12.46,-18.5,-9.43,Right Fall while Sitting
04:49.9,476,524,786,794,320,2.2,455.19,1.56,20723.59,318,720,20724.02,715,429484832,4294910689,3581,1.06,0,0.01,-13.06,-0.47,-17.11,-0.82,-87.77,-20.8,-6.54,-14.55,-20,-9.78,Right Fall while Sitting
04:50.1,481,523,784.5,794,320,2.2,455.19,1.56,20723.59,318,712,20724.02,715,429484832,4294893345,4293,1.02,0.02,0.04,-10.54,-7.08,-17.04,0.41,-85.97,-22.08,-7.7,-16.63,-21.18,-10.83,Right Fall while Sitting
04:50.2,538,523,784.5,794,321,2.19,457.26,1.57,20723.59,318,719,20724.02,715,429484832,4294886018,5012,1.01,0.08,-0.02,-5.79,2.24,-17.39,3.75,-83.87,-22.74,-7.67,-18.74,-21.68,-10.72,Right Fall while Sitting
04:50.3,652,526,789,794,321,2.19,457.26,1.57,20723.59,318,706,20724.02,715,429484832,4294860166,5718,0.96,0.11,0.01,-4.27,6.44,-4.69,5.69,-82.13,-23.22,-7.1,-19.24,-22.06,-10.1,Right Fall while Sitting
04:50.4,487,525,787.5,794,322,2.18,459.34,1.57,20723.59,318,715,20724.02,715,429484832,4294847103,6433,0.97,0.12,0.02,-9.63,1.85,3.44,6.49,-81.23,-24.37,-7.12,-18.7,-23.14,-10.08,Right Fall while Sitting
04:50.6,428,523,784.5,794,321,2.19,457.26,1.57,20723.62,320,716,20723.99,714,429483552,0,0,1.03,0.07,0.05,-5.24,-3.92,4.01,3.19,-83.71,-24.96,-7.86,-18.1,-23.83,-10.9,Right Fall while Sitting
04:50.7,480,523,784.5,794,321,2.19,457.26,1.57,20723.62,320,720,20723.99,714,429483552,4294961408,720,1.05,0.06,0.02,-5.61,-0.09,-4.28,2.93,-84.73,-25.6,-8.13,-18.54,-24.46,-11.19,Right Fall while Sitting
04:50.8,694,525,787.5,794,322,2.18,459.34,1.57,20723.62,320,703,20723.99,714,429483552,4294931329,1423,1,0.08,0,-5.06,0.51,-4.69,3.85,-83.99,-26.17,-8.32,-19.03,-24.97,-11.34,Right Fall while Sitting
04:50.9,467,524,786,794,322,2.18,459.34,1.57,20723.62,320,715,20723.99,714,429483552,4294918266,2138,0.98,0.1,0.03,-6.87,2.56,-2.45,4.99,-82.66,-26.98,-8.25,-19.25,-25.7,-11.22,Right Fall while Sitting
04:51.1,457,523,784.5,794,322,2.18,459.34,1.57,20723.62,320,716,20723.99,714,429483552,4294906634,2854,1.03,0.09,0.02,-1.47,3.24,-0.44,4.67,-83.08,-27.09,-8.09,-19.2,-25.82,-11.09,Right Fall while Sitting
04:51.2,548,524,786,794,322,2.18,459.34,1.57,20723.62,320,713,20723.99,714,429483552,4294890715,3567,0.99,0.09,0.03,-3.93,1.53,-1.37,4.68,-82.81,-27.52,-8.15,-19.28,-26.24,-11.13,Right Fall while Sitting
04:51.3,401,522,783,794,322,2.18,459.34,1.57,20723.62,320,713,20723.99,714,429483552,4294874796,4280,1,0.09,0.02,-0.61,-3.37,3.17,4.82,-82.92,-27.53,-8.83,-18.77,-26.24,-11.79,Right Fall while Sitting
04:55.8,438,438,657,438,317,2.23,449.01,1.55,0,0,717,0,0,0,4294938330,1428,0.97,-0.03,-0.32,8.93,-37.59,2.61,-2.44,-70.32,2.38,-9.1,0.98,2.19,-11.55,Forward Fall while Sitting
04:56.0,447,442,663,447,317,2.23,449.01,1.55,0,0,715,0,0,0,4294925267,2143,0.93,-0.06,-0.44,2.11,-31.69,6.02,-4.07,-62.77,2.71,-13.24,1.81,2.44,-15.22,Forward Fall while Sitting
04:56.1,470,451,676.5,470,317,2.23,449.01,1.55,0,0,719,0,0,0,4294917940,2862,0.88,-0.11,-0.43,7.91,-22.59,8.38,-7.04,-61.92,3.76,-16.29,2.95,3.33,-18.12,Forward Fall while Sitting
04:56.2,549,476,714,549,316,2.24,446.96,1.54,0,0,720,0,0,0,4294912052,3582,0.94,-0.11,-0.56,8.5,-23.17,1.13,-6.34,-57.14,4.88,-19.41,3.19,4.43,-20.92,Forward Fall while Sitting
04:56.3,441,469,703.5,549,316,2.24,446.96,1.54,0,0,715,0,0,0,4294898989,4297,0.89,-0.12,-0.58,8.06,-27.79,-0.6,-7.15,-54.84,5.94,-23.08,3.21,5.42,-24.35,Forward Fall while Sitting
04:56.4,493,473,709.5,549,315,2.25,444.92,1.54,0,0,718,0,0,0,4294890225,5015,0.83,-0.14,-0.65,8.55,-18.37,-1.64,-7.92,-49.6,7.07,-25.6,3.11,6.47,-26.56,Forward Fall while Sitting
04:56.6,375,459,688.5,549,314,2.26,442.88,1.53,0,0,715,0,0,0,4294877162,5730,0.79,-0.14,-0.69,-0.24,-23.41,-0.73,-8.02,-46.85,7.11,-28.75,3.11,6.51,-29.48,Forward Fall while Sitting
04:56.7,583,474,711,583,315,2.25,444.92,1.54,0,0,717,0,0,0,4294866963,6447,0.78,-0.14,-0.74,5.31,-20.55,-3.56,-8.09,-44.44,7.84,-31.53,2.77,7.2,-32.04,Forward Fall while Sitting
04:56.8,503,477,715.5,583,315,2.25,444.92,1.54,20723.55,316,716,20724.03,716,429485536,0,0,0.96,-0.24,-0.84,11.09,-11.44,-2.17,-11.22,-46.21,9.29,-33.21,2.6,8.47,-33.73,Forward Fall while Sitting
04:56.9,459,475,712.5,583,314,2.26,442.88,1.53,20723.55,316,715,20724.03,716,429485536,4294954233,715,0.72,-0.15,-0.82,0.21,-14.76,1.8,-8.53,-39.14,9.39,-35.34,2.93,8.67,-35.49,Forward Fall while Sitting
04:57.1,495,477,715.5,583,314,2.26,442.88,1.53,20723.55,316,715,20724.03,716,429485536,4294941170,1430,0.7,-0.16,-0.82,-2.6,-6.85,-3.17,-9.01,-38.18,9.13,-36.47,2.63,8.4,-36.54,Forward Fall while Sitting
04:57.2,145,449,673.5,583,315,2.25,444.92,1.54,20723.55,316,719,20724.03,716,429485536,4294933843,2149,0.68,-0.14,-0.8,-6.44,-12.17,0.96,-7.92,-38.43,8.38,-38.27,2.85,7.73,-38.27,Forward Fall while Sitting
04:57.3,240,433,649.5,583,314,2.26,442.88,1.53,20723.55,316,720,20724.03,716,429485536,4294927955,2869,0.68,-0.17,-0.83,-0.85,-9.33,0.37,-9.35,-37.11,8.34,-39.71,3,7.64,-39.6,Forward Fall while Sitting
04:57.5,391,430,645,583,314,2.26,442.88,1.53,20723.55,316,715,20724.03,716,429485536,4294914892,3584,0.65,-0.16,-0.86,0.08,-8.35,-2.37,-8.98,-35.29,8.43,-41.02,2.8,7.73,-40.79,Forward Fall while Sitting
04:57.6,445,431,646.5,583,315,2.25,444.92,1.54,20723.55,316,716,20724.03,716,429485536,4294903260,4300,0.61,-0.15,-0.9,-1.12,-6.9,0.24,-8.6,-32.02,8.35,-42.15,2.93,7.68,-41.75,Forward Fall while Sitting
04:57.7,474,434,651,583,313,2.27,440.85,1.53,20723.55,316,711,20724.03,716,429485536,4294884493,5011,0.6,-0.15,-0.86,-2.73,-6.44,-0.07,-8.92,-32.92,8.08,-43.22,3.02,7.4,-42.81,Forward Fall while Sitting
04:57.8,528,439,658.5,583,313,2.27,440.85,1.53,20723.55,316,712,20724.03,716,429485536,4294867149,5723,0.61,-0.16,-0.9,-6.44,-9.96,1.09,-9.12,-32.41,7.33,-44.74,3.26,6.67,-44.25,Forward Fall while Sitting
04:58.0,524,444,666,583,313,2.27,440.85,1.53,20723.55,316,716,20724.03,716,429485536,4294855517,6439,0.6,-0.17,-0.88,-1.93,-8.21,-2.26,-9.73,-32.26,7.16,-46.04,3.07,6.48,-45.49,Forward Fall while Sitting
04:58.1,637,454,681,637,312,2.28,438.82,1.52,20724.15,313,713,20724,715,429483968,0,0,0.57,-0.15,-0.92,-3.33,-7.23,-5.48,-8.36,-29.69,6.81,-47.19,2.48,6.21,-46.49,Forward Fall while Sitting
04:58.2,590,461,691.5,637,313,2.27,440.85,1.53,20724.15,313,715,20724,715,429483968,4294954233,715,0.54,-0.14,-0.91,-3.99,-2.05,-1.01,-8.26,-28.57,6.38,-47.71,2.46,5.79,-46.94,Forward Fall while Sitting
04:58.3,523,464,696,637,313,2.27,440.85,1.53,20724.15,313,717,20724,715,429483968,4294944034,1432,0.56,-0.16,-0.9,-4.35,-7.9,0.27,-9.06,-29.76,5.89,-48.97,2.59,5.29,-48.21,Forward Fall while Sitting
04:58.5,540,467,700.5,637,312,2.28,438.82,1.52,20724.15,313,716,20724,715,429483968,4294932402,2148,0.54,-0.15,-0.92,-0.44,-2.73,-0.99,-8.69,-28.64,5.91,-49.57,2.57,5.32,-48.74,Forward Fall while Sitting
04:58.6,577,472,708,637,313,2.27,440.85,1.53,20724.15,313,711,20724,715,429483968,4294913635,2859,0.54,-0.14,-0.94,-2.73,-1.08,-1.92,-8.08,-28.23,5.63,-49.97,2.42,5.08,-49.1,Forward Fall while Sitting
04:58.7,221,462,693,637,313,2.27,440.85,1.53,20724.15,313,714,20724,715,429483968,4294899143,3573,0.52,-0.14,-0.95,-1.44,-0.15,-0.8,-7.7,-26.94,5.52,-50.24,2.42,4.99,-49.31,Forward Fall while Sitting
04:58.8,429,460,690,637,313,2.27,440.85,1.53,20724.15,313,719,20724,715,429483968,4294891816,4292,0.53,-0.15,-0.95,1.25,3.44,1.03,-8.29,-27.16,5.75,-50.06,2.65,5.19,-49.14,Forward Fall while Sitting
04:59.0,461,460,690,637,314,2.26,442.88,1.53,20724.15,313,719,20724,715,429483968,4294884489,5011,0.54,-0.15,-0.91,-7.36,-5.33,3.37,-8.53,-28.86,4.89,-50.99,3.18,4.35,-50.1,Forward Fall while Sitting
04:59.1,474,461,691.5,637,314,2.26,442.88,1.53,20724.15,313,713,20724,715,429483968,4294868570,5724,0.53,-0.15,-0.93,-8.1,-19.54,-0.36,-8.66,-27.71,3.93,-53.72,3.24,3.43,-52.68,Forward Fall while Sitting
04:59.2,537,463,694.5,637,313,2.27,440.85,1.53,20724.15,313,717,20724,715,429483968,4294858371,6441,0.46,-0.14,-0.97,-2.61,-6.76,-3.9,-7.81,-23.56,3.67,-54.84,2.84,3.21,-53.58,Forward Fall while Sitting
04:59.4,558,467,700.5,637,314,2.26,442.88,1.53,113.56,313,714,20724.01,715,429484384,0,0,0.45,-0.13,-0.96,-3.99,-9.05,1.91,-7.56,-23.25,3.24,-56.22,3.18,2.81,-54.9,Forward Fall while Sitting
04:59.5,551,469,703.5,637,313,2.27,440.85,1.53,113.56,313,713,20724.01,715,429484384,4294951377,713,0.49,-0.14,-1.01,-1.08,2.9,0.37,-7.61,-24.14,3.17,-56.1,3.33,2.74,-54.82,Forward Fall while Sitting
04:59.6,555,472,708,637,314,2.26,442.88,1.53,113.56,313,712,20724.01,715,429484384,4294934033,1425,0.47,-0.14,-0.95,8.34,23.77,-2.37,-8.14,-24.4,4.3,-53.36,3.13,3.8,-52.2,Forward Fall while Sitting
04:59.7,563,475,712.5,637,315,2.25,444.92,1.54,113.56,313,715,20724.01,715,429484384,4294920970,2140,0.5,-0.14,-0.93,-9.6,-2.6,4.16,-8.36,-26.38,3.15,-53.94,3.76,2.69,-52.84,Forward Fall while Sitting
04:59.9,498,476,714,637,315,2.25,444.92,1.54,113.56,313,718,20724.01,715,429484384,4294912206,2858,0.54,-0.14,-0.98,1.44,19.15,-9.27,-7.67,-27.28,3.4,-51.77,2.68,2.96,-50.79,Forward Fall while Sitting
05:00.0,593,479,718.5,637,315,2.25,444.92,1.54,113.56,313,716,20724.01,715,429484384,4294900574,3574,0.52,-0.16,-0.9,-9.19,-21.5,6.07,-9.49,-28.17,2.31,-54.73,3.54,1.84,-53.66,Forward Fall while Sitting
05:00.1,538,481,721.5,637,316,2.24,446.96,1.54,113.56,313,714,20724.01,715,429484384,4294886082,4288,0.44,-0.14,-0.95,9.11,8.88,-4.69,-8.28,-23.21,3.54,-53.85,3.05,3.07,-52.63,Forward Fall while Sitting
05:00.2,496,481,721.5,637,316,2.24,446.96,1.54,113.56,313,716,20724.01,715,429484384,4294874450,5004,0.49,-0.16,-0.94,-0.01,-1.54,2.37,-9.09,-25.61,3.61,-54.3,3.45,3.1,-53.15,Forward Fall while Sitting
05:00.4,516,482,723,637,316,2.24,446.96,1.54,113.56,313,714,20724.01,715,429484384,4294859958,5718,0.5,-0.17,-0.93,-2.32,0.55,-4.61,-9.6,-26,3.39,-54.48,2.97,2.87,-53.35,Forward Fall while Sitting
05:00.5,521,483,724.5,637,317,2.23,449.01,1.55,113.56,313,724,20724.01,715,429484384,4294859846,6442,0.48,-0.17,-0.92,-0.07,3.02,-2.26,-9.9,-25.38,3.45,-54.35,2.78,2.92,-53.2,Forward Fall while Sitting
