Datetime, ECGR , AvgECG , ampECG , MAX , GSRR , Resistance , GSR(kohm) , SCL , GSRRMS , GSRMAV , EMGR , EMGRMS , EMGMAV , EMGVAR , EMGSSI , IEMG , AccX , AccY, AccZ , GyroX , GyroY , GyroZ , Aroll , Apitch , Groll , Gpitch, Gy , Combroll , Combpitch,Features
18:46.4,996,996,1494,996,251,3.08,325.13,1.23,0,0,76,0,0,0,12176,156,0.91,-0.06,0.4,-1.59,1.81,-1.46,-3.8,-64.59,-0.29,-0.29,-0.15,-0.43,-2.87,Walking
18:46.4,995,995,1492.5,996,255,3.01,332.03,1.25,0,0,61,0,0,0,15897,217,0.91,-0.06,0.39,-2.38,2.18,-0.73,-4.01,-64.77,-0.42,-0.28,-0.15,-0.56,-2.86,Walking
18:46.4,995,995,1492.5,996,261,2.92,342.52,1.28,0,0,81,0,0,0,22458,298,0.91,-0.06,0.4,-1.34,0.56,-1.06,-4.02,-64.73,-0.48,-0.39,-0.17,-0.62,-2.96,Walking
18:46.5,995,995,1492.5,996,250,3.09,323.42,1.22,0,0,77,0,0,0,28387,375,0.91,-0.06,0.4,-2.32,-0.45,-1.47,-3.88,-64.56,-0.61,-0.57,-0.22,-0.74,-3.13,Walking
18:46.6,995,995,1492.5,996,252,3.06,326.85,1.23,0,0,64,0,0,0,32483,439,0.9,-0.05,0.39,-2.62,0.89,-1.8,-3.63,-64.87,-0.76,-0.65,-0.29,-0.87,-3.22,Walking
18:46.7,995,995,1492.5,996,263,2.89,346.05,1.29,0,0,82,0,0,0,39207,521,0.9,-0.05,0.4,-1.21,2.44,-1.21,-3.56,-64.42,-0.81,-0.62,-0.32,-0.92,-3.17,Walking
18:46.7,994,995,1492.5,996,251,3.08,325.13,1.23,0,0,78,0,0,0,45291,599,0.9,-0.05,0.4,-1.82,2.05,-0.31,-3.65,-64.14,-0.9,-0.61,-0.29,-1.01,-3.15,Walking
18:46.8,994,994,1491,996,250,3.09,323.42,1.22,0,0,65,0,0,0,49516,664,0.9,-0.06,0.4,-1.63,-0.34,0.08,-4.08,-64.49,-0.98,-0.79,-0.22,-1.1,-3.33,Walking
18:46.9,995,994,1491,996,263,2.89,346.05,1.29,20724.3,255,82,74.99,74,5623,0,0,0.91,-0.06,0.41,-1.98,-1.29,-0.4,-3.97,-64.07,-1.08,-1.03,-0.2,-1.2,-3.55,Walking
18:47.0,995,994,1491,996,252,3.06,326.85,1.23,20724.3,255,78,74.99,74,5623,6084,78,0.91,-0.06,0.39,-2.01,1.26,-1.41,-3.89,-65.24,-1.19,-1.09,-0.24,-1.3,-3.65,Walking
18:47.0,995,994,1491,996,247,3.14,318.3,1.21,20724.3,255,75,74.99,74,5623,11709,153,0.9,-0.06,0.4,-1.79,2.56,-1.34,-3.88,-64.48,-1.28,-1.05,-0.28,-1.39,-3.58,Walking
18:47.1,995,994,1491,996,254,3.03,330.3,1.24,20724.3,255,64,74.99,74,5623,15805,217,0.91,-0.05,0.4,-2.36,1.91,-0.78,-3.74,-64.38,-1.42,-1.05,-0.28,-1.51,-3.59,Walking
18:47.2,995,994,1491,996,263,2.89,346.05,1.29,20724.3,255,82,74.99,74,5623,22529,299,0.9,-0.06,0.4,-2.17,-0.15,-1.49,-3.79,-64.52,-1.54,-1.21,-0.34,-1.63,-3.75,Walking
18:47.3,995,994,1491,996,255,3.01,332.03,1.25,20724.3,255,79,74.99,74,5623,28770,378,0.9,-0.05,0.39,-2.05,-1.05,-0.72,-3.68,-64.94,-1.66,-1.44,-0.33,-1.74,-3.98,Walking
18:47.4,995,994,1491,996,248,3.13,320,1.21,20724.3,255,78,74.99,74,5623,34854,456,0.91,-0.06,0.38,-3.68,0.47,1.63,-3.91,-65.24,-1.89,-1.56,-0.15,-1.97,-4.11,Walking
18:47.4,995,994,1491,996,250,3.09,323.42,1.22,20724.3,255,63,74.99,74,5623,38823,519,0.92,-0.08,0.41,-3.02,1.44,0.99,-4.89,-64.05,-2.07,-1.6,-0.01,-2.19,-4.1,Walking
18:47.5,995,994,1491,996,263,2.89,346.05,1.29,20724.3,255,81,74.99,74,5623,45384,600,0.92,-0.07,0.41,-3.54,1.35,-3.83,-4.76,-64.33,-2.3,-1.65,-0.25,-2.4,-4.16,Walking
18:47.6,995,994,1491,996,256,3,333.77,1.25,20724.3,255,79,74.99,74,5623,51625,679,0.9,-0.06,0.39,-3.08,0.79,-3.63,-3.96,-64.55,-2.49,-1.74,-0.46,-2.55,-4.25,Walking
18:47.7,995,994,1491,996,248,3.13,320,1.21,20724.28,253,78,75.96,75,5769,0,0,0.89,-0.05,0.39,-3.44,-0.8,0.05,-3.68,-64.93,-2.7,-1.95,-0.4,-2.74,-4.47,Walking
18:47.7,995,994,1491,996,248,3.13,320,1.21,20724.28,253,63,75.96,75,5769,3969,63,0.92,-0.06,0.4,-3.15,2.24,0.15,-4.18,-64.85,-2.9,-1.93,-0.33,-2.95,-4.45,Walking
18:47.8,995,994,1491,996,262,2.9,344.28,1.28,20724.28,253,81,75.96,75,5769,10530,144,0.92,-0.06,0.4,-0.89,2.5,-1.79,-4.02,-64.56,-2.92,-1.89,-0.4,-2.96,-4.4,Walking
18:47.9,995,994,1491,996,256,3,333.77,1.25,20724.28,253,79,75.96,75,5769,16771,223,0.91,-0.06,0.39,0.37,0.31,-2,-4.02,-64.98,-2.85,-2.02,-0.49,-2.9,-4.54,Walking
18:47.9,995,994,1491,996,248,3.13,320,1.21,20724.28,253,79,75.96,75,5769,23012,302,0.9,-0.07,0.4,-0.79,-1.14,0.06,-4.39,-64.4,-2.87,-2.25,-0.43,-2.93,-4.74,Walking
18:48.0,995,994,1491,996,247,3.14,318.3,1.21,20724.28,253,64,75.96,75,5769,27108,366,0.91,-0.07,0.38,-2.02,-0.65,0.41,-4.61,-65.5,-2.98,-2.46,-0.34,-3.04,-4.98,Walking
18:48.1,994,994,1491,996,259,2.95,339.01,1.27,20724.28,253,80,75.96,75,5769,33508,446,0.91,-0.07,0.38,-2.08,2.73,-1.12,-4.88,-65.42,-3.09,-2.4,-0.36,-3.16,-4.92,Walking
18:48.2,995,994,1491,996,259,2.95,339.01,1.27,20724.28,253,84,75.96,75,5769,40564,530,0.91,-0.07,0.39,-3.66,2.81,-2.66,-4.63,-64.81,-3.33,-2.34,-0.51,-3.38,-4.84,Walking
18:48.2,995,994,1491,996,251,3.08,325.13,1.23,20724.28,253,79,75.96,75,5769,46805,609,0.91,-0.06,0.4,-4.34,0.44,-2.56,-4.05,-64.51,-3.61,-2.46,-0.64,-3.63,-4.94,Walking
18:48.3,995,994,1491,996,244,3.19,313.22,1.19,20724.28,253,65,75.96,75,5769,51030,674,0.91,-0.06,0.4,-3.44,-0.66,-1.16,-3.86,-64.48,-3.83,-2.66,-0.67,-3.83,-5.13,Walking
18:48.4,995,994,1491,996,252,3.06,326.85,1.23,20724.26,252,64,74.24,73,5511,0,0,0.91,-0.06,0.4,-1.57,0.6,-0.05,-4.05,-64.41,-3.9,-2.76,-0.61,-3.91,-5.23,Walking
18:48.5,995,994,1491,996,258,2.97,337.25,1.26,20724.26,252,83,74.24,73,5511,6889,83,0.9,-0.06,0.4,-1,0.02,1.06,-4.3,-64.41,-3.94,-2.91,-0.47,-3.95,-5.37,Walking
18:48.5,995,994,1491,996,250,3.09,323.42,1.22,20724.26,252,79,74.24,73,5511,13130,162,0.91,-0.07,0.39,-0.99,-0.85,1.43,-4.4,-64.79,-3.97,-3.12,-0.3,-3.98,-5.59,Walking
18:48.6,995,994,1491,996,245,3.18,314.91,1.2,20724.26,252,66,74.24,73,5511,17486,228,0.91,-0.08,0.38,-0.84,-2.15,1.08,-5.06,-65.35,-3.99,-3.44,-0.16,-4.03,-5.91,Walking
18:48.7,995,994,1491,996,253,3.04,328.57,1.24,20724.26,252,64,74.24,73,5511,21582,292,0.91,-0.08,0.37,-0.95,0.1,0.85,-5.11,-66.06,-4.02,-3.58,-0.04,-4.06,-6.08,Walking
18:48.8,995,994,1491,996,261,2.92,342.52,1.28,20724.26,252,83,74.24,73,5511,28471,375,0.91,-0.09,0.38,-1.85,1.7,-0.8,-5.74,-65.18,-4.12,-3.6,-0.04,-4.18,-6.06,Walking
18:48.9,995,994,1491,996,252,3.06,326.85,1.23,20724.26,252,79,74.24,73,5511,34712,454,0.92,-0.08,0.38,-2.66,2.34,-2.29,-5.31,-65.48,-4.27,-3.58,-0.15,-4.31,-6.05,Walking
18:48.9,995,994,1491,996,246,3.16,316.6,1.2,20724.26,252,78,74.24,73,5511,40796,532,0.91,-0.07,0.39,-3.2,1.82,-3.76,-4.66,-65.15,-4.47,-3.59,-0.38,-4.48,-6.05,Walking
18:49.0,995,994,1491,996,251,3.08,325.13,1.23,20724.26,252,66,74.24,73,5511,45152,598,0.91,-0.07,0.38,-1.37,2.5,-3.19,-4.41,-65.12,-4.53,-3.55,-0.56,-4.53,-6.01,Walking
18:49.1,995,994,1491,996,263,2.89,346.05,1.29,20724.26,252,82,74.24,73,5511,51876,680,0.91,-0.06,0.4,-1.98,1.56,-1.66,-4.25,-64.57,-4.64,-3.59,-0.62,-4.62,-6.03,Walking
18:49.2,995,994,1491,996,255,3.01,332.03,1.25,20724.27,253,79,76.23,75,5810,0,0,0.91,-0.06,0.39,-1.18,1.16,-1.78,-4.07,-64.73,-4.69,-3.65,-0.7,-4.66,-6.09,Walking
18:49.2,994,994,1491,996,248,3.13,320,1.21,20724.27,253,78,76.23,75,5810,6084,78,0.91,-0.07,0.39,-0.87,1.41,-1.15,-4.35,-64.81,-4.71,-3.69,-0.72,-4.69,-6.14,Walking
18:49.3,995,994,1491,996,251,3.08,325.13,1.23,20724.27,253,66,76.23,75,5810,10440,144,0.91,-0.07,0.39,-0.88,0.45,-0.82,-4.45,-64.7,-4.73,-3.81,-0.73,-4.72,-6.24,Walking
18:49.4,995,994,1491,996,262,2.9,344.28,1.28,20724.27,253,83,76.23,75,5810,17329,227,0.91,-0.07,0.39,-1.39,0.6,-1.56,-4.74,-64.64,-4.8,-3.91,-0.78,-4.79,-6.34,Walking
18:49.4,995,994,1491,996,256,3,333.77,1.25,20724.27,253,82,76.23,75,5810,24053,309,0.9,-0.07,0.39,-1.52,1.69,-2.12,-4.51,-64.82,-4.87,-3.94,-0.88,-4.85,-6.37,Walking
18:49.5,995,994,1491,996,249,3.11,321.71,1.22,20724.27,253,78,76.23,75,5810,30137,387,0.91,-0.06,0.4,-1.69,2.04,-2.16,-4.09,-64.31,-4.95,-3.94,-0.99,-4.92,-6.35,Walking
18:49.6,995,994,1491,996,248,3.13,320,1.21,20724.27,253,67,76.23,75,5810,34626,454,0.91,-0.06,0.39,-2.58,1.82,-1.02,-4.28,-64.76,-5.1,-3.95,-1,-5.07,-6.38,Walking
18:49.7,995,994,1491,996,259,2.95,339.01,1.27,20724.27,253,83,76.23,75,5810,41515,537,0.91,-0.07,0.38,-1.86,0.46,-0.08,-4.35,-65.37,-5.2,-4.07,-0.95,-5.17,-6.52,Walking
18:49.7,995,994,1491,996,259,2.95,339.01,1.27,20724.27,253,83,76.23,75,5810,48404,620,0.91,-0.07,0.4,-2.97,1.25,-0.97,-4.73,-64.22,-5.39,-4.12,-0.96,-5.36,-6.53,Walking
18:49.8,995,994,1491,996,250,3.09,323.42,1.22,20724.27,253,78,76.23,75,5810,54488,698,0.91,-0.07,0.4,-3.21,2.21,-2.25,-4.35,-64.52,-5.59,-4.11,-1.07,-5.54,-6.52,Walking
18:49.9,995,994,1491,996,247,3.14,318.3,1.21,20724.27,252,66,76.71,76,5883,0,0,0.9,-0.06,0.39,-2.45,2.61,-1.6,-4.22,-64.63,-5.73,-4.06,-1.13,-5.67,-6.48,Walking
18:50.0,995,994,1491,996,257,2.98,335.51,1.26,20724.27,252,75,76.71,76,5883,5625,75,0.91,-0.06,0.4,-1.89,0.13,-0.6,-4.03,-64.17,-5.83,-4.2,-1.12,-5.75,-6.6,Walking
18:50.1,995,994,1491,996,259,2.95,339.01,1.27,20724.27,252,84,76.71,76,5883,12681,159,0.91,-0.05,0.39,-0.51,0.47,-0.27,-3.6,-64.92,-5.82,-4.32,-1.08,-5.73,-6.74,Walking
18:50.1,995,994,1491,996,252,3.06,326.85,1.23,20724.27,252,79,76.71,76,5883,18922,238,0.9,-0.07,0.39,1.09,1.36,-0.05,-4.4,-64.91,-5.7,-4.37,-1.02,-5.64,-6.79,Walking
18:50.2,995,994,1491,996,247,3.14,318.3,1.21,20724.27,252,66,76.71,76,5883,23278,304,0.91,-0.08,0.38,-0.18,0.9,0.17,-4.97,-65.39,-5.67,-4.45,-0.95,-5.64,-6.88,Walking
18:50.3,995,994,1491,996,257,2.98,335.51,1.26,20724.27,252,63,76.71,76,5883,27247,367,0.92,-0.07,0.38,-0.96,0.26,-1.28,-4.79,-65.47,-5.7,-4.58,-0.99,-5.66,-7.02,Walking
18:50.4,995,994,1491,996,261,2.92,342.52,1.28,20724.27,252,85,76.71,76,5883,34472,452,0.91,-0.07,0.39,-1.07,0.85,-4.18,-4.75,-64.68,-5.74,-4.67,-1.24,-5.7,-7.07,Walking
18:50.4,995,994,1491,996,253,3.04,328.57,1.24,20724.27,252,81,76.71,76,5883,41033,533,0.91,-0.05,0.39,-2.94,3.66,-4.39,-3.56,-64.92,-5.92,-4.54,-1.52,-5.82,-6.95,Walking
18:50.5,995,994,1491,996,246,3.16,316.6,1.2,20724.27,252,79,76.71,76,5883,47274,612,0.9,-0.05,0.39,-1.74,4.16,-2.72,-3.49,-65.03,-6,-4.38,-1.66,-5.9,-6.81,Walking
18:50.6,995,994,1491,996,252,3.06,326.85,1.23,20724.27,252,64,76.71,76,5883,51370,676,0.91,-0.06,0.43,-2.18,1.76,-0.52,-3.72,-63.15,-6.13,-4.4,-1.64,-6.03,-6.75,Walking
18:50.7,995,994,1491,996,264,2.88,347.83,1.29,20724.29,254,84,76.43,76,5841,0,0,0.9,-0.06,0.41,-2.54,-0.64,-1.33,-3.89,-63.93,-6.27,-4.59,-1.68,-6.18,-6.97,Walking
18:50.7,994,994,1491,996,255,3.01,332.03,1.25,20724.29,254,80,76.43,76,5841,6400,80,0.9,-0.05,0.4,-2.44,-0.12,-1.44,-3.58,-64.34,-6.42,-4.75,-1.73,-6.3,-7.14,Walking
18:50.8,995,994,1491,996,248,3.13,320,1.21,20724.29,254,80,76.43,76,5841,12800,160,0.9,-0.06,0.39,-1.76,1.14,-0.66,-3.81,-64.69,-6.51,-4.82,-1.72,-6.4,-7.21,Walking
18:50.9,995,994,1491,996,251,3.08,325.13,1.23,20724.29,254,65,76.43,76,5841,17025,225,0.91,-0.06,0.4,-2.13,1.82,-0.81,-3.87,-64.4,-6.62,-4.83,-1.72,-6.51,-7.22,Walking
18:51.0,994,994,1491,996,263,2.89,346.05,1.29,20724.29,254,82,76.43,76,5841,23749,307,0.91,-0.06,0.4,-2.27,0.66,-1.62,-3.93,-64.51,-6.75,-4.93,-1.78,-6.64,-7.32,Walking
18:51.0,995,994,1491,996,257,2.98,335.51,1.26,20724.29,254,80,76.43,76,5841,30149,387,0.91,-0.05,0.39,-1.44,-0.17,-1.62,-3.72,-65.07,-6.82,-5.1,-1.85,-6.7,-7.5,Walking
18:51.1,995,994,1491,996,249,3.11,321.71,1.22,20724.29,254,80,76.43,76,5841,36549,467,0.9,-0.06,0.41,-1.13,0.09,-0.4,-3.88,-63.85,-6.86,-5.24,-1.82,-6.74,-7.58,Walking
18:51.2,995,994,1491,996,248,3.13,320,1.21,20724.29,254,66,76.43,76,5841,40905,533,0.91,-0.05,0.39,-2.96,1.21,-0.13,-3.59,-64.93,-7.04,-5.3,-1.77,-6.91,-7.68,Walking
18:51.3,994,994,1491,996,260,2.93,340.76,1.27,20724.29,254,83,76.43,76,5841,47794,616,0.91,-0.06,0.4,-1.86,1.58,-1.18,-4.13,-64.41,-7.14,-5.33,-1.8,-7.02,-7.69,Walking
18:51.3,995,994,1491,996,260,2.93,340.76,1.27,20724.29,254,84,76.43,76,5841,54850,700,0.9,-0.06,0.4,-2.73,-0.31,-1.48,-3.89,-64.09,-7.31,-5.5,-1.85,-7.17,-7.85,Walking
18:51.4,995,994,1491,996,253,3.04,328.57,1.24,20724.28,254,80,78.26,78,6124,0,0,0.9,-0.06,0.4,-4.27,-2.08,-0.21,-4.13,-64.34,-7.58,-5.81,-1.81,-7.44,-8.15,Walking
18:51.5,995,994,1491,996,247,3.14,318.3,1.21,20724.28,254,67,78.26,78,6124,4489,67,0.9,-0.06,0.4,-8.01,-9.12,3.05,-4.16,-64.47,-8.15,-6.65,-1.51,-7.99,-8.96,Walking
18:51.6,996,994,1491,996,258,2.97,337.25,1.26,20724.28,254,65,78.26,78,6124,8714,132,0.92,-0.07,0.36,-9.33,-16.34,1.98,-4.78,-66.49,-8.8,-8.03,-1.31,-8.64,-10.37,Walking
18:51.6,995,994,1491,996,260,2.93,340.76,1.27,20724.28,254,83,78.26,78,6124,15603,215,0.92,-0.11,0.35,-11.5,-25.29,0.44,-6.69,-66.63,-9.63,-10.1,-1.21,-9.52,-12.36,Walking
18:51.7,995,994,1491,996,255,3.01,332.03,1.25,20724.28,254,81,78.26,78,6124,22164,296,0.94,-0.09,0.32,-12.76,-25.68,1.6,-5.5,-69.35,-10.56,-12.2,-1.03,-10.36,-14.49,Walking
18:51.8,995,994,1491,996,249,3.11,321.71,1.22,20724.28,254,78,78.26,78,6124,28248,374,0.96,-0.06,0.27,-10.89,-17.63,1.05,-4.3,-72.5,-11.35,-13.7,-0.89,-11.07,-16.05,Walking
18:51.9,995,994,1491,996,247,3.14,318.3,1.21,20724.28,254,66,78.26,78,6124,32604,440,0.95,-0.1,0.28,-7.78,-12.41,1.82,-6.3,-70.84,-11.9,-14.79,-0.69,-11.67,-17.03,Walking
18:51.9,995,994,1491,996,256,3,333.77,1.25,20724.28,254,64,78.26,78,6124,36700,504,0.95,-0.11,0.25,-6.36,-7.59,5.31,-6.73,-72.23,-12.34,-15.53,-0.22,-12.12,-17.8,Walking
18:52.0,995,994,1491,996,263,2.89,346.05,1.29,20724.28,254,82,78.26,78,6124,43424,586,0.96,-0.11,0.24,-7.52,-7.47,6.02,-6.83,-72.97,-12.87,-16.25,0.29,-12.63,-18.52,Walking
18:52.1,996,994,1491,996,255,3.01,332.03,1.25,20724.28,254,81,78.26,78,6124,49985,667,0.99,-0.13,0.22,-7.47,-17.11,6.8,-8.17,-73.9,-13.39,-17.68,0.86,-13.18,-19.93,Walking
18:52.2,996,994,1491,996,250,3.09,323.42,1.22,20724.28,254,80,75.09,74,5637,0,0,1.01,-0.14,0.21,-7.19,-20.66,3.99,-8.55,-74.36,-13.89,-19.38,1.22,-13.67,-21.58,Walking
18:52.2,996,994,1491,996,249,3.11,321.71,1.22,20724.28,254,65,75.09,74,5637,4225,65,0.99,-0.15,0.17,-3.18,-16.5,-0.81,-9.11,-75.26,-14.09,-20.79,1.22,-13.89,-22.97,Walking
18:52.3,995,994,1491,996,260,2.93,340.76,1.27,20724.28,254,81,75.09,74,5637,10786,146,0.98,-0.15,0.12,0.05,-1.48,-1.89,-9.01,-77.57,-14.04,-21.05,1.14,-13.84,-23.31,Walking
18:52.4,995,994,1491,996,261,2.92,342.52,1.28,20724.28,254,86,75.09,74,5637,18182,232,0.97,-0.15,0.14,1.48,9.34,1.18,-9.45,-76.29,-13.88,-20.49,1.29,-13.71,-22.73,Walking
18:52.5,995,994,1491,996,252,3.06,326.85,1.23,20724.28,254,80,75.09,74,5637,24582,312,1,-0.17,0.18,-1.21,9.95,-1.36,-9.94,-74.79,-13.93,-19.9,1.24,-13.77,-22.09,Walking
18:52.5,995,994,1491,996,247,3.14,318.3,1.21,20724.28,254,79,75.09,74,5637,30823,391,0.99,-0.16,0.17,-2.79,4.58,-5.2,-9.71,-74.96,-14.1,-19.7,0.91,-13.93,-21.91,Walking
18:52.6,995,994,1491,996,250,3.09,323.42,1.22,20724.28,254,65,75.09,74,5637,35048,456,0.98,-0.14,0.19,-1.83,0.53,-6.41,-8.58,-74.78,-14.2,-19.81,0.48,-13.98,-22.01,Walking
18:52.7,995,994,1491,996,263,2.89,346.05,1.29,20724.28,254,83,75.09,74,5637,41937,539,0.97,-0.13,0.19,-1.76,2.58,-5.24,-7.87,-75.36,-14.29,-19.77,0.14,-14.03,-21.99,Walking
18:52.8,997,995,1492.5,997,259,2.95,339.01,1.27,20724.28,254,85,75.09,74,5637,49162,624,0.98,-0.11,0.18,0.98,6.87,-1.4,-7.15,-76.2,-14.18,-19.4,0.1,-13.9,-21.68,Walking
18:52.8,995,995,1492.5,997,252,3.06,326.85,1.23,20724.28,254,82,75.09,74,5637,55886,706,0.98,-0.13,0.2,0.05,8.93,2.04,-8.17,-74.58,-14.13,-18.88,0.31,-13.89,-21.11,Walking
18:52.9,995,995,1492.5,997,247,3.14,318.3,1.21,20724.28,254,69,77.87,77,6063,0,0,0.98,-0.14,0.21,2.18,4.71,0.89,-8.78,-73.84,-13.92,-18.67,0.44,-13.72,-20.88,Walking
18:53.0,996,995,1492.5,997,259,2.95,339.01,1.27,20724.28,254,66,77.87,77,6063,4356,66,0.98,-0.14,0.21,-0.58,-0.28,-0.9,-8.71,-74.07,-13.93,-18.85,0.43,-13.72,-21.05,Walking
18:53.1,995,995,1492.5,997,262,2.9,344.28,1.28,20724.28,254,85,77.87,77,6063,11581,151,0.97,-0.14,0.19,-2.39,0.1,-2.01,-8.7,-74.67,-14.06,-18.99,0.34,-13.85,-21.22,Walking
18:53.2,995,995,1492.5,997,255,3.01,332.03,1.25,20724.28,254,81,77.87,77,6063,18142,232,0.97,-0.13,0.18,-0.05,4.31,-1.84,-7.88,-75.45,-14.03,-18.82,0.26,-13.78,-21.08,Walking
18:53.2,995,995,1492.5,997,249,3.11,321.71,1.22,20724.28,254,82,77.87,77,6063,24866,314,0.96,-0.13,0.22,-1.12,6.22,-1.76,-8.24,-73.25,-14.07,-18.5,0.19,-13.84,-20.69,Walking
18:53.3,995,995,1492.5,997,250,3.09,323.42,1.22,20724.28,254,65,77.87,77,6063,29091,379,0.98,-0.14,0.23,-2.73,5.56,-2.95,-8.5,-73.32,-14.23,-18.23,0.02,-14.01,-20.43,Walking
18:53.4,995,995,1492.5,997,261,2.92,342.52,1.28,20724.28,254,85,77.87,77,6063,36316,464,0.97,-0.14,0.22,-1.79,1.09,-3.74,-8.29,-73.62,-14.33,-18.3,-0.21,-14.09,-20.51,Walking
18:53.4,995,995,1492.5,997,261,2.92,342.52,1.28,20724.28,254,85,77.87,77,6063,43541,549,0.97,-0.12,0.22,-1.76,0.02,-1.87,-7.53,-73.9,-14.42,-18.44,-0.29,-14.14,-20.66,Walking
18:53.5,995,995,1492.5,997,255,3.01,332.03,1.25,20724.28,254,82,77.87,77,6063,50265,631,0.97,-0.12,0.21,-1.41,1.63,0,-7.52,-74.33,-14.48,-18.47,-0.23,-14.21,-20.71,Walking
18:53.6,995,995,1492.5,997,248,3.13,320,1.21,20724.28,254,81,77.87,77,6063,56826,712,0.97,-0.13,0.21,-0.85,3.6,0.36,-8.18,-73.95,-14.51,-18.35,-0.14,-14.25,-20.57,Walking
18:53.7,996,995,1492.5,997,250,3.09,323.42,1.22,20724.29,255,65,78.13,77,6104,0,0,0.97,-0.13,0.23,-1.51,2.56,-0.87,-8.18,-73.27,-14.58,-18.31,-0.15,-14.32,-20.51,Walking
18:53.8,994,995,1492.5,997,263,2.89,346.05,1.29,20724.29,255,83,78.13,77,6104,6889,83,0.98,-0.13,0.23,-2.17,0.69,-1.97,-8.1,-73.32,-14.7,-18.41,-0.23,-14.43,-20.6,Walking
18:53.8,996,995,1492.5,997,259,2.95,339.01,1.27,20724.29,255,86,78.13,77,6104,14285,169,0.97,-0.12,0.23,-1.51,2.03,-2.05,-7.69,-73.45,-14.77,-18.4,-0.33,-14.49,-20.61,Walking
18:53.9,994,995,1492.5,997,252,3.06,326.85,1.23,20724.29,255,82,78.13,77,6104,21009,251,0.96,-0.13,0.22,-1.49,2.76,-0.91,-7.82,-73.82,-14.84,-18.35,-0.34,-14.56,-20.57,Walking
18:54.0,995,995,1492.5,997,248,3.13,320,1.21,20724.29,255,81,78.13,77,6104,27570,332,0.97,-0.13,0.23,-1.93,2.66,-0.35,-7.89,-73.09,-14.95,-18.3,-0.3,-14.66,-20.49,Walking
18:54.1,995,995,1492.5,997,254,3.03,330.3,1.24,20724.29,255,67,78.13,77,6104,32059,399,0.97,-0.13,0.24,-2.83,0.85,-0.79,-8.03,-72.79,-15.12,-18.38,-0.3,-14.84,-20.56,Walking
18:54.1,995,995,1492.5,997,263,2.89,346.05,1.29,20724.29,255,86,78.13,77,6104,39455,485,0.97,-0.13,0.22,-1.4,0.54,-1.13,-7.91,-73.89,-15.18,-18.49,-0.33,-14.89,-20.71,Walking
18:54.2,995,995,1492.5,997,259,2.95,339.01,1.27,20724.29,255,85,78.13,77,6104,46680,570,0.97,-0.13,0.24,-1.5,1.64,-0.76,-7.83,-72.94,-15.25,-18.52,-0.33,-14.96,-20.7,Walking
18:54.3,994,995,1492.5,997,254,3.03,330.3,1.24,20724.29,255,80,78.13,77,6104,53080,650,0.97,-0.12,0.23,-1.53,3.56,-0.76,-7.75,-73.16,-15.33,-18.4,-0.33,-15.02,-20.59,Walking
18:54.4,995,995,1492.5,997,247,3.14,318.3,1.21,20724.29,255,83,78.13,77,6104,59969,733,0.97,-0.13,0.23,-0.63,3.47,-1.41,-8.04,-73.08,-15.33,-18.29,-0.37,-15.04,-20.48,Walking
18:54.4,994,995,1492.5,997,253,3.04,328.57,1.24,20724.29,255,67,80.28,80,6444,0,0,0.97,-0.14,0.24,-2.61,0.95,-1.63,-8.44,-72.36,-15.49,-18.37,-0.44,-15.21,-20.53,Walking
18:54.5,995,995,1492.5,997,265,2.86,349.6,1.3,20724.29,255,85,80.28,80,6444,7225,85,0.97,-0.13,0.23,-2.21,-0.24,-1.58,-7.81,-73.05,-15.61,-18.53,-0.5,-15.3,-20.72,Walking
18:54.6,994,994,1491,997,260,2.93,340.76,1.27,20724.29,255,83,80.28,80,6444,14114,168,0.97,-0.13,0.23,-1.34,1.63,-1.31,-7.83,-73.3,-15.67,-18.56,-0.54,-15.36,-20.75,Walking
18:54.7,994,994,1491,997,251,3.08,325.13,1.23,20724.29,255,80,80.28,80,6444,20514,248,0.96,-0.13,0.24,-2.32,1.03,-0.42,-8.24,-72.32,-15.8,-18.64,-0.51,-15.5,-20.78,Walking
18:54.7,994,994,1491,997,248,3.13,320,1.21,20724.29,255,68,80.28,80,6444,25138,316,0.97,-0.13,0.23,-1.27,0.66,-0.89,-7.96,-73.07,-15.86,-18.74,-0.51,-15.54,-20.91,Walking
18:54.8,995,994,1491,997,256,3,333.77,1.25,20724.29,255,65,80.28,80,6444,29363,381,0.97,-0.13,0.24,-0.92,1.58,-0.6,-7.95,-72.87,-15.89,-18.77,-0.5,-15.57,-20.93,Walking
18:54.9,995,994,1491,997,265,2.86,349.6,1.3,20724.29,255,84,80.28,80,6444,36419,465,0.97,-0.13,0.23,-3.3,1.06,-0.97,-8.15,-73.01,-16.09,-18.84,-0.51,-15.78,-21.01,Walking
18:55.0,995,994,1491,997,259,2.95,339.01,1.27,20724.29,255,84,80.28,80,6444,43475,549,0.97,-0.13,0.23,-1.92,1.36,-1.68,-7.85,-73.11,-16.2,-18.89,-0.58,-15.86,-21.06,Walking
18:55.0,995,994,1491,997,252,3.06,326.85,1.23,20724.29,255,83,80.28,80,6444,50364,632,0.96,-0.13,0.25,-1.48,1.21,-1.56,-7.8,-72.4,-16.27,-18.95,-0.64,-15.93,-21.09,Walking
18:55.1,995,994,1491,997,248,3.13,320,1.21,20724.29,255,71,80.28,80,6444,55405,703,0.96,-0.14,0.24,-2.79,2.17,-0.52,-8.35,-72.45,-16.44,-18.94,-0.62,-16.12,-21.08,Walking
18:55.2,994,994,1491,997,254,3.03,330.3,1.24,20724.3,255,66,77.3,76,5975,0,0,0.96,-0.13,0.25,-1.43,1.59,-1.23,-8.18,-72.18,-16.5,-18.97,-0.65,-16.17,-21.1,Walking
18:55.3,995,994,1491,997,266,2.85,351.39,1.3,20724.3,255,86,77.3,76,5975,7396,86,0.97,-0.13,0.23,-2.27,1.14,-1.55,-7.83,-73.09,-16.63,-19.03,-0.71,-16.28,-21.19,Walking
18:55.4,995,994,1491,997,258,2.97,337.25,1.26,20724.3,255,83,77.3,76,5975,14285,169,0.97,-0.13,0.23,-1.04,1.21,-1.27,-7.86,-73.23,-16.67,-19.09,-0.75,-16.32,-21.26,Walking
18:55.4,995,994,1491,997,250,3.09,323.42,1.22,20724.3,255,81,77.3,76,5975,20846,250,0.96,-0.12,0.24,-1.4,1.52,-1.49,-7.71,-72.67,-16.73,-19.13,-0.8,-16.37,-21.27,Walking
18:55.5,995,994,1491,997,247,3.14,318.3,1.21,20724.3,255,65,77.3,76,5975,25071,315,0.96,-0.13,0.23,-1.1,2.99,-1.3,-8.12,-72.83,-16.77,-19.05,-0.84,-16.43,-21.21,Walking
18:55.6,995,994,1491,997,257,2.98,335.51,1.26,20724.3,255,64,77.3,76,5975,29167,379,0.96,-0.13,0.25,-1.49,2.58,-1.15,-8.09,-71.91,-16.85,-19.01,-0.86,-16.5,-21.13,Walking
18:55.7,995,994,1491,997,263,2.89,346.05,1.29,20724.3,255,86,77.3,76,5975,36563,465,0.96,-0.13,0.23,-2.39,3.1,-0.95,-7.95,-72.95,-16.99,-18.93,-0.88,-16.62,-21.09,Walking
18:55.7,996,994,1491,997,256,3,333.77,1.25,20724.3,255,82,77.3,76,5975,43287,547,0.97,-0.13,0.24,-2.18,2.05,-2.37,-8,-72.43,-17.11,-18.92,-1,-16.74,-21.06,Walking
18:55.8,994,994,1491,997,249,3.11,321.71,1.22,20724.3,255,81,77.3,76,5975,49848,628,0.97,-0.13,0.25,-2,2.02,-3.26,-7.75,-72.38,-17.22,-18.92,-1.18,-16.84,-21.06,Walking
18:55.9,995,994,1491,997,247,3.14,318.3,1.21,20724.3,255,66,77.3,76,5975,54204,694,0.97,-0.12,0.25,-3.01,1.99,-3.59,-7.35,-72.36,-17.4,-18.92,-1.39,-17,-21.06,Walking
18:55.9,994,994,1491,997,256,3,333.77,1.25,20724.29,254,65,76.43,75,5841,0,0,0.95,-0.11,0.25,-1.73,2.01,-1.58,-7.08,-72.48,-17.49,-18.92,-1.45,-17.07,-21.06,Walking
18:56.0,995,994,1491,997,260,2.93,340.76,1.27,20724.29,254,86,76.43,75,5841,7396,86,0.96,-0.11,0.26,-0.96,1.24,-0.47,-7.1,-71.87,-17.52,-18.98,-1.43,-17.1,-21.09,Walking
18:56.1,994,994,1491,997,252,3.06,326.85,1.23,20724.29,254,83,76.43,75,5841,14285,169,0.97,-0.13,0.25,-1.87,0.78,-0.73,-7.73,-72.23,-17.62,-19.07,-1.42,-17.23,-21.2,Walking
18:56.2,995,994,1491,997,246,3.16,316.6,1.2,20724.29,254,81,76.43,75,5841,20846,250,0.96,-0.12,0.25,-0.69,0.27,-0.79,-7.62,-72.07,-17.63,-19.2,-1.42,-17.23,-21.32,Walking
18:56.3,995,994,1491,997,246,3.16,316.6,1.2,20724.29,254,64,76.43,75,5841,24942,314,0.96,-0.12,0.25,-1.65,0.46,-0.82,-7.52,-72.31,-17.71,-19.32,-1.43,-17.31,-21.44,Walking
18:56.3,995,994,1491,997,256,3,333.77,1.25,20724.29,254,79,76.43,75,5841,31183,393,0.96,-0.12,0.25,-2.37,1.37,-0.89,-7.62,-72.37,-17.85,-19.37,-1.43,-17.44,-21.49,Walking
18:56.4,995,994,1491,997,259,2.95,339.01,1.27,20724.29,254,86,76.43,75,5841,38579,479,0.96,-0.12,0.25,-1.22,1.93,-1.44,-7.57,-72.05,-17.9,-19.37,-1.48,-17.49,-21.48,Walking
18:56.5,995,994,1491,997,252,3.06,326.85,1.23,20724.29,254,82,76.43,75,5841,45303,561,0.96,-0.12,0.25,-2.65,2.34,-1.11,-7.21,-72.49,-18.06,-19.35,-1.51,-17.63,-21.47,Walking
18:56.6,995,994,1491,997,246,3.16,316.6,1.2,20724.29,254,81,76.43,75,5841,51864,642,0.96,-0.12,0.26,-3.35,1.31,-1.72,-7.29,-71.87,-18.27,-19.4,-1.58,-17.83,-21.5,Walking
18:56.6,995,994,1491,997,244,3.19,313.22,1.19,20724.29,254,66,76.43,75,5841,56220,708,0.96,-0.11,0.25,-1.89,1.54,-1.69,-7.08,-72.28,-18.37,-19.43,-1.65,-17.92,-21.55,Walking
18:56.7,994,994,1491,997,255,3.01,332.03,1.25,20724.25,251,69,78.09,77,6097,0,0,0.96,-0.11,0.26,-1.34,0.92,-0.63,-7.12,-71.92,-18.43,-19.51,-1.63,-17.98,-21.61,Walking
18:56.8,996,994,1491,997,258,2.97,337.25,1.26,20724.25,251,85,78.09,77,6097,7225,85,0.96,-0.12,0.27,-0.98,1.11,-0.53,-7.52,-71.49,-18.46,-19.58,-1.61,-18.03,-21.66,Walking
18:56.9,994,994,1491,997,249,3.11,321.71,1.22,20724.25,251,81,78.09,77,6097,13786,166,0.96,-0.12,0.26,-2.67,1.18,-1.21,-7.51,-71.93,-18.62,-19.64,-1.65,-18.18,-21.73,Walking
18:56.9,995,994,1491,997,244,3.19,313.22,1.19,20724.25,251,80,78.09,77,6097,20186,246,0.95,-0.12,0.25,-1.38,0.86,-2.33,-7.46,-72.06,-18.69,-19.73,-1.76,-18.24,-21.82,Walking
18:57.0,994,994,1491,997,247,3.14,318.3,1.21,20724.25,251,65,78.09,77,6097,24411,311,0.96,-0.12,0.26,-1.93,1.02,-1.1,-7.47,-71.79,-18.79,-19.81,-1.79,-18.34,-21.88,Walking
18:57.1,995,994,1491,997,258,2.97,337.25,1.26,20724.25,251,81,78.09,77,6097,30972,392,0.96,-0.13,0.26,-1.86,1.63,-1.42,-7.73,-71.6,-18.89,-19.83,-1.84,-18.44,-21.9,Walking
18:57.2,995,994,1491,997,256,3,333.77,1.25,20724.25,251,85,78.09,77,6097,38197,477,0.96,-0.12,0.25,-1.92,1.93,-2.09,-7.31,-72.36,-18.99,-19.84,-1.93,-18.52,-21.94,Walking
18:57.2,995,994,1491,997,248,3.13,320,1.21,20724.25,251,81,78.09,77,6097,44758,558,0.96,-0.12,0.25,-1.87,1.08,-1.66,-7.38,-72.57,-19.09,-19.91,-2,-18.62,-22.01,Walking
18:57.3,995,994,1491,997,243,3.21,311.54,1.19,20724.25,251,79,78.09,77,6097,50999,637,0.96,-0.12,0.26,-2.6,0.15,-0.43,-7.23,-71.9,-19.25,-20.05,-1.97,-18.77,-22.12,Walking
18:57.4,995,994,1491,997,247,3.14,318.3,1.21,20724.25,251,65,78.09,77,6097,55224,702,0.96,-0.11,0.26,-1.03,0.87,-1.2,-6.98,-72.17,-19.28,-20.14,-2,-18.79,-22.22,Walking
18:57.5,995,994,1491,997,257,2.98,335.51,1.26,20724.24,250,84,78.92,78,6227,0,0,0.95,-0.12,0.26,-2.18,1.84,-1.2,-7.49,-71.71,-19.4,-20.15,-2.03,-18.93,-22.21,Walking
18:57.5,995,994,1491,997,255,3.01,332.03,1.25,20724.24,250,84,78.92,78,6227,7056,84,0.97,-0.11,0.25,-2.33,2.16,-1.38,-7.05,-72.55,-19.54,-20.14,-2.08,-19.04,-22.23,Walking
18:57.6,994,994,1491,997,248,3.13,320,1.21,20724.24,250,79,78.92,78,6227,13297,163,0.96,-0.11,0.25,-2.18,1.36,-1.13,-6.98,-72.32,-19.66,-20.18,-2.1,-19.15,-22.27,Walking
18:57.7,995,994,1491,997,243,3.21,311.54,1.19,20724.24,250,75,78.92,78,6227,18922,238,0.96,-0.11,0.26,-1.33,0.77,-1.59,-7,-71.91,-19.72,-20.28,-2.17,-19.21,-22.34,Walking
18:57.8,994,994,1491,997,250,3.09,323.42,1.22,20724.24,250,67,78.92,78,6227,23411,305,0.96,-0.11,0.27,-1.79,1.58,-1.48,-7.05,-71.72,-19.81,-20.31,-2.22,-19.3,-22.37,Walking
18:57.9,995,994,1491,997,260,2.93,340.76,1.27,20724.24,250,84,78.92,78,6227,30467,389,0.96,-0.12,0.26,-1.89,1.23,-0.63,-7.39,-71.92,-19.91,-20.37,-2.21,-19.41,-22.43,Walking
18:57.9,996,994,1491,997,254,3.03,330.3,1.24,20724.24,250,84,78.92,78,6227,37523,473,0.97,-0.12,0.26,-1.41,1.33,-0.87,-7.19,-72.23,-19.98,-20.42,-2.21,-19.47,-22.49,Walking
19:14.5,993,993,1489.5,993,258,2.97,337.25,1.26,0,0,81,0,0,0,13786,166,1,0.17,0.16,6.79,-3.53,10.01,9.19,-75.22,1.75,-0.52,1.66,2.05,-3.51,Standing
19:14.5,994,993,1489.5,994,259,2.95,339.01,1.27,0,0,65,0,0,0,18011,231,1.04,0.14,0.14,7.05,-1.44,2.49,7.23,-77.34,2.3,-0.77,1.9,2.5,-3.84,Standing
19:14.6,995,994,1491,995,267,2.83,353.17,1.3,0,0,83,0,0,0,24900,314,1.02,0.13,0.17,12.7,-1.89,-9.89,6.71,-76.31,3.26,-1.06,1.24,3.4,-4.07,Standing
19:14.7,995,994,1491,995,256,3,333.77,1.25,0,0,81,0,0,0,31461,395,1.02,0.15,0.14,12.37,1.84,-22.66,7.95,-76.76,4.2,-1.07,-0.36,4.35,-4.09,Standing
19:14.7,995,994,1491,995,264,2.88,347.83,1.29,0,0,82,0,0,0,38185,477,0.97,0.19,0.17,9.04,0.87,-30.11,10.41,-73.62,4.9,-1.15,-2.5,5.12,-4.05,Standing
19:14.8,995,994,1491,995,265,2.86,349.6,1.3,0,0,81,0,0,0,44746,558,0.97,0.19,0.11,11.65,-2.21,-26.3,10.59,-75.4,5.8,-1.46,-4.36,5.99,-4.41,Standing
19:14.9,995,994,1491,995,255,3.01,332.03,1.25,0,0,66,0,0,0,49102,624,0.96,0.23,0.14,-1.34,-3.3,-21.6,12.68,-72.96,5.74,-1.84,-5.88,6.02,-4.69,Standing
19:15.0,994,994,1491,995,265,2.86,349.6,1.3,0,0,81,0,0,0,55663,705,0.93,0.25,0.12,0.92,8.57,-25.47,14.37,-71.87,5.85,-1.36,-7.71,6.19,-4.18,Standing
19:15.0,993,994,1491,995,254,3.03,330.3,1.24,51.59,261,81,78.88,78,6221,0,0,1.07,0.21,-0.01,-1.72,4.81,-22.09,10.48,-77.33,5.76,-1.15,-9.26,5.95,-4.2,Standing
19:15.1,992,994,1491,995,243,3.21,311.54,1.19,51.59,261,75,78.88,78,6221,5625,75,0.89,0.31,0.14,-9.33,4.11,-17.58,18.48,-67.55,5.12,-1,-10.5,5.65,-3.66,Standing
19:15.2,993,994,1491,995,259,2.95,339.01,1.27,51.59,261,65,78.88,78,6221,9850,140,0.92,0.31,0.22,-5.24,1.37,-18.03,17.49,-65.86,4.77,-1.04,-11.78,5.28,-3.64,Standing
19:15.3,992,993,1489.5,995,265,2.86,349.6,1.3,51.59,261,85,78.88,78,6221,17075,225,0.89,0.33,0.16,-10.11,7.77,-14.88,19.42,-66.12,4.05,-0.61,-12.84,4.67,-3.23,Standing
19:15.3,992,993,1489.5,995,259,2.95,339.01,1.27,51.59,261,81,78.88,78,6221,23636,306,0.89,0.36,0.14,-5.21,11.95,-16.54,21.05,-65.19,3.7,0.14,-14.02,4.4,-2.48,Standing
19:15.4,993,993,1489.5,995,255,3.01,332.03,1.25,51.59,261,67,78.88,78,6221,28125,373,0.9,0.36,0.23,-6.53,7.47,-20.98,20.75,-62.98,3.26,0.54,-15.51,3.96,-2,Standing
19:15.5,992,993,1489.5,995,267,2.83,353.17,1.3,51.59,261,83,78.88,78,6221,35014,456,0.87,0.38,0.19,-10.52,4.88,-22.43,22.78,-62.17,2.51,0.76,-17.13,3.33,-1.76,Standing
19:15.6,992,993,1489.5,995,266,2.85,351.39,1.3,51.59,261,83,78.88,78,6221,41903,539,0.87,0.42,0.17,-1.3,5.81,-22.23,24.7,-61.08,2.46,1.04,-18.74,3.35,-1.44,Standing
19:15.6,991,993,1489.5,995,258,2.97,337.25,1.26,51.59,261,80,78.88,78,6221,48303,619,0.84,0.44,0.24,-2.33,3.69,-21.22,26.16,-57.53,2.33,1.17,-20.27,3.28,-1.18,Standing
19:15.7,992,993,1489.5,995,258,2.97,337.25,1.26,51.59,261,67,78.88,78,6221,52792,686,0.84,0.48,0.23,-3.47,4.56,-21.51,28.41,-56.05,2.11,1.36,-21.79,3.17,-0.94,Standing
19:15.8,992,993,1489.5,995,271,2.77,360.37,1.32,46.59,260,83,77.25,76,5967,0,0,0.82,0.52,0.24,1.27,4.74,-26.47,30.94,-53.44,2.25,1.56,-23.69,3.4,-0.64,Standing
19:15.9,992,993,1489.5,995,262,2.9,344.28,1.28,46.59,260,80,77.25,76,5967,6400,80,0.74,0.54,0.24,0.1,0.14,-23.3,33.79,-50.07,2.3,1.42,-25.35,3.56,-0.64,Standing
19:15.9,992,993,1489.5,995,256,3,333.77,1.25,46.59,260,67,77.25,76,5967,10889,147,0.76,0.56,0.25,-1.35,3.08,-16.81,34.26,-49.71,2.24,1.5,-26.55,3.52,-0.55,Standing
19:16.0,993,993,1489.5,995,268,2.82,354.97,1.31,46.59,260,83,77.25,76,5967,17778,230,0.73,0.56,0.25,0.53,2.35,-6.08,35.13,-48.55,2.32,1.53,-26.94,3.63,-0.48,Standing
19:16.1,993,993,1489.5,995,266,2.85,351.39,1.3,46.59,260,82,77.25,76,5967,24502,312,0.78,0.56,0.22,4.21,4.28,-0.09,34.02,-50.71,2.68,1.7,-26.89,3.93,-0.4,Standing
19:16.2,992,993,1489.5,995,256,3,333.77,1.25,46.59,260,81,77.25,76,5967,31063,393,0.78,0.56,0.2,4.76,3.41,1.47,34.08,-51.24,3.07,1.8,-26.72,4.31,-0.32,Standing
19:16.2,993,993,1489.5,995,262,2.9,344.28,1.28,46.59,260,63,77.25,76,5967,35032,456,0.78,0.57,0.19,11.86,5.18,-5.34,34.61,-50.89,3.98,2.04,-27.05,5.2,-0.08,Standing
19:16.3,993,993,1489.5,995,269,2.8,356.76,1.31,46.59,260,84,77.25,76,5967,42088,540,0.77,0.58,0.22,8.58,8.1,-6.88,35.41,-49.6,4.66,2.49,-27.51,5.89,0.41,Standing
19:16.4,992,992,1488,995,259,2.95,339.01,1.27,46.59,260,80,77.25,76,5967,48488,620,0.76,0.58,0.24,4.1,3.76,0.04,35.8,-48.69,5.01,2.62,-27.45,6.24,0.57,Standing
19:16.4,992,992,1488,995,258,2.97,337.25,1.26,46.59,260,67,77.25,76,5967,52977,687,0.76,0.57,0.22,1.98,2.08,6.89,35.2,-49.59,5.2,2.63,-26.88,6.4,0.54,Standing
19:16.5,991,992,1488,995,272,2.76,362.18,1.33,59.64,262,83,77.37,77,5985,0,0,0.78,0.56,0.2,5.13,0.06,9.72,34.09,-51.13,5.61,2.49,-26.12,6.75,0.35,Standing
19:16.6,993,992,1488,995,260,2.93,340.76,1.27,59.64,262,79,77.37,77,5985,6241,79,0.79,0.54,0.2,5.58,-0.42,10.43,33.04,-52.23,6.06,2.31,-25.29,7.14,0.13,Standing
19:16.7,992,992,1488,995,257,2.98,335.51,1.26,59.64,262,67,77.37,77,5985,10730,146,0.78,0.54,0.19,4.66,0.34,7.37,33.03,-52.46,6.45,2.19,-24.69,7.51,0,Standing
19:16.7,992,992,1488,995,270,2.79,358.57,1.32,59.64,262,83,77.37,77,5985,17619,229,0.79,0.55,0.18,-0.81,1.09,3.53,33.48,-52.24,6.43,2.12,-24.37,7.51,-0.05,Standing
19:16.8,993,992,1488,995,261,2.92,342.52,1.28,59.64,262,82,77.37,77,5985,24343,311,0.83,0.56,0.2,3.1,9.23,-8.21,32.54,-52.83,6.7,2.66,-24.92,7.73,0.44,Standing
19:16.9,991,992,1488,995,255,3.01,332.03,1.25,59.64,262,68,77.37,77,5985,28967,379,0.8,0.56,0.2,1.89,9.11,-14.08,33.92,-51.51,6.88,3.18,-25.9,7.96,0.99,Standing
19:17.0,993,992,1488,995,266,2.85,351.39,1.3,59.64,262,83,77.37,77,5985,35856,462,0.76,0.56,0.2,-2.15,-0.73,-13.3,34.89,-50.26,6.76,2.98,-26.83,7.89,0.85,Standing
19:17.0,991,992,1488,995,266,2.85,351.39,1.3,59.64,262,83,77.37,77,5985,42745,545,0.76,0.6,0.25,-2.98,-2.36,-10.53,36.32,-47.81,6.58,2.65,-27.56,7.77,0.63,Standing
19:17.1,991,992,1488,995,256,3,333.77,1.25,59.64,262,80,77.37,77,5985,49145,625,0.76,0.6,0.23,0.49,2.19,-11.29,36.79,-48.04,6.66,2.67,-28.33,7.86,0.64,Standing
19:17.2,992,992,1488,995,257,2.98,335.51,1.26,59.64,262,67,77.37,77,5985,53634,692,0.75,0.62,0.18,-3.27,4.69,-7.08,38.19,-47.74,6.46,2.87,-28.8,7.73,0.84,Standing
19:17.3,993,992,1488,995,270,2.79,358.57,1.32,55.07,261,85,78.01,77,6084,0,0,0.74,0.63,0.21,-0.72,3.15,-3.63,38.75,-46.46,6.45,2.95,-29.01,7.74,0.97,Standing
19:17.3,991,992,1488,995,258,2.97,337.25,1.26,55.07,261,81,78.01,77,6084,6561,81,0.73,0.62,0.21,2.84,2.97,-3.21,38.51,-46.61,6.69,3.02,-29.19,7.97,1.04,Standing
19:17.4,992,992,1488,995,255,3.01,332.03,1.25,55.07,261,67,78.01,77,6084,11050,148,0.73,0.61,0.21,2.71,3.16,-0.76,38.17,-47.07,6.94,3.11,-29.18,8.19,1.1,Standing
19:17.5,992,992,1488,995,270,2.79,358.57,1.32,55.07,261,83,78.01,77,6084,17939,231,0.73,0.61,0.2,-0.21,5.15,0.02,38.16,-47.25,6.96,3.34,-29.12,8.21,1.32,Standing
19:17.6,993,992,1488,995,260,2.93,340.76,1.27,55.07,261,83,78.01,77,6084,24828,314,0.74,0.62,0.21,-1.01,6.18,-2.47,38.18,-47,6.93,3.65,-29.25,8.18,1.62,Standing
19:17.6,993,992,1488,995,253,3.04,328.57,1.24,55.07,261,65,78.01,77,6084,29053,379,0.73,0.61,0.21,-2.92,5.1,-0.81,38.47,-46.58,6.75,3.88,-29.25,8.02,1.86,Standing
19:17.7,993,992,1488,995,261,2.92,342.52,1.28,55.07,261,82,78.01,77,6084,35777,461,0.73,0.62,0.21,-2.47,4.9,2.5,38.71,-46.34,6.61,4.09,-29.01,7.9,2.08,Standing
19:17.8,992,992,1488,995,263,2.89,346.05,1.29,55.07,261,83,78.01,77,6084,42666,544,0.74,0.61,0.23,-2.27,3.73,5.02,37.54,-47.12,6.49,4.22,-28.58,7.73,2.17,Standing
19:17.9,992,992,1488,995,252,3.06,326.85,1.23,55.07,261,81,78.01,77,6084,49227,625,0.75,0.61,0.21,-2.07,2.98,5.46,37.4,-47.71,6.37,4.29,-28.11,7.61,2.21,Standing
19:17.9,992,992,1488,995,256,3,333.77,1.25,55.07,261,65,78.01,77,6084,53452,690,0.76,0.61,0.22,-0.89,2.04,2.72,37.09,-47.92,6.35,4.3,-27.85,7.58,2.21,Standing
19:18.0,992,992,1488,995,266,2.85,351.39,1.3,42.21,259,83,77.68,77,6033,0,0,0.75,0.61,0.22,1.18,1.11,-0.11,37.08,-47.81,6.48,4.23,-27.8,7.7,2.15,Standing
19:18.1,993,992,1488,995,253,3.04,328.57,1.24,42.21,259,80,77.68,77,6033,6400,80,0.75,0.6,0.26,1.06,-1.31,-0.12,36.29,-47.53,6.6,3.99,-27.75,7.78,1.93,Standing
19:18.2,992,992,1488,995,254,3.03,330.3,1.24,42.21,259,67,77.68,77,6033,10889,147,0.73,0.59,0.22,-1.92,-0.63,2.74,37.38,-47.46,6.5,3.79,-27.49,7.73,1.74,Standing
19:18.2,991,992,1488,995,267,2.83,353.17,1.3,42.21,259,85,77.68,77,6033,18114,232,0.74,0.6,0.21,0.76,1.43,8.32,37.42,-47.77,6.59,3.75,-26.82,7.83,1.69,Standing
19:18.3,993,992,1488,995,255,3.01,332.03,1.25,42.21,259,80,77.68,77,6033,24514,312,0.75,0.58,0.22,-1.43,-1.79,14.92,36.02,-48.89,6.53,3.47,-25.66,7.71,1.38,Standing
19:18.4,992,992,1488,995,250,3.09,323.42,1.22,42.21,259,66,77.68,77,6033,28870,378,0.78,0.57,0.21,-0.3,-1.82,21.16,34.65,-50.53,6.55,3.19,-24.03,7.67,1.04,Standing
19:18.4,992,992,1488,995,261,2.92,342.52,1.28,42.21,259,85,77.68,77,6033,36095,463,0.84,0.56,0.22,-0.08,-1.38,23.41,32.29,-52.85,6.58,2.94,-22.24,7.61,0.71,Standing
19:18.5,992,992,1488,995,259,2.95,339.01,1.27,42.21,259,80,77.68,77,6033,42495,543,0.83,0.51,0.2,0.05,-6.51,16.8,30.37,-54.8,6.63,2.31,-20.94,7.58,0.02,Standing
19:18.6,992,992,1488,995,250,3.09,323.42,1.22,42.21,259,79,77.68,77,6033,48736,622,0.83,0.49,0.18,0.27,-10.23,10.82,29.24,-56.44,6.69,1.39,-20.07,7.59,-0.92,Standing
19:18.7,992,992,1488,995,253,3.04,328.57,1.24,42.21,259,66,77.68,77,6033,53092,688,0.84,0.46,0.18,-5.73,-6.33,10.73,27.51,-58,6.31,0.77,-19.22,7.16,-1.58,Standing
19:18.7,993,992,1488,995,264,2.88,347.83,1.29,18.38,256,84,77.55,77,6013,0,0,0.86,0.46,0.15,-10.73,-0.38,11.73,26.99,-59.21,5.57,0.6,-18.3,6.42,-1.79,Standing
19:18.8,992,992,1488,995,252,3.06,326.85,1.23,18.38,256,81,77.55,77,6013,6561,81,0.84,0.44,0.2,-9.03,-2.69,10.55,26.33,-58.55,4.93,0.25,-17.45,5.79,-2.1,Standing
19:18.9,993,992,1488,995,248,3.13,320,1.21,18.38,256,65,77.55,77,6013,10786,146,0.87,0.43,0.17,-9.68,-7.58,8.9,25.56,-60.21,4.26,-0.46,-16.73,5.11,-2.85,Standing
19:19.0,993,992,1488,995,259,2.95,339.01,1.27,18.38,256,84,77.55,77,6013,17842,230,0.91,0.43,0.18,-12.79,-2.51,8.44,24.49,-61.05,3.34,-0.8,-16.04,4.18,-3.21,Standing
19:19.0,991,992,1488,995,257,2.98,335.51,1.26,18.38,256,82,77.55,77,6013,24566,312,0.87,0.43,0.16,-12.76,-5.14,6.54,25.56,-60.31,2.44,-1.33,-15.5,3.36,-3.69,Standing
19:19.1,993,992,1488,995,249,3.11,321.71,1.22,18.38,256,80,77.55,77,6013,30966,392,0.89,0.42,0.19,-8.91,-8.72,10.22,23.9,-61.28,1.81,-2.13,-14.67,2.69,-4.5,Standing
19:19.2,993,992,1488,995,249,3.11,321.71,1.22,18.38,256,65,77.55,77,6013,35191,457,0.89,0.39,0.17,-8.36,-10.62,17.11,22.96,-62.67,1.22,-3.08,-13.33,2.09,-5.46,Standing
19:19.3,992,992,1488,995,262,2.9,344.28,1.28,18.38,256,83,77.55,77,6013,42080,540,0.89,0.35,0.16,-10.22,-7.66,26.12,20.92,-64.79,0.5,-3.8,-11.31,1.32,-6.24,Standing
19:19.3,992,992,1488,995,255,3.01,332.03,1.25,18.38,256,81,77.55,77,6013,48641,621,0.93,0.3,0.12,-19.57,-4.18,37.26,17.22,-69.13,-0.91,-4.26,-8.5,-0.18,-6.85,Standing
19:19.4,991,992,1488,995,247,3.14,318.3,1.21,18.38,256,81,77.55,77,6013,55202,702,0.97,0.24,0.15,-6.66,-2.92,28.4,13.38,-72.11,-1.36,-4.63,-6.31,-0.77,-7.33,Standing
19:19.5,993,992,1488,995,250,3.09,323.42,1.22,20724.26,252,64,77,76,5928,0,0,0.97,0.23,0.14,-15.76,-0.15,23.92,12.47,-72.92,-2.5,-4.79,-4.45,-1.91,-7.51,Standing
19:19.6,993,992,1488,995,262,2.9,344.28,1.28,20724.26,252,84,77,76,5928,7056,84,0.98,0.2,0.1,-12.81,5,22.73,11,-75.45,-3.42,-4.56,-2.69,-2.85,-7.4,Standing
19:19.7,993,992,1488,995,253,3.04,328.57,1.24,20724.26,252,83,77,76,5928,13945,167,0.97,0.16,0.21,-5.28,-0.77,13.45,8.49,-73.3,-3.78,-4.77,-1.62,-3.29,-7.51,Standing
19:19.7,992,992,1488,995,246,3.16,316.6,1.2,20724.26,252,79,77,76,5928,20186,246,0.97,0.13,0.15,-29.82,-5.79,19.6,6.84,-76.77,-5.97,-5.36,-0.09,-5.46,-8.21,Standing
19:19.8,991,992,1488,995,249,3.11,321.71,1.22,20724.26,252,64,77,76,5928,24282,310,1,0.1,0.07,-17.41,-7.93,7.82,5.01,-81.49,-7.25,-6.11,0.56,-6.76,-9.13,Standing
19:19.9,993,992,1488,995,263,2.89,346.05,1.29,20724.26,252,83,77,76,5928,31171,393,1.02,0.07,0.19,-11.67,-14.23,-3.43,3.38,-76.9,-8.09,-7.33,0.36,-7.63,-10.11,Standing
19:19.9,991,992,1488,995,254,3.03,330.3,1.24,20724.26,252,80,77,76,5928,37571,473,1.05,0.09,0.1,-23.69,-11.72,-4.96,4.22,-81.21,-9.8,-8.34,0.06,-9.24,-11.26,Standing
19:20.0,991,992,1488,995,248,3.13,320,1.21,20724.26,252,81,77,76,5928,44132,554,1.01,0.14,0.07,-9.35,-6.22,-4.4,7.38,-79.52,-10.47,-8.97,-0.22,-9.75,-11.79,Standing
19:20.1,992,992,1488,995,247,3.14,318.3,1.21,20724.26,252,66,77,76,5928,48488,620,0.95,0.11,0.15,-11.67,-3.27,-0.66,6.23,-77.36,-11.31,-9.37,-0.21,-10.61,-12.09,Standing
19:20.2,992,992,1488,995,256,3,333.77,1.25,20724.26,252,74,77,76,5928,53964,694,0.97,0.11,0.12,-11.42,-15.31,2.45,5.61,-78.93,-12.14,-10.68,0.04,-11.43,-13.41,Standing
19:20.2,992,992,1488,995,259,2.95,339.01,1.27,20724.28,253,84,78.12,77,6101,0,0,1.01,0.13,0.11,-0.22,-17.39,1.23,6.94,-78.68,-12.11,-12.14,0.19,-11.35,-14.8,Standing
19:20.3,991,992,1488,995,249,3.11,321.71,1.22,20724.28,253,79,78.12,77,6101,6241,79,1.2,0.14,-0.05,-2.26,-18.44,1.73,6.05,-81.4,-12.24,-13.65,0.37,-11.5,-16.36,Standing
19:20.4,992,992,1488,995,245,3.18,314.91,1.2,20724.28,253,74,78.12,77,6101,11717,153,0.95,0.09,0.02,0.42,-3.35,1.6,4.56,-83.15,-12.16,-14.06,0.56,-11.49,-16.83,Standing
19:20.5,991,992,1488,995,253,3.04,328.57,1.24,20724.28,253,65,78.12,77,6101,15942,218,1.07,0.06,0.03,12.37,18.49,16.14,2.73,-84.65,-11.19,-12.83,1.83,-10.63,-15.7,Standing
19:20.6,993,992,1488,995,262,2.9,344.28,1.28,20724.28,253,83,78.12,77,6101,22831,301,1,0.11,0.05,-18.6,-12.79,26.07,5.47,-81.62,-12.56,-13.95,3.87,-11.84,-16.66,Standing
19:20.6,992,992,1488,995,254,3.03,330.3,1.24,20724.28,253,83,78.12,77,6101,29720,384,0.98,0.08,0.04,15.42,-31.78,15.64,4.13,-83.28,-11.36,-16.48,5.1,-10.74,-19.15,Standing
19:20.7,991,992,1488,995,248,3.13,320,1.21,20724.28,253,79,78.12,77,6101,35961,463,0.96,0.01,-0.05,7.23,-30.92,7.06,-0.14,-85.42,-10.77,-18.98,5.7,-10.35,-21.64,Standing
19:20.8,991,992,1488,995,245,3.18,314.91,1.2,20724.28,253,66,78.12,77,6101,40317,529,0.97,-0.04,-0.17,3.02,-2.21,9.25,-3.1,-78.28,-10.5,-19.3,6.46,-10.2,-21.66,Standing
19:20.9,992,992,1488,995,255,3.01,332.03,1.25,20724.28,253,65,78.12,77,6101,44542,594,1.02,-0.08,-0.11,-2.6,21.92,6.28,-5.1,-80.67,-10.65,-17.79,7,-10.43,-20.31,Standing
19:20.9,993,992,1488,995,259,2.95,339.01,1.27,20724.28,253,83,78.12,77,6101,51431,677,1.09,-0.14,-0.04,0.38,24.67,-4.51,-7.69,-81.02,-10.58,-16.07,6.72,-10.47,-18.67,Standing
19:21.0,992,992,1488,995,253,3.04,328.57,1.24,20724.26,252,83,76.37,76,5831,0,0,1.02,-0.07,0.04,-9.65,28.7,-16.48,-4.25,-84.24,-11.26,-14.06,5.54,-10.98,-16.87,Standing
19:21.1,992,992,1488,995,247,3.14,318.3,1.21,20724.26,252,79,76.37,76,5831,6241,79,1,0,0.03,-7.18,6.94,-16.03,-0.85,-86.64,-11.77,-13.69,4.38,-11.33,-16.61,Standing
19:21.2,991,992,1488,995,248,3.13,320,1.21,20724.26,252,66,76.37,76,5831,10597,145,1.01,0.04,0.11,-4.18,-8.48,-8.72,1.7,-81.66,-12.04,-14.49,3.78,-11.49,-17.17,Standing
19:21.2,991,992,1488,995,258,2.97,337.25,1.26,20724.26,252,85,76.37,76,5831,17822,230,1.02,0.05,0.06,-6.1,-14.2,4.02,2.2,-84.17,-12.46,-15.72,4.14,-11.88,-18.46,Standing
19:21.3,992,992,1488,995,257,2.98,335.51,1.26,20724.26,252,84,76.37,76,5831,24878,314,1.03,0.03,-0.02,-2.73,-12.4,12.15,0.82,-86.63,-12.63,-16.8,5.11,-12.09,-19.59,Standing
19:21.4,990,992,1488,995,250,3.09,323.42,1.22,20724.26,252,82,76.37,76,5831,31602,396,1.05,0.01,0,2.53,0.11,8.41,-0.21,-87.98,-12.39,-16.94,5.81,-11.9,-19.78,Standing
19:21.5,992,992,1488,995,245,3.18,314.91,1.2,20724.26,252,81,76.37,76,5831,38163,477,1.02,-0.03,0.03,-1.11,1.1,-1.09,-2.02,-86.37,-12.43,-17.01,5.79,-12.02,-19.78,Standing
19:21.5,992,992,1488,995,251,3.08,325.13,1.23,20724.26,252,65,76.37,76,5831,42388,542,0.99,-0.03,0,-3.63,-3.54,-10.45,-2.41,-86.58,-12.67,-17.43,5.06,-12.26,-20.2,Standing
19:21.6,991,992,1488,995,260,2.93,340.76,1.27,20724.26,252,83,76.37,76,5831,49277,625,1,0.01,-0.03,3.68,1.37,-10.03,-0.26,-86.61,-12.35,-17.48,4.36,-11.86,-20.24,Standing
19:21.7,992,992,1488,995,257,2.98,335.51,1.26,20724.26,252,83,76.37,76,5831,56166,708,0.98,0.02,-0.02,-1.04,11.24,-7.51,0.52,-86.99,-12.38,-16.78,3.85,-11.87,-19.59,Standing
19:21.8,991,992,1488,995,250,3.09,323.42,1.22,20724.26,252,81,79.2,78,6271,0,0,0.99,0.01,0.02,-2.93,14.25,-0.44,0.23,-86.89,-12.56,-15.86,3.88,-12.05,-18.7,Standing
19:21.8,991,992,1488,995,245,3.18,314.91,1.2,20724.26,252,66,79.2,78,6271,4356,66,1.02,0.02,0.05,-9.73,7.32,3.98,0.71,-85.08,-13.26,-15.45,4.24,-12.7,-18.24,Standing
19:21.9,991,992,1488,995,256,3,333.77,1.25,20724.26,252,83,79.2,78,6271,11245,149,1.05,0.02,0.05,-1.67,3.27,-1.17,0.74,-85.44,-13.34,-15.36,4.21,-12.78,-18.16,Standing
19:22.0,991,992,1488,995,259,2.95,339.01,1.27,20724.26,252,84,79.2,78,6271,18301,233,1.03,0.03,0.04,-0.5,0.45,-4.79,1.03,-85.77,-13.34,-15.47,3.91,-12.76,-18.29,Standing
19:24.8,992,992,1488,992,248,3.13,320,1.21,0,0,64,0,0,0,10657,145,0.98,0.19,0.21,9.7,-5.12,15.52,10.23,-72.3,2.37,-2.06,3.12,2.68,-4.87,Left Fall while Standing
19:24.9,991,991,1486.5,992,263,2.89,346.05,1.29,0,0,84,0,0,0,17713,229,0.96,0.2,0.15,14.29,2.74,-0.31,11.32,-73.44,3.45,-2.01,3.15,3.77,-4.87,Left Fall while Standing
19:24.9,992,991,1486.5,992,252,3.06,326.85,1.23,0,0,81,0,0,0,24274,310,0.92,0.21,0.15,6.92,15.08,10.12,12.06,-72.63,3.99,-1.07,3.94,4.31,-3.93,Left Fall while Standing
19:25.0,993,992,1488,993,248,3.13,320,1.21,0,0,64,0,0,0,28370,374,0.95,0.17,0.27,-1.73,10.44,15.77,9.16,-69.91,3.91,-0.45,5.15,4.12,-3.23,Left Fall while Standing
19:25.1,992,992,1488,993,262,2.9,344.28,1.28,0,0,84,0,0,0,35426,458,0.98,0.18,0.24,-2.77,1.5,10.37,9.41,-71.45,3.74,-0.49,5.96,3.97,-3.33,Left Fall while Standing
19:25.2,992,992,1488,993,249,3.11,321.71,1.22,0,0,80,0,0,0,41826,538,0.97,0.17,0.21,-8.18,-7.23,2.63,9.24,-72.91,3.2,-1.15,6.21,3.44,-4.02,Left Fall while Standing
19:25.2,992,992,1488,993,254,3.03,330.3,1.24,0,0,63,0,0,0,45795,601,0.97,0.16,0.23,0.98,-3.53,-8.84,8.41,-72.39,3.31,-1.56,5.62,3.51,-4.39,Left Fall while Standing
19:25.3,993,992,1488,993,257,2.98,335.51,1.26,0,0,79,0,0,0,52036,680,0.95,0.16,0.21,-0.37,12.06,-11.49,8.54,-73.07,3.32,-0.82,4.84,3.53,-3.71,Left Fall while Standing
19:25.4,991,992,1488,993,248,3.13,320,1.21,20724.27,253,81,76.54,76,5858,0,0,1,0.19,0.12,1.08,16.54,-12.01,10.15,-75.68,3.44,0.26,4.01,3.71,-2.78,Left Fall while Standing
19:25.5,992,992,1488,993,256,3,333.77,1.25,20724.27,253,61,76.54,76,5858,3721,61,0.93,0.2,0.26,0.1,11.46,-6.32,10.85,-69.32,3.49,0.96,3.6,3.79,-1.86,Left Fall while Standing
19:25.5,991,991,1486.5,993,259,2.95,339.01,1.27,20724.27,253,83,76.54,76,5858,10610,144,0.92,0.18,0.26,-4.43,-1.76,3.82,10.24,-69.33,3.21,0.68,3.94,3.49,-2.12,Left Fall while Standing
19:25.6,993,992,1488,993,251,3.08,325.13,1.23,20724.27,253,81,76.54,76,5858,17171,225,0.93,0.19,0.25,-1.87,-7.43,13.11,10.82,-69.72,3.11,-0.03,4.98,3.42,-2.82,Left Fall while Standing
19:25.7,993,992,1488,993,249,3.11,321.71,1.22,20724.27,253,64,76.54,76,5858,21267,289,0.93,0.18,0.27,-2.58,-6.56,19.38,9.73,-69.33,2.96,-0.67,6.49,3.23,-3.42,Left Fall while Standing
19:25.8,991,992,1488,993,262,2.9,344.28,1.28,20724.27,253,83,76.54,76,5858,28156,372,0.95,0.15,0.21,-4.68,-11.52,21.18,8.48,-72.93,2.65,-1.67,8.12,2.88,-4.52,Left Fall while Standing
19:25.8,992,992,1488,993,258,2.97,337.25,1.26,20724.27,253,82,76.54,76,5858,34880,454,1,0.12,0.2,7.78,-1.27,9.89,6.09,-75.43,3.28,-1.92,8.92,3.39,-4.86,Left Fall while Standing
19:25.9,992,992,1488,993,249,3.11,321.71,1.22,20724.27,253,79,76.54,76,5858,41121,533,1,0.1,0.22,8.66,14.92,-2.95,4.72,-74.78,3.97,-0.95,8.76,4,-3.9,Left Fall while Standing
19:26.0,992,992,1488,993,253,3.04,328.57,1.24,20724.27,253,62,76.54,76,5858,44965,595,0.96,0.1,0.23,6.05,15.09,-12.14,5.07,-73.86,4.46,0.02,7.92,4.48,-2.94,Left Fall while Standing
19:26.0,991,991,1486.5,993,265,2.86,349.6,1.3,20724.27,253,84,76.54,76,5858,52021,679,0.91,0.11,0.24,5.4,0.4,-7.22,6.07,-72.39,4.9,-0.1,7.44,4.95,-2.99,Left Fall while Standing
19:26.1,992,991,1486.5,993,255,3.01,332.03,1.25,20724.3,255,82,76.64,76,5873,0,0,0.91,0.12,0.24,-1.99,-3.52,6.89,6.62,-72.02,4.79,-0.51,8.01,4.87,-3.37,Left Fall while Standing
19:26.2,992,991,1486.5,993,249,3.11,321.71,1.22,20724.3,255,66,76.64,76,5873,4356,66,0.96,0.11,0.23,-1.39,2.15,14.49,6,-73.39,4.73,-0.5,9.14,4.78,-3.41,Left Fall while Standing
19:26.3,991,991,1486.5,993,262,2.9,344.28,1.28,20724.3,255,84,76.64,76,5873,11412,150,0.95,0.1,0.24,5.21,6.54,12.68,5.18,-72.97,5.16,-0.16,10.15,5.17,-3.07,Left Fall while Standing
19:26.3,992,991,1486.5,993,259,2.95,339.01,1.27,20724.3,255,81,76.64,76,5873,17973,231,0.97,0.09,0.27,4.18,1.65,11.23,4.32,-72.1,5.51,-0.18,11.03,5.46,-3.06,Left Fall while Standing
19:26.4,992,991,1486.5,993,250,3.09,323.42,1.22,20724.3,255,81,76.64,76,5873,24534,312,0.96,0.09,0.23,4.5,2.71,9.29,4.58,-74.02,5.89,-0.13,11.79,5.84,-3.08,Left Fall while Standing
19:26.5,992,991,1486.5,993,254,3.03,330.3,1.24,20724.3,255,64,76.64,76,5873,28630,376,0.96,0.07,0.23,7.28,2.59,11.66,3.46,-74.18,6.48,-0.08,12.72,6.36,-3.05,Left Fall while Standing
19:26.6,993,991,1486.5,993,265,2.86,349.6,1.3,20724.3,255,84,76.64,76,5873,35686,460,0.97,0.04,0.25,5.19,0.56,12.54,1.56,-73.7,6.9,-0.19,13.71,6.69,-3.13,Left Fall while Standing
19:26.6,993,992,1488,993,256,3,333.77,1.25,20724.3,255,79,76.64,76,5873,41927,539,0.98,0.03,0.23,3.03,3,9.97,0.92,-75.1,7.17,-0.12,14.5,6.92,-3.12,Left Fall while Standing
19:26.7,993,992,1488,993,250,3.09,323.42,1.22,20724.3,255,65,76.64,76,5873,46152,604,0.98,0.03,0.24,1.42,0.68,4.62,1.31,-74.37,7.32,-0.22,14.91,7.08,-3.18,Left Fall while Standing
19:26.8,991,992,1488,993,260,2.93,340.76,1.27,20724.3,255,81,76.64,76,5873,52713,685,0.98,0.03,0.26,1.69,2.34,-7.31,1.05,-73.61,7.48,-0.19,14.43,7.23,-3.13,Left Fall while Standing
19:26.9,992,992,1488,993,260,2.93,340.76,1.27,16.85,256,84,77.3,76,5975,0,0,0.96,0.02,0.26,-3.24,3.5,-8.55,0.84,-73.46,7.29,-0.08,13.86,7.03,-3.02,Left Fall while Standing
19:26.9,991,991,1486.5,993,252,3.06,326.85,1.23,16.85,256,81,77.3,76,5975,6561,81,0.96,0.04,0.29,-4.19,-0.64,-8.22,1.9,-71.69,7.02,-0.28,13.31,6.82,-3.13,Left Fall while Standing
19:27.0,991,991,1486.5,993,256,3,333.77,1.25,16.85,256,64,77.3,76,5975,10657,145,0.98,0.07,0.27,-11.33,-7.04,-6.71,3.35,-72.24,6.22,-0.95,12.87,6.11,-3.8,Left Fall while Standing
19:27.1,992,991,1486.5,993,263,2.89,346.05,1.29,16.85,256,84,77.3,76,5975,17713,229,0.98,0.07,0.22,-10.83,-7.33,-3.93,3.59,-75.25,5.45,-1.65,12.64,5.38,-4.59,Left Fall while Standing
19:27.2,991,991,1486.5,993,255,3.01,332.03,1.25,16.85,256,81,77.3,76,5975,24274,310,0.96,0.06,0.24,-8.15,-0.43,-0.23,3.16,-73.81,4.89,-1.83,12.68,4.82,-4.7,Left Fall while Standing
19:27.2,992,991,1486.5,993,251,3.08,325.13,1.23,16.85,256,66,77.3,76,5975,28630,376,0.95,0.06,0.18,-14.14,2.81,14.49,3.18,-77.23,3.89,-1.77,13.81,3.86,-4.78,Left Fall while Standing
19:27.3,992,991,1486.5,993,264,2.88,347.83,1.29,16.85,256,82,77.3,76,5975,35354,458,0.99,0,0.29,-4.08,-3.86,19.64,-0.57,-72.24,3.62,-2.21,15.34,3.45,-5.01,Left Fall while Standing
19:27.4,992,991,1486.5,993,259,2.95,339.01,1.27,16.85,256,82,77.3,76,5975,42078,540,1,-0.02,0.23,-14.2,-6.67,17.03,-1.43,-75.53,2.61,-2.85,16.66,2.45,-5.75,Left Fall while Standing
19:27.5,992,991,1486.5,993,252,3.06,326.85,1.23,16.85,256,80,77.3,76,5975,48478,620,0.99,-0.03,0.2,1.28,-4.95,7.67,-2.25,-77.03,2.75,-3.36,17.29,2.55,-6.31,Left Fall while Standing
19:27.5,991,991,1486.5,993,254,3.03,330.3,1.24,16.85,256,65,77.3,76,5975,52703,685,0.98,-0.05,0.26,2.81,0.55,-3.69,-3.62,-73.2,3,-3.47,17.07,2.74,-6.26,Left Fall while Standing
19:27.6,991,991,1486.5,993,266,2.85,351.39,1.3,25.34,257,83,77.19,76,5958,0,0,0.96,-0.05,0.19,-6.63,-1.92,-10.81,-3.46,-77.08,2.56,-3.76,16.34,2.32,-6.69,Left Fall while Standing
19:27.7,991,991,1486.5,993,256,3,333.77,1.25,25.34,257,81,77.19,76,5958,6561,81,0.97,-0.04,0.17,-3.15,9.15,-2.99,-2.97,-78.34,2.36,-3.22,16.17,2.15,-6.22,Left Fall while Standing
19:27.8,992,991,1486.5,993,250,3.09,323.42,1.22,25.34,257,66,77.19,76,5958,10917,147,0.95,-0.03,0.24,-10.64,12.25,5.92,-2.42,-74.44,1.62,-2.46,16.67,1.46,-5.34,Left Fall while Standing
19:27.8,992,991,1486.5,993,262,2.9,344.28,1.28,25.34,257,84,77.19,76,5958,17973,231,0.98,-0.03,0.22,-3.45,3.66,14.02,-2.46,-75.32,1.4,-2.34,17.78,1.25,-5.26,Left Fall while Standing
19:27.9,992,991,1486.5,993,261,2.92,342.52,1.28,25.34,257,83,77.19,76,5958,24862,314,0.96,-0.06,0.24,-7.35,-5.87,21.96,-4.21,-74.1,0.89,-2.93,19.48,0.69,-5.77,Left Fall while Standing
19:28.0,993,991,1486.5,993,252,3.06,326.85,1.23,25.34,257,80,77.19,76,5958,31262,394,0.95,-0.09,0.19,-7.79,-7.31,27.28,-5.67,-75.94,0.36,-3.62,21.56,0.12,-6.51,Left Fall while Standing
19:28.0,991,991,1486.5,993,252,3.06,326.85,1.23,25.34,257,65,77.19,76,5958,35487,459,0.99,-0.14,0.2,-5.75,-3.28,27.68,-8.31,-74.55,-0.03,-4.01,23.67,-0.36,-6.83,Left Fall while Standing
19:28.1,992,991,1486.5,993,264,2.88,347.83,1.29,25.34,257,84,77.19,76,5958,42543,543,1.01,-0.17,0.17,-5.94,4.66,23.6,-10.05,-75.17,-0.43,-3.81,25.5,-0.81,-6.66,Left Fall while Standing
19:28.2,993,991,1486.5,993,259,2.95,339.01,1.27,25.34,257,83,77.19,76,5958,49432,626,0.96,-0.22,0.17,-3.15,11.77,19.76,-13.43,-72.05,-0.63,-3.06,27.06,-1.14,-5.82,Left Fall while Standing
19:28.3,991,991,1486.5,993,251,3.08,325.13,1.23,25.34,257,80,77.19,76,5958,55832,706,0.92,-0.23,0.28,-9.82,17.44,21.14,-14.13,-66.78,-1.32,-1.91,28.7,-1.83,-4.5,Left Fall while Standing
19:28.4,993,991,1486.5,993,251,3.08,325.13,1.23,20724.3,255,64,77.41,77,5991,0,0,0.92,-0.32,0.28,13.47,5.68,31.47,-19.04,-63.6,-0.28,-1.63,31.09,-1.03,-4.11,Left Fall while Standing
19:28.4,986,991,1486.5,993,264,2.88,347.83,1.29,20724.3,255,83,77.41,77,5991,6889,83,0.94,-0.3,0.22,-14.18,3.72,34.77,-17.99,-66.79,-1.31,-1.51,33.76,-1.97,-4.12,Left Fall while Standing
19:28.5,988,991,1486.5,993,259,2.95,339.01,1.27,20724.3,255,84,77.41,77,5991,13945,167,0.95,-0.35,0.24,-6.9,-0.01,34.15,-20.37,-64.14,-1.79,-1.66,36.41,-2.53,-4.16,Left Fall while Standing
19:28.6,987,991,1486.5,993,252,3.06,326.85,1.23,20724.3,255,80,77.41,77,5991,20345,247,0.91,-0.4,0.26,-12.17,8.66,31.04,-23.3,-60.83,-2.67,-1.15,38.83,-3.49,-3.54,Left Fall while Standing
19:28.7,988,991,1486.5,993,250,3.09,323.42,1.22,20724.3,255,65,77.41,77,5991,24570,312,0.87,-0.42,0.25,-8.24,4.47,22.23,-25.26,-59.22,-3.25,-0.97,40.56,-4.13,-3.3,Left Fall while Standing
19:28.7,988,991,1486.5,993,259,2.95,339.01,1.27,20724.3,255,66,77.41,77,5991,28926,378,0.86,-0.46,0.26,-3.72,3.33,15.28,-27.59,-56.79,-3.49,-0.87,41.78,-4.45,-3.1,Left Fall while Standing
19:28.8,988,991,1486.5,993,263,2.89,346.05,1.29,20724.3,255,84,77.41,77,5991,35982,462,0.84,-0.45,0.22,-0.48,17.87,11.96,-27.95,-57.53,-3.48,0.32,42.74,-4.46,-1.99,Left Fall while Standing
19:28.9,987,991,1486.5,993,255,3.01,332.03,1.25,20724.3,255,82,77.41,77,5991,42706,544,0.82,-0.47,0.23,-6.94,15.35,17.2,-29.57,-55.62,-3.96,1.34,44.1,-4.99,-0.94,Left Fall while Standing
19:29.0,988,991,1486.5,993,251,3.08,325.13,1.23,20724.3,255,79,77.41,77,5991,48947,623,0.78,-0.51,0.3,-3.73,6.28,24.53,-31.72,-51.32,-4.21,1.66,46.03,-5.31,-0.45,Left Fall while Standing
19:29.0,989,991,1486.5,993,254,3.03,330.3,1.24,20724.3,255,62,77.41,77,5991,52791,685,0.77,-0.54,0.29,-12.98,-4.66,30.24,-33.84,-49.9,-5.12,1.17,48.32,-6.27,-0.87,Left Fall while Standing
19:29.1,989,991,1486.5,993,265,2.86,349.6,1.3,25.36,257,85,77.47,77,6000,0,0,0.76,-0.56,0.25,-27.21,-10.47,40.92,-35.76,-49.48,-7.12,0.24,51.45,-8.27,-1.75,Left Fall while Standing
19:29.2,988,991,1486.5,993,258,2.97,337.25,1.26,25.36,257,83,77.47,77,6000,6889,83,0.74,-0.64,0.24,-19.02,-10.66,42.39,-40.32,-45.48,-8.51,-0.71,54.69,-9.78,-2.5,Left Fall while Standing
19:29.2,988,991,1486.5,993,250,3.09,323.42,1.22,25.36,257,80,77.47,77,6000,13289,163,0.65,-0.73,0.31,-31.32,-3.5,40.9,-46.05,-37.77,-10.84,-1.13,57.86,-12.25,-2.6,Left Fall while Standing
19:29.3,989,991,1486.5,993,251,3.08,325.13,1.23,25.36,257,66,77.47,77,6000,17645,229,0.71,-0.73,0.18,-13.33,-3.73,30.17,-45.69,-41.62,-11.8,-1.56,60.18,-13.16,-3.16,Left Fall while Standing
19:29.4,987,991,1486.5,993,263,2.89,346.05,1.29,25.36,257,84,77.47,77,6000,24701,313,0.71,-0.78,0.18,-6.3,-4.95,22.43,-47.38,-40.02,-12.23,-2.08,61.92,-13.64,-3.6,Left Fall while Standing
19:29.5,989,990,1485,993,260,2.93,340.76,1.27,25.36,257,85,77.47,77,6000,31926,398,0.68,-0.79,0.16,-10.15,-3.99,14.21,-49.1,-38.57,-12.96,-2.54,63.06,-14.41,-3.98,Left Fall while Standing
19:29.6,987,990,1485,993,252,3.06,326.85,1.23,25.36,257,79,77.47,77,6000,38167,477,0.64,-0.8,0.16,0.33,-3.24,-1.5,-51.16,-36.51,-12.89,-2.94,63.01,-14.42,-4.28,Left Fall while Standing
19:29.6,989,990,1485,993,250,3.09,323.42,1.22,25.36,257,67,77.47,77,6000,42656,544,0.67,-0.81,0.16,0.47,3.69,-10.48,-50.26,-37.41,-12.82,-2.81,62.28,-14.32,-4.19,Left Fall while Standing
19:29.7,988,990,1485,993,257,2.98,335.51,1.26,25.36,257,65,77.47,77,6000,46881,609,0.63,-0.77,0.14,-4.05,3.88,-11.4,-50.65,-37.29,-13.08,-2.67,61.49,-14.58,-4.05,Left Fall while Standing
19:29.8,989,990,1485,993,263,2.89,346.05,1.29,25.36,257,84,77.47,77,6000,53937,693,0.67,-0.77,0.16,0.88,5.36,-13.91,-48.84,-38.82,-12.97,-2.41,60.49,-14.4,-3.87,Left Fall while Standing
19:29.9,988,990,1485,993,256,3,333.77,1.25,4.8,256,81,77.78,77,6048,0,0,0.7,-0.77,0.22,3.84,11.58,-23.69,-47.24,-39.31,-12.64,-1.7,58.79,-14.03,-3.21,Left Fall while Standing
19:29.9,989,990,1485,993,250,3.09,323.42,1.22,4.8,256,65,77.78,77,6048,4225,65,0.73,-0.75,0.18,13.15,18.8,-43.51,-45.68,-41.73,-11.63,-0.46,55.63,-12.99,-2.11,Left Fall while Standing
19:30.0,987,990,1485,993,256,3,333.77,1.25,4.8,256,64,77.78,77,6048,8321,129,0.77,-0.7,0.2,7.07,18.16,-60.39,-41.72,-45.22,-11.05,0.77,51.1,-12.28,-1.07,Left Fall while Standing
19:30.1,988,990,1485,993,264,2.88,347.83,1.29,4.8,256,83,77.78,77,6048,15210,212,0.79,-0.6,0.23,4.69,20.47,-61.31,-36.71,-49.2,-10.66,2.15,46.56,-11.7,0.1,Left Fall while Standing
19:30.2,988,990,1485,993,256,3,333.77,1.25,4.8,256,82,77.78,77,6048,21934,294,0.78,-0.53,0.27,3.97,14.45,-50.76,-33.53,-50.9,-10.31,3.1,42.77,-11.24,0.94,Left Fall while Standing
19:30.2,988,990,1485,993,249,3.11,321.71,1.22,4.8,256,66,77.78,77,6048,26290,360,0.8,-0.5,0.3,0.64,6.91,-38.77,-30.68,-52.53,-10.22,3.46,39.96,-11.04,1.22,Left Fall while Standing
19:30.3,988,990,1485,993,257,2.98,335.51,1.26,4.8,256,66,77.78,77,6048,30646,426,0.86,-0.45,0.28,-6.69,1.44,-29.24,-27.27,-56.5,-10.68,3.42,37.82,-11.35,1.02,Left Fall while Standing
19:30.4,989,990,1485,993,263,2.89,346.05,1.29,4.8,256,86,77.78,77,6048,38042,512,0.84,-0.44,0.28,-9.48,1.18,-25.53,-26.68,-56.95,-11.35,3.36,35.97,-11.96,0.95,Left Fall while Standing
19:30.5,988,990,1485,993,254,3.03,330.3,1.24,4.8,256,81,77.78,77,6048,44603,593,0.9,-0.4,0.26,-7.27,4.69,-25.4,-23.89,-60.23,-11.86,3.56,34.12,-12.34,1.01,Left Fall while Standing
19:30.5,987,990,1485,993,249,3.11,321.71,1.22,4.8,256,64,77.78,77,6048,48699,657,0.91,-0.38,0.26,-11.79,9.14,-31.94,-22.37,-61.62,-12.69,4.09,31.82,-13.07,1.46,Left Fall while Standing
19:30.6,988,990,1485,993,256,3,333.77,1.25,20724.3,255,65,72.75,72,5291,0,0,0.9,-0.35,0.26,-10.82,-0.42,-40.54,-20.81,-62.88,-13.46,3.91,28.84,-13.75,1.24,Left Fall while Standing
19:30.7,989,990,1485,993,263,2.89,346.05,1.29,20724.3,255,84,72.75,72,5291,7056,84,0.95,-0.33,0.24,-9.54,2.02,-38.66,-19.19,-65.13,-14.14,3.91,25.96,-14.34,1.15,Left Fall while Standing
19:30.8,988,990,1485,993,256,3,333.77,1.25,20724.3,255,83,72.75,72,5291,13945,167,0.91,-0.28,0.28,-11.05,1.69,-36.53,-16.82,-65.23,-14.93,3.88,23.24,-15.01,1.12,Left Fall while Standing
19:30.8,989,990,1485,993,250,3.09,323.42,1.22,20724.3,255,81,72.75,72,5291,20506,248,0.9,-0.22,0.25,-10.92,2.24,-32.98,-13.85,-68.11,-15.72,3.9,20.79,-15.65,1.02,Left Fall while Standing
19:30.9,989,990,1485,993,251,3.08,325.13,1.23,20724.3,255,66,72.75,72,5291,24862,314,0.91,-0.19,0.32,-11.95,3.54,-29.85,-11.63,-66.27,-16.58,4.02,18.61,-16.38,1.21,Left Fall while Standing
19:31.0,987,990,1485,993,262,2.9,344.28,1.28,20724.3,255,82,72.75,72,5291,31586,396,0.94,-0.14,0.27,-5.89,6.98,-23.22,-8.5,-70.75,-16.98,4.4,16.91,-16.64,1.39,Left Fall while Standing
19:31.1,988,990,1485,993,260,2.93,340.76,1.27,20724.3,255,84,72.75,72,5291,38642,480,0.99,-0.11,0.34,-6.02,-2.05,-14.08,-6.6,-68.62,-17.39,4.09,15.9,-16.96,1.18,Left Fall while Standing
19:31.1,989,990,1485,993,252,3.06,326.85,1.23,20724.3,255,81,72.75,72,5291,45203,561,0.97,-0.07,0.32,-10.18,-13.37,-5.85,-4.4,-69.94,-18.13,2.92,15.52,-17.58,0.01,Left Fall while Standing
19:31.2,988,990,1485,993,249,3.11,321.71,1.22,20724.3,255,79,72.75,72,5291,51444,640,0.91,-0.08,0.28,-5.55,-12.89,3.34,-5.53,-70.86,-18.5,1.8,15.82,-17.98,-1.1,Left Fall while Standing
19:31.3,988,990,1485,993,254,3.03,330.3,1.24,20724.3,255,65,72.75,72,5291,55669,705,0.93,-0.08,0.21,1.79,-15.05,9.57,-5.23,-74.79,-18.32,0.51,16.61,-17.8,-2.5,Left Fall while Standing
19:31.4,988,990,1485,993,266,2.85,351.39,1.3,13.64,256,86,79.41,79,6305,0,0,0.96,-0.12,0.17,-3.28,-11.98,15.47,-7.6,-75.97,-18.52,-0.53,17.81,-18.09,-3.54,Left Fall while Standing
19:31.4,989,990,1485,993,255,3.01,332.03,1.25,13.64,256,81,79.41,79,6305,6561,81,0.97,-0.16,0.18,-2.87,-6.24,16.89,-10.07,-74.45,-18.7,-1.14,19.14,-18.35,-4.08,Left Fall while Standing
19:31.5,989,990,1485,993,249,3.11,321.71,1.22,13.64,256,81,79.41,79,6305,13122,162,0.96,-0.22,0.18,2.76,-2.94,7.92,-13.38,-71.87,-18.45,-1.52,19.79,-18.25,-4.33,Left Fall while Standing
19:31.6,989,990,1485,993,254,3.03,330.3,1.24,13.64,256,64,79.41,79,6305,17218,226,0.96,-0.26,0.17,-1.53,-8.42,-1.17,-15.47,-70.59,-18.52,-2.31,19.77,-18.4,-5.04,Left Fall while Standing
19:31.7,990,990,1485,993,264,2.88,347.83,1.29,13.64,256,83,79.41,79,6305,24107,309,0.96,-0.24,0.14,-1.94,12.89,-8.15,-14.68,-72.07,-18.63,-1.49,19.21,-18.47,-4.31,Left Fall while Standing
19:31.7,989,990,1485,993,260,2.93,340.76,1.27,13.64,256,82,79.41,79,6305,30831,391,0.94,-0.23,0.15,-4.59,19.36,-7.13,-14.23,-72.17,-18.93,-0.17,18.73,-18.74,-3.05,Left Fall while Standing
19:31.8,987,990,1485,993,250,3.09,323.42,1.22,13.64,256,81,79.41,79,6305,37392,472,0.98,-0.22,0.23,-7.17,11.46,-3.05,-12.78,-70.56,-19.43,0.55,18.56,-19.17,-2.3,Left Fall while Standing
19:31.9,989,990,1485,993,249,3.11,321.71,1.22,13.64,256,66,79.41,79,6305,41748,538,0.98,-0.2,0.26,-10.95,0.66,-1.31,-12,-69.81,-20.2,0.45,18.52,-19.87,-2.36,Left Fall while Standing
19:32.0,989,990,1485,993,261,2.92,342.52,1.28,13.64,256,85,79.41,79,6305,48973,623,0.98,-0.19,0.23,-5.45,-3.83,-0.52,-11.23,-71.52,-20.57,0,18.54,-20.2,-2.86,Left Fall while Standing
19:32.0,989,990,1485,993,260,2.93,340.76,1.27,13.64,256,83,79.41,79,6305,55862,706,0.97,-0.19,0.21,-5.48,-5.69,-1.03,-11.42,-72.23,-20.94,-0.57,18.52,-20.56,-3.44,Left Fall while Standing
19:32.1,988,990,1485,993,252,3.06,326.85,1.23,20724.3,255,81,79.01,78,6241,0,0,0.95,-0.19,0.21,-4.98,-2.8,-4.05,-11.87,-71.8,-21.28,-0.94,18.28,-20.9,-3.77,Left Fall while Standing
19:32.2,988,990,1485,993,248,3.13,320,1.21,20724.3,255,66,79.01,78,6241,4356,66,0.96,-0.19,0.2,0.72,1.85,-3.78,-11.6,-72.51,-21.19,-0.95,18.05,-20.8,-3.81,Left Fall while Standing
19:32.3,989,989,1483.5,993,257,2.98,335.51,1.26,20724.3,255,63,79.01,78,6241,8325,129,0.95,-0.2,0.2,-4.92,0.71,-0.08,-12.01,-72.14,-21.52,-1.05,18.11,-21.14,-3.89,Left Fall while Standing
19:32.3,990,989,1483.5,993,263,2.89,346.05,1.29,20724.3,255,85,79.01,78,6241,15550,214,0.97,-0.2,0.18,-1.34,2.72,1.27,-11.75,-72.99,-21.58,-0.99,18.26,-21.18,-3.87,Left Fall while Standing
19:32.4,988,989,1483.5,993,256,3,333.77,1.25,20724.3,255,82,79.01,78,6241,22274,296,0.98,-0.2,0.22,-3.28,2.01,-2.18,-11.67,-71.47,-21.78,-0.99,18.16,-21.38,-3.81,Left Fall while Standing
19:32.5,990,989,1483.5,993,249,3.11,321.71,1.22,20724.3,255,80,79.01,78,6241,28674,376,0.97,-0.19,0.19,-3.89,1.53,-5.34,-11.51,-73.04,-22.03,-1.03,17.82,-21.61,-3.91,Left Fall while Standing
19:35.1,989,989,1483.5,989,261,2.92,342.52,1.28,0,0,81,0,0,0,10530,144,0.97,-0.06,0.3,-11.02,-11.33,6.01,-3.7,-70.89,-1.18,-2.33,1.95,-1.28,-5.07,Right Fall while Standing
19:35.2,988,988,1482,989,253,3.04,328.57,1.24,0,0,80,0,0,0,16930,224,1.02,-0.08,0.22,-27.04,-10.29,-4.17,-4.82,-75.68,-3.11,-3.22,1.71,-3.18,-6.12,Right Fall while Standing
19:35.2,988,988,1482,989,245,3.18,314.91,1.2,0,0,64,0,0,0,21026,288,1,-0.12,0.25,-16.27,11.45,-14.01,-7,-73.09,-4.27,-2.52,0.73,-4.38,-5.35,Right Fall while Standing
19:35.3,988,988,1482,989,257,2.98,335.51,1.26,0,0,81,0,0,0,27587,369,0.95,-0.1,0.29,-28.77,12.69,-19.45,-6.52,-70.58,-6.36,-1.73,-0.65,-6.37,-4.49,Right Fall while Standing
19:35.4,990,988,1482,990,255,3.01,332.03,1.25,0,0,79,0,0,0,33828,448,0.93,-0.05,0.31,-29.27,7.37,-20.86,-3.7,-69.76,-8.49,-1.34,-2.14,-8.29,-4.07,Right Fall while Standing
19:35.5,989,988,1482,990,246,3.16,316.6,1.2,0,0,78,0,0,0,39912,526,0.94,-0.03,0.35,-25.66,1.98,-21.39,-2.48,-68.02,-10.34,-1.34,-3.66,-10.03,-4,Right Fall while Standing
19:35.5,988,988,1482,990,253,3.04,328.57,1.24,0,0,64,0,0,0,44008,590,0.93,0,0.32,-26.18,1.75,-12.73,-0.67,-69.12,-12.21,-1.35,-4.53,-11.75,-4.07,Right Fall while Standing
19:35.6,990,988,1482,990,259,2.95,339.01,1.27,0,0,84,0,0,0,51064,674,0.91,0.01,0.36,-18.76,4.27,-2.91,-0.21,-67.01,-13.58,-1.18,-4.69,-13.04,-3.82,Right Fall while Standing
19:35.7,988,988,1482,990,248,3.13,320,1.21,20724.26,252,81,75.91,75,5761,0,0,0.91,-0.01,0.36,-12.81,-9.63,-3.72,-0.94,-67.1,-14.49,-2.05,-4.91,-13.94,-4.65,Right Fall while Standing
19:35.8,990,988,1482,990,247,3.14,318.3,1.21,20724.26,252,63,75.91,75,5761,3969,63,0.93,0,0.15,-0.83,-4.8,-4.69,-0.79,-79.37,-14.51,-2.56,-5.21,-13.96,-5.63,Right Fall while Standing
19:35.8,988,988,1482,990,252,3.06,326.85,1.23,20724.26,252,71,75.91,75,5761,9010,134,0.97,-0.06,0.39,-0.92,-29.32,8.63,-3.75,-66.41,-14.53,-4.91,-4.5,-14.1,-7.37,Right Fall while Standing
19:35.9,990,988,1482,990,250,3.09,323.42,1.22,20724.26,252,83,75.91,75,5761,15899,217,0.99,-0.07,0.22,11.52,-52.51,5.05,-4.45,-75.15,-13.62,-9.05,-4.05,-13.25,-11.7,Right Fall while Standing
19:36.0,988,988,1482,990,246,3.16,316.6,1.2,20724.26,252,78,75.91,75,5761,21983,295,0.99,-0.09,0.16,17.73,-49.48,0.27,-5.51,-78.16,-12.23,-12.97,-3.97,-11.96,-15.57,Right Fall while Standing
19:36.1,987,988,1482,990,242,3.23,309.86,1.18,20724.26,252,78,75.91,75,5761,28067,373,0.98,-0.05,0.08,2.51,-27.85,-5.92,-3.63,-82.7,-11.99,-15.27,-4.37,-11.65,-17.96,Right Fall while Standing
19:36.2,989,988,1482,990,244,3.19,313.22,1.19,20724.26,252,61,75.91,75,5761,31788,434,0.99,-0.05,0.1,2.07,-17.02,-7.82,-3.58,-81.88,-11.79,-16.71,-4.9,-11.46,-19.32,Right Fall while Standing
19:36.2,989,988,1482,990,252,3.06,326.85,1.23,20724.26,252,63,75.91,75,5761,35757,497,1,-0.04,0.07,7.73,-21.5,2.15,-2.79,-83.62,-11.16,-18.5,-4.68,-10.82,-21.1,Right Fall while Standing
19:36.3,989,988,1482,990,258,2.97,337.25,1.26,20724.26,252,84,75.91,75,5761,42813,581,0.99,-0.04,0.07,9.58,-24.19,7.53,-3.03,-83.84,-10.39,-20.49,-4.05,-10.09,-23.02,Right Fall while Standing
19:36.4,988,988,1482,990,249,3.11,321.71,1.22,20724.26,252,80,75.91,75,5761,49213,661,1,-0.07,0.02,9.82,-24.71,4.39,-4.41,-84.48,-9.6,-22.52,-3.66,-9.39,-25,Right Fall while Standing
19:36.5,989,988,1482,990,243,3.21,311.54,1.19,20724.21,248,80,74.57,74,5560,0,0,1.02,-0.06,-0.03,8.53,-28.29,1.55,-3.83,-84.86,-8.92,-24.79,-3.48,-8.71,-27.19,Right Fall while Standing
19:36.5,989,988,1482,990,246,3.16,316.6,1.2,20724.21,248,64,74.57,74,5560,4096,64,1,-0.07,-0.09,9.8,-30.69,0.5,-4.44,-82.11,-8.14,-27.24,-3.38,-7.99,-29.44,Right Fall while Standing
19:36.6,988,988,1482,990,257,2.98,335.51,1.26,20724.21,248,83,74.57,74,5560,10985,147,1,-0.06,-0.11,9.34,-27.18,0.06,-4.19,-80.95,-7.39,-29.46,-3.32,-7.26,-31.52,Right Fall while Standing
19:36.7,987,988,1482,990,254,3.03,330.3,1.24,20724.21,248,82,74.57,74,5560,17709,229,1.01,-0.08,-0.16,8.5,-22.79,0.73,-4.96,-78.23,-6.7,-31.34,-3.2,-6.63,-33.22,Right Fall while Standing
19:36.8,988,988,1482,990,247,3.14,318.3,1.21,20724.21,248,77,74.57,74,5560,23638,306,0.97,-0.07,-0.18,9.83,-17.26,0.67,-4.49,-77.44,-5.91,-32.81,-3.09,-5.85,-34.59,Right Fall while Standing
19:36.8,987,988,1482,990,242,3.23,309.86,1.18,20724.21,248,65,74.57,74,5560,27863,371,1,-0.09,-0.2,5.38,-9.76,1.73,-5.49,-75.95,-5.46,-33.7,-2.9,-5.46,-35.39,Right Fall while Standing
19:36.9,987,988,1482,990,246,3.16,316.6,1.2,20724.21,248,63,74.57,74,5560,31832,434,1,-0.08,-0.2,6.94,-15.23,2.06,-4.91,-76.17,-4.9,-34.99,-2.69,-4.9,-36.64,Right Fall while Standing
19:37.0,987,988,1482,990,255,3.01,332.03,1.25,20724.21,248,82,74.57,74,5560,38556,516,1,-0.07,-0.25,8.34,-15.06,1.6,-4.58,-74.02,-4.22,-36.29,-2.5,-4.23,-37.8,Right Fall while Standing
19:37.1,988,988,1482,990,249,3.11,321.71,1.22,20724.21,248,81,74.57,74,5560,45117,597,0.99,-0.07,-0.27,4.11,-15.94,4.04,-4.25,-72.61,-3.87,-37.65,-2.14,-3.88,-39.05,Right Fall while Standing
19:37.1,988,988,1482,990,244,3.19,313.22,1.19,20724.21,248,79,74.57,74,5560,51358,676,0.99,-0.08,-0.28,7.79,-22.62,0.45,-4.87,-72.23,-3.23,-39.52,-2.04,-3.3,-40.83,Right Fall while Standing
19:37.2,986,988,1482,990,243,3.21,311.54,1.19,20724.21,248,64,74.46,74,5544,0,0,1,-0.11,-0.29,5.34,-20.73,-1.93,-6.6,-70.93,-2.79,-41.2,-2.13,-2.95,-42.39,Right Fall while Standing
19:37.3,983,988,1482,990,254,3.03,330.3,1.24,20724.21,248,73,74.46,74,5544,5329,73,0.97,-0.11,-0.37,0.98,-17.55,-3.03,-6.69,-66.63,-2.68,-42.69,-2.3,-2.84,-43.65,Right Fall while Standing
19:37.4,994,988,1482,994,257,2.98,335.51,1.26,20724.21,248,83,74.46,74,5544,12218,156,0.99,-0.1,-0.36,5.82,-22.74,0.14,-6.14,-67.63,-2.19,-44.57,-2.23,-2.35,-45.49,Right Fall while Standing
19:37.4,995,988,1482,995,249,3.11,321.71,1.22,20724.21,248,83,74.46,74,5544,19107,239,0.95,-0.11,-0.42,6.86,-23.56,2.66,-6.71,-63.71,-1.63,-46.51,-1.97,-1.83,-47.2,Right Fall while Standing
19:37.5,995,988,1482,995,243,3.21,311.54,1.19,20724.21,248,83,74.46,74,5544,25996,322,0.96,-0.11,-0.43,5.98,-18.95,2.44,-6.81,-63.71,-1.14,-48.08,-1.72,-1.37,-48.71,Right Fall while Standing
19:37.6,995,988,1482,995,246,3.16,316.6,1.2,20724.21,248,64,74.46,74,5544,30092,386,0.97,-0.13,-0.46,2.41,-12.72,0.16,-7.39,-62.33,-0.91,-49.2,-1.65,-1.17,-49.73,Right Fall while Standing
19:37.7,994,989,1483.5,995,258,2.97,337.25,1.26,20724.21,248,92,74.46,74,5544,38556,478,0.96,-0.13,-0.45,-0.18,-20.57,-0.05,-7.58,-62.15,-0.88,-50.92,-1.6,-1.15,-51.37,Right Fall while Standing
19:37.7,996,989,1483.5,996,257,2.98,335.51,1.26,20724.21,248,98,74.46,74,5544,48160,576,0.91,-0.12,-0.51,1.23,-34.2,-0.73,-6.95,-58.59,-0.75,-53.67,-1.59,-1,-53.87,Right Fall while Standing
19:37.8,995,989,1483.5,996,251,3.08,325.13,1.23,20724.21,248,96,74.46,74,5544,57376,672,0.88,-0.14,-0.55,4.66,-33.98,-0.22,-8.42,-55.39,-0.35,-56.44,-1.55,-0.67,-56.4,Right Fall while Standing
19:37.9,996,989,1483.5,996,246,3.16,316.6,1.2,20724.21,248,97,74.46,74,5544,66785,769,0.87,-0.14,-0.57,4.94,-26.45,2.82,-8.41,-54.19,0.07,-58.57,-1.28,-0.27,-58.4,Right Fall while Standing
19:38.0,996,989,1483.5,996,249,3.11,321.71,1.22,20724.24,251,63,84.11,83,7074,0,0,0.88,-0.16,-0.62,4.31,-20.37,2.25,-8.89,-52.55,0.43,-60.25,-1.05,0.06,-59.94,Right Fall while Standing
19:38.0,996,989,1483.5,996,263,2.89,346.05,1.29,20724.24,251,104,84.11,83,7074,10816,104,0.87,-0.16,-0.67,-1.61,-18.76,-0.13,-8.66,-50.01,0.35,-61.83,-1,-0.01,-61.36,Right Fall while Standing
19:38.1,996,990,1485,996,257,2.98,335.51,1.26,20724.24,251,99,84.11,83,7074,20617,203,0.84,-0.16,-0.65,-4.66,-21.1,-1.32,-8.93,-49.75,0.04,-63.59,-1.04,-0.32,-63.03,Right Fall while Standing
19:38.2,996,990,1485,996,250,3.09,323.42,1.22,20724.24,251,93,84.11,83,7074,29266,296,0.82,-0.15,-0.67,-11.35,-26.29,-4.1,-8.38,-48.8,-0.77,-65.71,-1.29,-1.07,-65.03,Right Fall while Standing
19:38.3,996,990,1485,996,246,3.16,316.6,1.2,20724.24,251,74,84.11,83,7074,34742,370,0.81,-0.12,-0.71,-12.31,-25.86,-7.18,-7.1,-47.02,-1.67,-67.85,-1.78,-1.89,-67.02,Right Fall while Standing
19:38.3,996,990,1485,996,251,3.08,325.13,1.23,20724.24,251,60,84.11,83,7074,38342,430,0.75,-0.12,-0.7,-7.75,-15.08,-6.52,-7.12,-44.9,-2.22,-69.15,-2.21,-2.42,-68.18,Right Fall while Standing
19:38.4,996,990,1485,996,261,2.92,342.52,1.28,20724.24,251,91,84.11,83,7074,46623,521,0.74,-0.11,-0.73,-3.56,-5.96,-2.9,-6.68,-43.57,-2.45,-69.76,-2.38,-2.62,-68.72,Right Fall while Standing
19:38.5,996,990,1485,996,257,2.98,335.51,1.26,20724.24,251,92,84.11,83,7074,55087,613,0.76,-0.13,-0.74,-5.6,-8.98,2.31,-7.42,-43.7,-2.84,-70.6,-2.14,-3.02,-69.52,Right Fall while Standing
19:38.6,995,990,1485,996,250,3.09,323.42,1.22,20724.24,251,85,84.11,83,7074,62312,698,0.75,-0.13,-0.76,-5.46,-19.62,1.53,-7.29,-42.7,-3.2,-72.22,-1.97,-3.37,-71.04,Right Fall while Standing
19:38.7,995,990,1485,996,244,3.19,313.22,1.19,20724.24,251,82,84.11,83,7074,69036,780,0.7,-0.1,-0.79,-2.28,-23.15,3.92,-6.17,-39.96,-3.33,-74.13,-1.61,-3.45,-72.76,Right Fall while Standing
19:38.7,997,990,1485,997,250,3.09,323.42,1.22,20724.27,252,59,85.15,83,7250,0,0,0.69,-0.11,-0.82,-0.47,-20.41,4.42,-6.42,-38.35,-3.33,-75.81,-1.22,-3.45,-74.31,Right Fall while Standing
19:38.8,995,991,1486.5,997,261,2.92,342.52,1.28,20724.27,252,83,85.15,83,7250,6889,83,0.64,-0.07,-0.91,-0.05,-24.49,2.97,-4.02,-33.5,-3.29,-77.83,-0.93,-3.32,-76.05,Right Fall while Standing
19:38.9,995,991,1486.5,997,253,3.04,328.57,1.24,20724.27,252,80,85.15,83,7250,13289,163,0.73,-0.13,-0.86,-0.89,-13.71,-1.52,-7.33,-38.2,-3.31,-79,-0.99,-3.47,-77.37,Right Fall while Standing
19:39.0,993,991,1486.5,997,246,3.16,316.6,1.2,20724.27,252,77,85.15,83,7250,19218,240,0.65,-0.12,-0.88,-3.64,-13.56,-2.9,-7.08,-34.5,-3.55,-80.2,-1.15,-3.69,-78.37,Right Fall while Standing
19:39.0,994,991,1486.5,997,242,3.23,309.86,1.18,20724.27,252,61,85.15,83,7250,22939,301,0.63,-0.14,-0.84,-5.85,-11.83,-1.76,-8.08,-34.85,-3.95,-81.25,-1.22,-4.12,-79.4,Right Fall while Standing
19:39.1,993,991,1486.5,997,250,3.09,323.42,1.22,20724.27,252,60,85.15,83,7250,26539,361,0.61,-0.12,-0.86,-4.71,-10.22,-0.12,-7.27,-33.55,-4.27,-82.18,-1.17,-4.39,-80.24,Right Fall while Standing
19:39.2,992,991,1486.5,997,258,2.97,337.25,1.26,20724.27,252,79,85.15,83,7250,32780,440,0.64,-0.12,-0.78,-2.51,1.46,-0.97,-7.16,-37.64,-4.42,-82.22,-1.19,-4.53,-80.44,Right Fall while Standing
19:39.3,1000,991,1486.5,1000,252,3.06,326.85,1.23,20724.27,252,87,85.15,83,7250,40349,527,0.91,-0.11,-1.12,-6.11,-6.79,-2.84,-4.82,-37.28,-4.83,-82.88,-1.34,-4.83,-81.06,Right Fall while Standing
19:39.3,1001,991,1486.5,1001,245,3.18,314.91,1.2,20724.27,252,88,85.15,83,7250,48093,615,0.62,-0.11,-0.89,-8.89,2.29,-3.13,-6.49,-33.18,-5.47,-82.86,-1.52,-5.52,-80.87,Right Fall while Standing
19:39.4,1000,991,1486.5,1001,240,3.26,306.51,1.17,20724.27,252,94,85.15,83,7250,56929,709,0.63,-0.11,-0.86,-2.73,2.57,-2.73,-6.48,-34.27,-5.64,-82.82,-1.67,-5.67,-80.88,Right Fall while Standing
19:39.5,1002,991,1486.5,1002,246,3.16,316.6,1.2,20724.22,249,62,77.96,77,6076,0,0,0.63,-0.11,-0.89,-1.11,0.05,0.24,-6.11,-33.39,-5.68,-82.96,-1.59,-5.7,-80.98,Right Fall while Standing
19:39.6,1000,992,1488,1002,259,2.95,339.01,1.27,20724.22,249,107,77.96,77,6076,11449,107,0.62,-0.11,-0.89,1.87,-3.98,2.37,-6.18,-32.94,-5.49,-83.42,-1.35,-5.52,-81.4,Right Fall while Standing
19:39.6,1002,992,1488,1002,253,3.04,328.57,1.24,20724.22,249,112,77.96,77,6076,23993,219,0.62,-0.11,-0.88,2.22,-6.68,1.62,-6.54,-33.48,-5.28,-84.08,-1.17,-5.33,-82.05,Right Fall while Standing
19:39.7,1000,992,1488,1002,246,3.16,316.6,1.2,20724.22,249,106,77.96,77,6076,35229,325,0.62,-0.12,-0.92,-1.8,-2.11,0.66,-6.74,-32.4,-5.38,-84.39,-1.05,-5.44,-82.31,Right Fall while Standing
19:39.8,1000,992,1488,1002,242,3.23,309.86,1.18,20724.22,249,104,77.96,77,6076,46045,429,0.61,-0.12,-0.9,-4.31,1.47,0.17,-6.75,-32.31,-5.67,-84.43,-0.98,-5.71,-82.35,Right Fall while Standing
19:39.9,1000,992,1488,1002,246,3.16,316.6,1.2,20724.22,249,68,77.96,77,6076,50669,497,0.62,-0.11,-0.89,-4.4,2.98,-0.45,-6.34,-33.15,-5.96,-84.36,-0.96,-5.97,-82.31,Right Fall while Standing
19:40.0,1002,992,1488,1002,257,2.98,335.51,1.26,20724.22,249,110,77.96,77,6076,62769,607,0.61,-0.11,-0.88,-2.34,2.78,-1.01,-6.58,-32.98,-6.09,-84.3,-0.97,-6.11,-82.25,Right Fall while Standing
19:40.0,1000,992,1488,1002,254,3.03,330.3,1.24,20724.22,249,114,77.96,77,6076,75765,721,0.65,-0.12,-0.92,0.32,16.08,0.27,-6.75,-33.45,-6.02,-83.23,-0.89,-6.05,-81.24,Right Fall while Standing
19:40.1,1002,992,1488,1002,247,3.14,318.3,1.21,20724.22,249,107,77.96,77,6076,87214,828,0.68,-0.12,-0.9,11.78,29.22,0.03,-6.85,-35.23,-5.07,-81.13,-0.83,-5.15,-79.3,Right Fall while Standing
19:40.2,1002,993,1489.5,1002,242,3.23,309.86,1.18,20724.22,249,104,77.96,77,6076,98030,932,0.78,-0.15,-0.97,6.64,35.32,0.99,-7.25,-37.03,-4.53,-78.6,-0.69,-4.64,-76.94,Right Fall while Standing
19:40.2,1001,993,1489.5,1002,243,3.21,311.54,1.19,20724.22,248,71,101.52,100,10306,0,0,0.7,-0.14,-0.84,1.48,39.85,-0.27,-7.65,-37.95,-4.37,-75.72,-0.65,-4.5,-74.21,Right Fall while Standing
19:40.3,1002,993,1489.5,1002,253,3.04,328.57,1.24,20724.22,248,108,101.52,100,10306,11664,108,0.74,-0.16,-0.73,-3.89,33.95,-2.94,-9.27,-43.25,-4.63,-73.3,-0.82,-4.81,-72.09,Right Fall while Standing
19:40.4,1001,993,1489.5,1002,256,3,333.77,1.25,20724.22,248,110,101.52,100,10306,23764,218,0.76,-0.16,-0.76,-4.74,30.76,-5.79,-9.22,-42.84,-4.95,-71.08,-1.2,-5.12,-69.95,Right Fall while Standing
19:40.5,999,993,1489.5,1002,252,3.06,326.85,1.23,20724.22,248,105,101.52,100,10306,34789,323,0.78,-0.16,-0.75,0.5,29.44,-6.23,-9.23,-43.93,-4.87,-68.97,-1.62,-5.04,-67.97,Right Fall while Standing
19:40.6,1000,993,1489.5,1002,244,3.19,313.22,1.19,20724.22,248,104,101.52,100,10306,45605,427,0.8,-0.14,-0.7,0.81,28.99,-3.42,-8.04,-46.61,-4.76,-66.89,-1.82,-4.89,-66.08,Right Fall while Standing
19:40.6,999,993,1489.5,1002,241,3.24,308.18,1.18,20724.22,248,103,101.52,100,10306,56214,530,0.86,-0.13,-0.65,-7.56,29.08,-2.69,-7.21,-51.09,-5.3,-64.8,-1.97,-5.37,-64.26,Right Fall while Standing
19:40.7,1000,993,1489.5,1002,242,3.23,309.86,1.18,20724.22,248,74,101.52,100,10306,61690,604,0.89,-0.15,-0.64,-3.09,36.59,-6.78,-8.23,-51.82,-5.49,-62.18,-2.42,-5.6,-61.76,Right Fall while Standing
19:40.8,1001,993,1489.5,1002,249,3.11,321.71,1.22,20724.22,248,75,101.52,100,10306,67315,679,0.81,-0.13,-0.61,-7.06,44.31,-3.56,-7.87,-51.13,-5.99,-58.92,-2.64,-6.07,-58.61,Right Fall while Standing
19:40.9,991,993,1489.5,1002,258,2.97,337.25,1.26,20724.22,248,107,101.52,100,10306,78764,786,0.89,-0.13,-0.52,-3.64,53.71,-2.31,-7.51,-57.44,-6.23,-54.94,-2.76,-6.28,-55.04,Right Fall while Standing
19:40.9,986,993,1489.5,1002,253,3.04,328.57,1.24,20724.22,248,110,101.52,100,10306,90864,896,0.98,-0.17,-0.43,2.63,58.63,-0.37,-9.76,-63.2,-5.98,-50.58,-2.72,-6.13,-51.08,Right Fall while Standing
19:41.0,995,993,1489.5,1002,246,3.16,316.6,1.2,20724.22,249,104,100.84,100,10167,0,0,0.96,-0.12,-0.38,-5.57,54.55,-0.69,-6.99,-65.9,-6.36,-46.58,-2.72,-6.39,-47.35,Right Fall while Standing
19:41.1,999,993,1489.5,1002,241,3.24,308.18,1.18,20724.22,249,105,100.84,100,10167,11025,105,0.96,-0.06,-0.29,3.14,40.91,10.62,-3.79,-71.18,-6.08,-43.62,-1.85,-5.99,-44.73,Right Fall while Standing
19:41.2,999,993,1489.5,1002,243,3.21,311.54,1.19,20724.22,249,78,100.84,100,10167,17109,183,0.9,-0.1,-0.11,-1.25,21.23,16.85,-6.85,-78.98,-6.14,-42.14,-0.49,-6.16,-43.62,Right Fall while Standing
19:41.2,1003,993,1489.5,1003,251,3.08,325.13,1.23,20724.22,249,80,100.84,100,10167,23509,263,1,-0.15,-0.21,2.59,10.03,0.94,-8.72,-73.97,-5.89,-41.53,-0.36,-6.01,-42.82,Right Fall while Standing
19:41.3,1001,994,1491,1003,257,2.98,335.51,1.26,20724.22,249,111,100.84,100,10167,35830,374,1.03,-0.12,-0.31,4.78,17.22,-12.27,-6.88,-70.73,-5.48,-40.35,-1.24,-5.54,-41.57,Right Fall while Standing
19:41.4,1002,994,1491,1003,252,3.06,326.85,1.23,20724.22,249,113,100.84,100,10167,48599,487,0.98,-0.12,-0.24,-21.05,45.89,-18.72,-7.3,-72.88,-7.06,-36.97,-2.62,-7.07,-38.41,Right Fall while Standing
19:41.5,1001,994,1491,1003,247,3.14,318.3,1.21,20724.22,249,108,100.84,100,10167,60263,595,0.94,-0.1,-0.22,-13.02,70.63,-16.2,-6.63,-73.73,-8.02,-31.69,-3.81,-7.96,-33.37,Right Fall while Standing
19:41.6,1001,994,1491,1003,243,3.21,311.54,1.19,20724.22,249,108,100.84,100,10167,71927,703,0.97,-0.13,-0.04,-32.37,81.43,-1.67,-7.99,-80.6,-10.47,-25.57,-3.88,-10.37,-27.77,Right Fall while Standing
19:41.6,1001,994,1491,1003,241,3.24,308.18,1.18,20724.22,249,105,100.84,100,10167,82952,808,1.02,-0.11,0.14,-43.67,65.54,14.83,-6.78,-78.65,-13.83,-20.62,-2.66,-13.55,-22.94,Right Fall while Standing
19:41.7,1001,994,1491,1003,243,3.21,311.54,1.19,20724.22,249,85,100.84,100,10167,90177,893,1.03,-0.07,0.25,-34.9,41.38,11.85,-4.2,-74.24,-16.48,-17.58,-1.68,-15.99,-19.85,Right Fall while Standing
19:41.8,1001,994,1491,1003,251,3.08,325.13,1.23,20724.19,246,84,98.61,97,9722,0,0,1.01,-0.12,0.32,-19.95,21.34,2.64,-6.87,-69.64,-17.95,-16.11,-1.42,-17.51,-18.26,Right Fall while Standing
19:41.9,1000,994,1491,1003,256,3,333.77,1.25,20724.19,246,112,98.61,97,9722,12544,112,0.97,-0.15,0.19,-18.58,2.98,11.62,-8.97,-74.53,-19.32,-16.04,-0.48,-18.91,-18.38,Right Fall while Standing
19:41.9,1001,994,1491,1003,251,3.08,325.13,1.23,20724.19,246,112,98.61,97,9722,25088,224,0.92,-0.21,0.19,-21.89,-3.12,19.25,-13.17,-71.47,-20.96,-16.43,1.06,-20.65,-18.64,Right Fall while Standing
19:42.0,1001,994,1491,1003,246,3.16,316.6,1.2,20724.19,246,109,98.61,97,9722,36969,333,0.97,-0.25,0.16,-24.38,0.5,15,-15.1,-71.16,-22.8,-16.55,2.28,-22.49,-18.73,Right Fall while Standing
19:42.1,1001,994,1491,1003,242,3.23,309.86,1.18,20724.19,246,110,98.61,97,9722,49069,443,0.97,-0.27,0.16,-12.85,17.56,1.56,-16.05,-70.47,-23.74,-15.35,2.46,-23.44,-17.56,Right Fall while Standing
19:42.2,1002,994,1491,1003,244,3.19,313.22,1.19,20724.19,246,89,98.61,97,9722,56990,532,0.91,-0.29,0.15,-2.86,21.42,-12.24,-17.93,-68.67,-23.92,-13.86,1.58,-23.68,-16.05,Right Fall while Standing
19:42.2,1001,994,1491,1003,252,3.06,326.85,1.23,20724.19,246,93,98.61,97,9722,65639,625,0.86,-0.27,0.22,-0.68,16.3,-20.98,-17.17,-66.65,-23.93,-12.78,0.06,-23.66,-14.94,Right Fall while Standing
19:42.3,1002,995,1492.5,1003,258,2.97,337.25,1.26,20724.19,246,114,98.61,97,9722,78635,739,1,-0.23,0.25,-15.11,37.11,-11.31,-13.02,-69.74,-25.05,-10.08,-0.75,-24.57,-12.47,Right Fall while Standing
19:42.4,1002,995,1492.5,1003,252,3.06,326.85,1.23,20724.19,246,116,98.61,97,9722,92091,855,0.97,-0.26,0.29,-3.1,6.25,-5.34,-14.81,-66.55,-25.25,-9.75,-1.1,-24.83,-12.02,Right Fall while Standing
19:42.5,1002,995,1492.5,1003,247,3.14,318.3,1.21,20724.19,246,111,98.61,97,9722,104412,966,0.95,-0.23,0.31,-21.67,-17.56,-3.7,-13.76,-66.4,-26.87,-11.26,-1.33,-26.35,-13.46,Right Fall while Standing
19:42.6,1002,995,1492.5,1003,242,3.23,309.86,1.18,20724.22,249,110,107.94,107,11650,0,0,0.94,-0.21,0.23,-12.95,-10.76,-6.85,-12.85,-69.91,-27.83,-12.24,-1.79,-27.23,-14.55,Right Fall while Standing
19:42.6,1001,995,1492.5,1003,242,3.23,309.86,1.18,20724.22,249,91,107.94,107,11650,8281,91,0.96,-0.19,0.24,-7.79,-1.65,-6.18,-11.69,-70.74,-28.38,-12.52,-2.2,-27.71,-14.84,Right Fall while Standing
19:42.7,1000,995,1492.5,1003,249,3.11,321.71,1.22,20724.22,249,91,107.94,107,11650,16562,182,0.93,-0.2,0.24,-5.28,-2.43,-2.01,-12.18,-69.84,-28.74,-12.86,-2.3,-28.08,-15.14,Right Fall while Standing
19:42.8,1002,995,1492.5,1003,257,2.98,335.51,1.26,20724.22,249,113,107.94,107,11650,29331,295,0.94,-0.21,0.24,-4.85,1.45,2.87,-12.67,-69.95,-29.07,-12.9,-2.01,-28.42,-15.18,Right Fall while Standing
19:42.9,1001,995,1492.5,1003,256,3,333.77,1.25,20724.22,249,119,107.94,107,11650,43492,414,0.96,-0.22,0.24,-0.04,-3.88,5.25,-13.16,-69.75,-29.03,-13.35,-1.54,-28.4,-15.61,Right Fall while Standing
19:42.9,1001,995,1492.5,1003,251,3.08,325.13,1.23,20724.22,249,113,107.94,107,11650,56261,527,0.98,-0.24,0.22,-3.57,-6.73,2.67,-14.08,-69.94,-29.27,-14.02,-1.28,-28.66,-16.26,Right Fall while Standing
19:43.0,1000,995,1492.5,1003,244,3.19,313.22,1.19,20724.22,249,114,107.94,107,11650,69257,641,0.98,-0.23,0.2,-3.6,-5.22,-5.63,-13.62,-71.07,-29.5,-14.58,-1.65,-28.87,-16.84,Right Fall while Standing
19:43.1,1003,996,1494,1003,242,3.23,309.86,1.18,20724.22,249,112,107.94,107,11650,81801,753,0.97,-0.23,0.17,0.24,0.53,-10.98,-13.57,-72.21,-29.44,-14.69,-2.44,-28.81,-16.99,Right Fall while Standing
19:43.2,1001,996,1494,1003,241,3.24,308.18,1.18,20724.22,249,94,107.94,107,11650,90637,847,0.96,-0.21,0.2,-3.58,2.82,-12.2,-12.43,-71.64,-29.68,-14.63,-3.33,-28.99,-16.91,Right Fall while Standing
19:43.3,1001,996,1494,1003,248,3.13,320,1.21,20724.22,249,97,107.94,107,11650,100046,944,0.95,-0.19,0.21,-5.62,1.21,-13.04,-11.68,-71.72,-30.06,-14.69,-4.27,-29.33,-16.97,Right Fall while Standing
19:43.3,1001,996,1494,1003,255,3.01,332.03,1.25,20724.21,248,115,106.43,105,11326,0,0,0.96,-0.16,0.21,-3.29,0.57,-10.05,-10.07,-73.02,-30.28,-14.8,-4.98,-29.47,-17.13,Right Fall while Standing
19:43.4,1001,996,1494,1003,256,3,333.77,1.25,20724.21,248,118,106.43,105,11326,13924,118,0.97,-0.16,0.2,-7.3,-2.81,-4.48,-9.85,-73.39,-30.79,-15.17,-5.26,-29.95,-17.49,Right Fall while Standing
19:43.5,1001,996,1494,1003,251,3.08,325.13,1.23,20724.21,248,113,106.43,105,11326,26693,231,0.98,-0.16,0.19,-3.13,-4.89,-0.33,-9.85,-73.99,-30.99,-15.7,-5.23,-30.14,-18.03,Right Fall while Standing
19:43.6,1002,996,1494,1003,245,3.18,314.91,1.2,20724.21,248,113,106.43,105,11326,39462,344,0.97,-0.18,0.19,-6.52,-4.09,0.71,-10.67,-73.46,-31.45,-16.17,-5.11,-30.62,-18.46,Right Fall while Standing
19:43.6,1003,996,1494,1003,241,3.24,308.18,1.18,20724.21,248,112,106.43,105,11326,52006,456,0.98,-0.18,0.16,-4.11,1.21,-1.09,-10.68,-74.72,-31.72,-16.23,-5.13,-30.88,-18.57,Right Fall while Standing
19:43.7,1000,997,1495.5,1003,241,3.24,308.18,1.18,20724.21,248,97,106.43,105,11326,61415,553,0.99,-0.17,0.2,-2.93,4.69,-6.37,-10.17,-73.55,-31.9,-16.02,-5.56,-31.03,-18.33,Right Fall while Standing
19:49.7,1001,1001,1501.5,1001,245,3.18,314.91,1.2,0,0,124,0,0,0,34420,262,0.93,0.06,0.4,0.15,-0.08,-18.37,2.56,-64.94,1.11,-0.16,-3.67,1.17,-2.75,Forward Fall while Standing
19:49.8,1001,1001,1501.5,1001,260,2.93,340.76,1.27,0,0,131,0,0,0,51581,393,0.92,0.1,0.31,-7.24,11.92,-11.2,5.6,-68.84,0.61,0.57,-4.44,0.81,-2.21,Forward Fall while Standing
19:49.9,1001,1001,1501.5,1001,254,3.03,330.3,1.24,0,0,130,0,0,0,68481,523,0.9,0.08,0.36,-4.22,1.45,-8.67,3.93,-65.97,0.35,0.53,-5.01,0.49,-2.13,Forward Fall while Standing
19:49.9,1002,1001,1501.5,1002,245,3.18,314.91,1.2,0,0,123,0,0,0,83610,646,0.87,0.06,0.24,-15.8,-7.24,-9.46,3.35,-72.24,-0.77,-0.14,-5.65,-0.6,-3.03,Forward Fall while Standing
19:50.0,1001,1001,1501.5,1002,255,3.01,332.03,1.25,0,0,133,0,0,0,101299,779,0.9,0,0.35,-21.58,23.85,-12.41,-0.35,-67.01,-2.34,1.5,-6.52,-2.26,-1.24,Forward Fall while Standing
19:50.1,1000,1001,1501.5,1002,256,3,333.77,1.25,0,0,134,0,0,0,119255,913,0.86,0.02,0.33,-23.22,1.6,-18.43,0.91,-67.27,-4.04,1.46,-7.84,-3.84,-1.28,Forward Fall while Standing
19:50.2,1000,1000,1500,1002,246,3.16,316.6,1.2,0,0,131,0,0,0,136416,1044,0.87,0.04,0.41,4.15,12.89,-13.18,1.71,-63.37,-3.7,2.26,-8.75,-3.48,-0.37,Forward Fall while Standing
19:50.2,1002,1001,1501.5,1002,249,3.11,321.71,1.22,0,0,127,0,0,0,152545,1171,0.88,0.08,0.35,-9.34,24.54,0.55,4.19,-66.4,-4.36,3.95,-8.65,-4.02,1.14,Forward Fall while Standing
19:50.3,1001,1001,1501.5,1002,261,2.92,342.52,1.28,20724.25,252,141,131.31,131,17241,0,0,0.95,0.08,0.36,-5.55,0.92,15.62,3.94,-66.96,-4.73,3.87,-7.42,-4.39,1.04,Forward Fall while Standing
19:50.4,1001,1001,1501.5,1002,250,3.09,323.42,1.22,20724.25,252,137,131.31,131,17241,18769,137,0.94,0.08,0.46,-9.41,-5.79,13.64,4.03,-62.04,-5.4,3.28,-6.32,-5.03,0.66,Forward Fall while Standing
19:50.4,1001,1001,1501.5,1002,245,3.18,314.91,1.2,20724.25,252,133,131.31,131,17241,36458,270,0.9,0.02,0.49,29.81,-7.53,12.14,0.35,-59.82,-3.13,2.56,-5.35,-2.99,0.07,Forward Fall while Standing
19:50.5,1001,1001,1501.5,1002,247,3.14,318.3,1.21,20724.25,252,128,131.31,131,17241,52842,398,0.88,0.01,0.47,12.09,-14.27,12.69,-0.14,-60.42,-2.17,1.33,-4.33,-2.08,-1.14,Forward Fall while Standing
19:50.6,1001,1001,1501.5,1002,255,3.01,332.03,1.25,20724.25,252,132,131.31,131,17241,70266,530,0.9,0.01,0.39,7.41,-5.76,11.81,0.21,-65.26,-1.55,0.73,-3.36,-1.48,-1.91,Forward Fall while Standing
19:50.7,1001,1001,1501.5,1002,259,2.95,339.01,1.27,20724.25,252,139,131.31,131,17241,89587,669,0.9,-0.03,0.39,4.48,-1.79,8.91,-2.62,-65.09,-1.17,0.44,-2.62,-1.23,-2.18,Forward Fall while Standing
19:50.8,1001,1001,1501.5,1002,252,3.06,326.85,1.23,20724.25,252,133,131.31,131,17241,107276,802,0.89,-0.04,0.33,-22.89,-21.18,-1.76,-3.27,-67.83,-2.89,-1.34,-2.69,-2.9,-4,Forward Fall while Standing
19:50.8,1000,1000,1500,1002,246,3.16,316.6,1.2,20724.25,252,134,131.31,131,17241,125232,936,0.88,-0.05,0.4,-19.12,-1.63,-12.63,-3.36,-63.75,-4.3,-1.62,-3.59,-4.26,-4.11,Forward Fall while Standing
19:50.9,1002,1001,1501.5,1002,243,3.21,311.54,1.19,20724.25,252,134,131.31,131,17241,143188,1070,0.89,-0.02,0.4,-22.88,-14.67,-23.61,-1.84,-64.01,-6.02,-2.9,-5.35,-5.85,-5.35,Forward Fall while Standing
19:51.0,1000,1000,1500,1002,245,3.18,314.91,1.2,20724.25,252,126,131.31,131,17241,159064,1196,0.93,0,0.37,6.57,-0.56,-16.27,-0.58,-66.79,-5.46,-3.1,-6.56,-5.27,-5.65,Forward Fall while Standing
19:51.1,1002,1001,1501.5,1002,253,3.04,328.57,1.24,20724.23,249,129,132.55,132,17569,0,0,0.86,0,0.41,1.42,1.69,-3.92,-0.67,-62.85,-5.31,-3.13,-6.8,-5.12,-5.52,Forward Fall while Standing
19:51.2,1001,1001,1501.5,1002,260,2.93,340.76,1.27,20724.23,249,139,132.55,132,17569,19321,139,0.98,0.02,0.28,-3.38,-16.83,6.48,0.28,-72.42,-5.53,-4.56,-6.24,-5.29,-7.27,Forward Fall while Standing
19:51.2,1000,1000,1500,1002,252,3.06,326.85,1.23,20724.23,249,137,132.55,132,17569,38090,276,0.99,-0.01,0.32,10.37,-25.15,10.17,-1.39,-70.51,-4.69,-6.62,-5.41,-4.56,-9.18,Forward Fall while Standing
19:51.3,1002,1001,1501.5,1002,246,3.16,316.6,1.2,20724.23,249,137,132.55,132,17569,56859,413,0.94,0,0.32,13.21,-28.98,20.39,-0.55,-69.35,-3.63,-9.01,-3.78,-3.51,-11.42,Forward Fall while Standing
19:51.4,1000,1000,1500,1002,243,3.21,311.54,1.19,20724.23,249,138,132.55,132,17569,75903,551,1.01,-0.05,0.19,34.05,-12.92,7.82,-3.63,-77.39,-0.97,-10.16,-3.12,-1.08,-12.85,Forward Fall while Standing
19:51.4,1002,1001,1501.5,1002,247,3.14,318.3,1.21,20724.23,249,133,132.55,132,17569,93592,684,0.96,-0.03,0.22,20.87,-13.87,-4.21,-2.07,-75.24,0.68,-11.38,-3.38,0.57,-13.93,Forward Fall while Standing
19:51.5,1001,1001,1501.5,1002,254,3.03,330.3,1.24,20724.23,249,134,132.55,132,17569,111548,818,1.03,-0.02,0.11,8.79,-1.11,5.04,-1.7,-81.97,1.4,-11.62,-2.93,1.28,-14.43,Forward Fall while Standing
19:51.6,1002,1001,1501.5,1002,259,2.95,339.01,1.27,20724.23,249,141,132.55,132,17569,131429,959,0.95,-0.02,0.24,-10.63,-12.99,12.27,-2.03,-74.41,0.64,-12.76,-1.94,0.53,-15.22,Forward Fall while Standing
19:51.7,1001,1001,1501.5,1002,254,3.03,330.3,1.24,20724.23,249,144,132.55,132,17569,152165,1103,0.99,0,0.19,-1.54,-12.49,8.15,-0.47,-77.3,0.56,-13.89,-1.24,0.52,-16.42,Forward Fall while Standing
19:51.8,1002,1001,1501.5,1002,249,3.11,321.71,1.22,20724.23,249,137,132.55,132,17569,170934,1240,0.97,0.01,0.1,3.47,-11.13,5.31,0.14,-82.4,0.87,-14.9,-0.77,0.84,-17.6,Forward Fall while Standing
19:51.8,1001,1001,1501.5,1002,243,3.21,311.54,1.19,20724.24,250,138,137.83,137,18996,0,0,1.03,0,0.08,-8.14,-6.45,5.39,-0.51,-83.87,0.3,-15.53,-0.31,0.27,-18.27,Forward Fall while Standing
19:51.9,1002,1001,1501.5,1002,247,3.14,318.3,1.21,20724.24,250,133,137.83,137,18996,17689,133,1.05,-0.05,0.15,-19.09,2.42,0.62,-3.53,-79.68,-1.13,-15.5,-0.2,-1.22,-18.07,Forward Fall while Standing
19:52.0,1002,1001,1501.5,1002,257,2.98,335.51,1.26,20724.24,250,142,137.83,137,18996,37853,275,0.96,-0.03,0.12,-1.92,-4.57,-3.5,-2.38,-81.14,-1.23,-16,-0.4,-1.27,-18.6,Forward Fall while Standing
19:52.1,1000,1001,1501.5,1002,256,3,333.77,1.25,20724.24,250,142,137.83,137,18996,58017,417,0.97,-0.03,0.05,-6.99,3.37,-0.02,-2.31,-85.23,-1.72,-15.89,-0.35,-1.75,-18.67,Forward Fall while Standing
19:52.1,1000,1001,1501.5,1002,251,3.08,325.13,1.23,20724.24,250,143,137.83,137,18996,78466,560,1.02,-0.07,0.1,-16.8,-1.64,4.79,-4.35,-81.72,-2.97,-16.17,0.08,-3.03,-18.8,Forward Fall while Standing
19:52.2,1000,1001,1501.5,1002,245,3.18,314.91,1.2,20724.24,250,140,137.83,137,18996,98066,700,1.01,-0.06,0.04,-9.85,-7.02,-0.35,-4.13,-84.33,-3.69,-16.87,0.12,-3.71,-19.57,Forward Fall while Standing
19:52.3,1001,1001,1501.5,1002,240,3.26,306.51,1.17,20724.24,250,141,137.83,137,18996,117947,841,1,-0.08,0.09,-9.92,5.8,-6.16,-5.35,-81.56,-4.41,-16.58,-0.3,-4.45,-19.17,Forward Fall while Standing
19:52.4,1000,1001,1501.5,1002,242,3.23,309.86,1.18,20724.24,250,134,137.83,137,18996,135903,975,1,-0.09,0.11,-0.68,11.53,-0.57,-5.47,-80.28,-4.42,-15.85,-0.28,-4.46,-18.43,Forward Fall while Standing
19:52.4,1000,1000,1500,1002,248,3.13,320,1.21,20724.24,250,136,137.83,137,18996,154399,1111,1.01,-0.06,0.03,8.53,6.38,7.35,-3.94,-84.74,-3.71,-15.51,0.36,-3.72,-18.28,Forward Fall while Standing
19:52.5,1001,1000,1500,1002,256,3,333.77,1.25,20724.24,250,143,137.83,137,18996,174848,1254,1.03,-0.06,0.08,6.99,-0.28,9.73,-3.92,-83.04,-3.13,-15.69,1.17,-3.16,-18.38,Forward Fall while Standing
19:52.6,1001,1000,1500,1002,251,3.08,325.13,1.23,20724.22,249,145,139.95,139,19586,0,0,1.06,-0.13,0.18,13.92,-6.34,4.79,-7.38,-76.51,-2.03,-16.32,1.59,-2.24,-18.73,Forward Fall while Standing
19:52.7,1001,1000,1500,1002,240,3.26,306.51,1.17,20724.22,249,139,139.95,139,19586,19321,139,0.98,-0.07,0.07,18.76,-16.2,3.89,-4.77,-82.49,-0.56,-17.7,1.95,-0.73,-20.29,Forward Fall while Standing
19:52.7,1003,1001,1501.5,1003,236,3.33,299.87,1.15,20724.22,249,142,139.95,139,19586,39485,281,0.98,-0.08,0.04,17.31,-11.61,1.12,-5.23,-83.22,0.8,-18.74,2.09,0.56,-21.32,Forward Fall while Standing
19:52.8,1002,1001,1501.5,1003,238,3.3,303.18,1.16,20724.22,249,133,139.95,139,19586,57174,414,1.05,-0.09,0.11,2.31,9.17,3.39,-5.36,-80.81,1.02,-18.18,2.41,0.76,-20.69,Forward Fall while Standing
19:52.9,1003,1001,1501.5,1003,246,3.16,316.6,1.2,20724.22,249,134,139.95,139,19586,75130,548,1,-0.1,0.14,5.9,-4.39,5.73,-6.12,-78.63,1.51,-18.67,2.91,1.2,-21.07,Forward Fall while Standing
19:53.0,1001,1001,1501.5,1003,250,3.09,323.42,1.22,20724.22,249,144,139.95,139,19586,95866,692,0.98,-0.08,0.08,-3.06,-13.6,6.68,-5.24,-81.71,1.32,-19.87,3.48,1.05,-22.34,Forward Fall while Standing
19:53.1,1001,1001,1501.5,1003,243,3.21,311.54,1.19,20724.22,249,142,139.95,139,19586,116030,834,1.01,-0.1,0.03,-2.79,-4.02,1.25,-6.51,-82.17,1.15,-20.33,3.64,0.84,-22.8,Forward Fall while Standing
19:53.1,1001,1001,1501.5,1003,238,3.3,303.18,1.16,20724.22,249,140,139.95,139,19586,135630,974,0.99,-0.1,0.03,-12.05,1.69,-0.37,-6.39,-82.33,0.27,-20.35,3.67,0.01,-22.83,Forward Fall while Standing
19:53.2,1001,1001,1501.5,1003,236,3.33,299.87,1.15,20724.22,249,143,139.95,139,19586,156079,1117,1.05,-0.16,0.08,-24.22,6.56,-0.02,-9.06,-78.91,-1.55,-20,3.73,-1.85,-22.36,Forward Fall while Standing
19:53.3,1001,1001,1501.5,1003,238,3.3,303.18,1.16,20724.22,249,135,139.95,139,19586,174304,1252,0.96,-0.16,0.11,-36.55,-1.59,-2.56,-9.71,-77.28,-4.36,-20.28,3.59,-4.57,-22.56,Forward Fall while Standing
19:53.4,1001,1001,1501.5,1003,246,3.16,316.6,1.2,20724.13,241,137,138.95,138,19306,0,0,0.93,-0.13,0.16,-15.53,1.76,-9.08,-8.31,-75.78,-5.49,-20.3,2.96,-5.61,-22.52,Forward Fall while Standing
19:53.4,1000,1001,1501.5,1003,249,3.11,321.71,1.22,20724.13,241,147,138.95,138,19306,21609,147,0.98,-0.11,0.13,-15.5,16.31,2.85,-6.77,-78.44,-6.63,-19.21,3.24,-6.64,-21.58,Forward Fall while Standing
19:53.5,1000,1001,1501.5,1003,243,3.21,311.54,1.19,20724.13,241,147,138.95,138,19306,43218,294,1.01,-0.11,0.2,1.97,6.04,3.21,-6.86,-75.79,-6.44,-18.9,3.54,-6.45,-21.18,Forward Fall while Standing
19:53.6,1000,1001,1501.5,1003,236,3.33,299.87,1.15,20724.13,241,142,138.95,138,19306,63382,436,1.01,-0.14,0.21,17.62,-4.15,4.86,-8.44,-74.47,-5.04,-19.37,3.98,-5.17,-21.58,Forward Fall while Standing
19:53.7,1001,1001,1501.5,1003,233,3.39,294.94,1.14,20724.13,241,144,138.95,138,19306,84118,580,1.01,-0.15,0.17,27.63,0.24,2.63,-9.03,-75.77,-2.89,-19.51,4.24,-3.14,-21.76,Forward Fall while Standing
19:53.7,1000,1001,1501.5,1003,237,3.32,301.53,1.16,20724.13,241,138,138.95,138,19306,103162,718,1.01,-0.14,0.11,27.02,7.06,1.92,-8.22,-78.71,-0.77,-19.12,4.45,-1.07,-21.5,Forward Fall while Standing
19:53.8,1001,1001,1501.5,1003,246,3.16,316.6,1.2,20724.13,241,147,138.95,138,19306,124771,865,0.95,-0.1,0.06,27.25,-4.15,-0.02,-6.62,-81.37,1.34,-19.58,4.51,1.03,-22.06,Forward Fall while Standing
19:53.9,1001,1001,1501.5,1003,245,3.18,314.91,1.2,20724.13,241,152,138.95,138,19306,147875,1017,1.01,-0.12,0.06,15.55,1.98,3.12,-7.3,-80.82,2.58,-19.59,4.81,2.19,-22.04,Forward Fall while Standing
19:54.0,1000,1000,1500,1003,238,3.3,303.18,1.16,20724.13,241,145,138.95,138,19306,168900,1162,1.03,-0.14,0.06,-0.65,9.86,8.33,-8.48,-79.94,2.58,-18.98,5.51,2.14,-21.42,Forward Fall while Standing
19:54.1,1001,1000,1500,1003,244,3.19,313.22,1.19,20724.13,241,146,138.95,138,19306,190216,1308,1.02,-0.13,0.11,-5.5,-9.87,0.05,-7.58,-79.27,2.2,-19.89,5.57,1.81,-22.27,Forward Fall while Standing
19:54.1,1001,1000,1500,1003,249,3.11,321.71,1.22,20724.14,242,142,145.04,145,21037,0,0,0.99,-0.14,0,-11.94,-4.69,-2.31,-8.5,-80.49,1.34,-20.4,5.46,0.95,-22.8,Forward Fall while Standing
19:54.2,1002,1001,1501.5,1003,255,3.01,332.03,1.25,20724.14,242,141,145.04,145,21037,19881,141,1.02,-0.15,0.05,-31.11,19.53,5.85,-9.13,-79.45,-0.98,-19.06,5.97,-1.3,-21.48,Forward Fall while Standing
19:54.3,1001,1001,1501.5,1003,253,3.04,328.57,1.24,20724.14,242,148,145.04,145,21037,41785,289,1,-0.18,0.17,-30.62,14.45,-1.79,-10.48,-74.77,-3.29,-18.11,5.89,-3.58,-20.37,Forward Fall while Standing
19:54.4,1002,1001,1501.5,1003,246,3.16,316.6,1.2,20724.14,242,149,145.04,145,21037,63986,438,1.01,-0.16,0.19,-5.92,4.77,-15.08,-9.2,-74.64,-3.71,-17.89,4.77,-3.93,-20.16,Forward Fall while Standing
19:54.4,1000,1001,1501.5,1003,239,3.28,304.85,1.17,20724.14,242,145,145.04,145,21037,85011,583,0.98,-0.15,0.09,-7.34,15.53,-5.95,-9.22,-78.25,-4.23,-16.85,4.38,-4.43,-19.3,Forward Fall while Standing
19:54.5,1000,1000,1500,1003,234,3.37,296.58,1.14,20724.14,242,143,145.04,145,21037,105460,726,0.95,-0.13,0.16,-12.08,-7.04,-4.01,-8.52,-75.76,-5.12,-17.54,4.13,-5.25,-19.87,Forward Fall while Standing
19:54.6,1001,1000,1500,1003,233,3.39,294.94,1.14,20724.14,242,142,145.04,145,21037,125624,868,1,-0.15,0.1,-2.21,-10.75,-10.18,-9.29,-77.97,-5.24,-18.51,3.41,-5.41,-20.89,Forward Fall while Standing
19:54.7,1000,1000,1500,1003,235,3.35,298.22,1.15,20724.14,242,135,145.04,145,21037,143849,1003,0.98,-0.16,0.12,-3.14,7.64,-0.97,-9.81,-76.69,-5.45,-18.07,3.4,-5.62,-20.42,Forward Fall while Standing
19:54.7,1000,1000,1500,1003,242,3.23,309.86,1.18,20724.14,242,137,145.04,145,21037,162618,1140,0.97,-0.11,0.12,2.58,7.31,3.46,-7.23,-78.83,-5.2,-17.66,3.73,-5.28,-20.11,Forward Fall while Standing
19:54.8,1001,1000,1500,1003,247,3.14,318.3,1.21,20724.14,242,144,145.04,145,21037,183354,1284,1,-0.13,0.11,4.22,3.48,3.53,-7.88,-78.8,-4.84,-17.55,4.06,-4.96,-20,Forward Fall while Standing
19:54.9,1002,1000,1500,1003,243,3.21,311.54,1.19,20724.15,242,150,143.47,143,20584,0,0,1.04,-0.15,0.08,2.42,-0.5,4.37,-8.68,-79.19,-4.61,-17.74,4.45,-4.77,-20.2,Forward Fall while Standing
19:55.0,1001,1000,1500,1003,235,3.35,298.22,1.15,20724.15,242,144,143.47,143,20584,20736,144,1.03,-0.16,0.09,3.47,-0.27,0.17,-9.14,-78.5,-4.31,-17.91,4.52,-4.5,-20.33,Forward Fall while Standing
19:55.1,1002,1000,1500,1003,232,3.41,293.3,1.13,20724.15,242,146,143.47,143,20584,42052,290,1.03,-0.16,0.08,0.13,3.3,-4.18,-9.29,-78.67,-4.25,-17.81,4.26,-4.45,-20.25,Forward Fall while Standing
19:55.1,1001,1000,1500,1003,236,3.33,299.87,1.15,20724.15,242,137,143.47,143,20584,60821,427,1,-0.14,0.09,-0.1,1.99,-6.6,-8.31,-79.27,-4.22,-17.81,3.82,-4.38,-20.27,Forward Fall while Standing
19:55.2,1000,1000,1500,1003,245,3.18,314.91,1.2,20724.15,242,140,143.47,143,20584,80421,567,0.98,-0.15,0.1,-1.5,0.16,-4.11,-8.97,-78.09,-4.29,-17.95,3.56,-4.48,-20.36,Forward Fall while Standing
19:55.3,1002,1000,1500,1003,249,3.11,321.71,1.22,20724.15,242,149,143.47,143,20584,102622,716,0.97,-0.15,0.1,-2.37,-0.89,-2.18,-9.57,-77.76,-4.43,-18.18,3.45,-4.64,-20.56,Forward Fall while Standing
19:55.4,1000,1000,1500,1003,239,3.28,304.85,1.17,20724.15,242,148,143.47,143,20584,124526,864,0.99,-0.13,0.1,-2.16,-0.85,-0.73,-8.18,-78.92,-4.55,-18.39,3.46,-4.7,-20.81,Forward Fall while Standing
19:55.4,1000,1000,1500,1003,229,3.47,288.41,1.12,20724.15,242,145,143.47,143,20584,145551,1009,0.99,-0.14,0.11,-0.53,0,0.67,-8.83,-77.98,-4.55,-18.55,3.57,-4.72,-20.92,Forward Fall while Standing
19:55.5,1000,1000,1500,1003,227,3.51,285.18,1.11,20724.15,242,148,143.47,143,20584,167455,1157,0.99,-0.14,0.14,0.44,-1.78,5.61,-8.73,-77.06,-4.47,-18.84,4.06,-4.64,-21.17,Forward Fall while Standing
19:55.6,1001,1000,1500,1003,229,3.47,288.41,1.12,20724.15,242,141,143.47,143,20584,187336,1298,0.99,-0.14,0.11,1.82,-4.27,5.37,-8.6,-78.07,-4.29,-19.32,4.54,-4.46,-21.67,Forward Fall while Standing
19:55.7,1001,1000,1500,1003,236,3.33,299.87,1.15,20724.06,235,144,144.25,144,20806,0,0,1.03,-0.13,0.1,0.37,-2.95,-0.79,-7.75,-79.23,-4.22,-19.7,4.54,-4.36,-22.08,Forward Fall while Standing
19:55.7,1001,1000,1500,1003,244,3.19,313.22,1.19,20724.06,235,149,144.25,144,20806,22201,149,1.01,-0.14,0.1,3.22,-5.48,-4.66,-8.27,-78.74,-3.93,-20.27,4.24,-4.1,-22.6,Forward Fall while Standing
19:55.8,1001,1000,1500,1003,239,3.28,304.85,1.17,20724.06,235,149,144.25,144,20806,44402,298,0.99,-0.14,0.05,7.4,-6.05,-8.04,-8.51,-79.93,-3.32,-20.89,3.69,-3.52,-23.25,Forward Fall while Standing
19:55.9,1002,1000,1500,1003,233,3.39,294.94,1.14,20724.06,235,142,144.25,144,20806,64566,440,0.99,-0.15,0.1,7.79,-1.63,-6.19,-9.02,-78.29,-2.67,-21.17,3.27,-2.93,-23.45,Forward Fall while Standing
19:56.0,1001,1000,1500,1003,230,3.45,290.04,1.12,20724.06,235,143,144.25,144,20806,85015,583,0.99,-0.12,0.08,14.14,-3.56,-1.89,-7.26,-80.24,-1.56,-21.59,3.19,-1.79,-23.93,Forward Fall while Standing
19:56.1,1003,1000,1500,1003,231,3.43,291.67,1.13,20724.06,235,138,144.25,144,20806,104059,721,1,-0.1,0.06,12.21,-6.89,2.15,-6.3,-81.82,-0.56,-22.28,3.42,-0.79,-24.66,Forward Fall while Standing
19:56.1,1001,1000,1500,1003,238,3.3,303.18,1.16,20724.06,235,141,144.25,144,20806,123940,862,1.03,-0.12,0.11,8.36,-7.15,2.98,-7.17,-79.47,0.12,-22.98,3.7,-0.18,-25.24,Forward Fall while Standing
19:56.2,1000,1000,1500,1003,245,3.18,314.91,1.2,20724.06,235,147,144.25,144,20806,145549,1009,1.02,-0.08,0.09,6.5,-9.82,-2.21,-5.06,-81.78,0.66,-23.89,3.59,0.43,-26.2,Forward Fall while Standing
19:56.3,1000,1000,1500,1003,241,3.24,308.18,1.18,20724.06,235,149,144.25,144,20806,167750,1158,1.02,-0.09,0.08,5.21,6.69,-3.57,-5.49,-81.94,1.1,-23.53,3.38,0.83,-25.87,Forward Fall while Standing
19:56.4,1001,1000,1500,1003,235,3.35,298.22,1.15,20724.06,235,147,144.25,144,20806,189359,1305,0.99,-0.08,0.13,-3.99,13.98,1.85,-5.33,-79.47,0.83,-22.61,3.58,0.59,-24.88,Forward Fall while Standing
19:56.4,1000,1000,1500,1003,230,3.45,290.04,1.12,20724.07,236,150,145.55,145,21184,0,0,0.98,-0.1,0.11,-0.6,-3.92,-0.64,-6.25,-79.84,0.83,-23.06,3.6,0.55,-25.33,Forward Fall while Standing
19:56.5,1001,1000,1500,1003,234,3.37,296.58,1.14,20724.07,236,141,145.55,145,21184,19881,141,0.96,-0.09,-0.01,-9.49,-5.15,-1.02,-6.17,-82.81,0.16,-23.59,3.58,-0.09,-25.96,Forward Fall while Standing
19:56.6,1002,1000,1500,1003,243,3.21,311.54,1.19,20724.07,236,143,145.55,145,21184,40330,284,1.08,-0.17,0.1,-24.21,14.54,-4.83,-9.36,-78.07,-1.66,-22.63,3.27,-1.97,-24.85,Forward Fall while Standing
19:56.7,1000,1000,1500,1003,247,3.14,318.3,1.21,20724.07,236,150,145.55,145,21184,62830,434,1.04,-0.16,0.21,-27.19,-7.98,-8.02,-9.37,-74.21,-3.74,-23.41,2.7,-3.96,-25.44,Forward Fall while Standing
19:56.7,1000,1000,1500,1003,241,3.24,308.18,1.18,20724.07,236,153,145.55,145,21184,86239,587,1,-0.16,0.09,-3.03,-19.77,-11.29,-9.39,-78.26,-3.93,-25.08,1.89,-4.15,-27.21,Forward Fall while Standing
19:56.8,1000,1000,1500,1003,235,3.35,298.22,1.15,20724.07,236,147,145.55,145,21184,107848,734,0.98,-0.13,0.05,-9.12,11.56,-7.43,-8.02,-80.52,-4.59,-24.35,1.38,-4.72,-26.59,Forward Fall while Standing
19:56.9,1000,1000,1500,1003,233,3.39,294.94,1.14,20724.07,236,147,145.55,145,21184,129457,881,0.99,-0.13,0.19,3.5,9.78,-7.39,-7.8,-75.36,-4.27,-23.75,0.88,-4.42,-25.81,Forward Fall while Standing
19:57.0,1002,1000,1500,1003,232,3.41,293.3,1.13,20724.07,236,143,145.55,145,21184,149906,1024,0.95,-0.1,0.1,9.53,4.1,0.31,-6.84,-79.7,-3.5,-23.59,0.96,-3.63,-25.83,Forward Fall while Standing
19:57.1,1001,1000,1500,1003,239,3.28,304.85,1.17,20724.07,236,143,145.55,145,21184,170355,1167,0.96,-0.06,0.08,8.52,0.5,-3.68,-4.08,-82.73,-2.81,-23.7,0.74,-2.86,-26.06,Forward Fall while Standing
19:57.1,1001,1000,1500,1003,246,3.16,316.6,1.2,20724.07,236,147,145.55,145,21184,191964,1314,0.98,-0.08,0.11,6.67,3.67,-4.54,-5.3,-80.44,-2.24,-23.57,0.45,-2.36,-25.84,Forward Fall while Standing
19:57.2,1002,1000,1500,1003,243,3.21,311.54,1.19,20724.1,239,150,146.44,146,21445,0,0,1.01,-0.07,0.12,7.57,9.79,7.95,-4.79,-80.43,-1.63,-22.99,1.1,-1.76,-25.28,Forward Fall while Standing
19:57.3,1002,1000,1500,1003,233,3.39,294.94,1.14,20724.1,239,147,146.44,146,21445,21609,147,1.01,-0.05,0.12,0.39,7.98,8.79,-3.59,-81.17,-1.56,-22.53,1.83,-1.64,-24.88,Forward Fall while Standing
19:57.4,1002,1000,1500,1003,229,3.47,288.41,1.12,20724.1,239,147,146.44,146,21445,43218,294,1.03,-0.07,0.11,4.71,-8.89,0.05,-4.55,-81.11,-1.16,-23.36,1.9,-1.3,-25.67,Forward Fall while Standing
19:57.4,1001,1000,1500,1003,231,3.43,291.67,1.13,20724.1,239,142,146.44,146,21445,63382,436,1,-0.06,0.04,-4.4,1.71,0.66,-4.24,-83.98,-1.46,-23.38,2.01,-1.57,-25.8,Forward Fall while Standing
19:57.5,1001,1000,1500,1003,242,3.23,309.86,1.18,20724.1,239,143,146.44,146,21445,83831,579,1,-0.08,0.1,-11.1,7.8,-2.85,-4.89,-81.1,-2.27,-22.93,1.85,-2.37,-25.26,Forward Fall while Standing
19:57.6,1000,1000,1500,1003,245,3.18,314.91,1.2,20724.1,239,146,146.44,146,21445,105147,725,1.02,-0.08,0.15,-14.58,16.7,-7.92,-4.93,-78.87,-3.33,-21.82,1.31,-3.4,-24.1,Forward Fall while Standing
19:57.7,1000,1000,1500,1003,240,3.26,306.51,1.17,20724.1,239,150,146.44,146,21445,127647,875,0.97,-0.09,0.15,-18.08,9.06,-8.55,-6.07,-78.27,-4.68,-21.27,0.71,-4.74,-23.55,Forward Fall while Standing
19:57.7,1000,1000,1500,1003,231,3.43,291.67,1.13,20724.1,239,144,146.44,146,21445,148383,1019,0.99,-0.09,0.13,-6.43,-1.28,-13.53,-5.82,-79.39,-5.14,-21.53,-0.28,-5.17,-23.84,Forward Fall while Standing
19:57.8,1002,1000,1500,1003,228,3.49,286.79,1.11,20724.1,239,143,146.44,146,21445,168832,1162,0.99,-0.11,0.09,-5.69,10.44,-3.02,-6.86,-80.45,-5.53,-20.88,-0.46,-5.59,-23.26,Forward Fall while Standing
19:57.9,1000,1000,1500,1003,226,3.53,283.56,1.1,20724.1,239,141,146.44,146,21445,188713,1303,0.98,-0.07,0.13,-8.52,-2.73,5.53,-4.81,-79.68,-6.15,-21.25,0.04,-6.1,-23.59,Forward Fall while Standing
19:58.0,1001,1000,1500,1003,232,3.41,293.3,1.13,20724.04,233,142,144.52,144,20886,0,0,1.04,-0.08,0.03,-2.05,-7.4,-2.84,-5.22,-83.57,-6.27,-21.96,-0.12,-6.23,-24.43,Forward Fall while Standing
19:58.0,1000,1000,1500,1003,240,3.26,306.51,1.17,20724.04,233,145,144.52,144,20886,21025,145,1.04,-0.1,0.08,-4.06,5.27,-2.75,-5.94,-81.36,-6.53,-21.71,-0.27,-6.51,-24.1,Forward Fall while Standing
19:58.1,1000,1000,1500,1003,243,3.21,311.54,1.19,20724.04,233,147,144.52,144,20886,42634,292,1,-0.09,0.12,0.85,2.72,1.02,-5.6,-79.83,-6.43,-21.66,-0.13,-6.39,-23.98,Forward Fall while Standing
19:58.2,1000,1000,1500,1003,237,3.32,301.53,1.16,20724.04,233,141,144.52,144,20886,62515,433,1.01,-0.08,0.08,3.8,-5.69,2.25,-4.89,-82.01,-6.09,-22.25,0.11,-6.04,-24.64,Forward Fall while Standing
19:58.3,1000,1000,1500,1003,233,3.39,294.94,1.14,20724.04,233,142,144.52,144,20886,82679,575,1.02,-0.06,0.08,3.48,-4.37,-3.33,-3.93,-82.86,-5.78,-22.73,-0.09,-5.71,-25.14,Forward Fall while Standing
19:58.4,1001,1000,1500,1003,231,3.43,291.67,1.13,20724.04,233,144,144.52,144,20886,103415,719,0.99,-0.11,0.09,5.29,11.22,-0.21,-6.72,-80.35,-5.33,-22.02,-0.04,-5.38,-24.35,Forward Fall while Standing
19:58.4,1001,1000,1500,1003,237,3.32,301.53,1.16,20724.04,233,140,144.52,144,20886,123015,859,0.97,-0.07,0.08,-0.7,1.35,3.57,-4.9,-81.91,-5.34,-22.06,0.29,-5.32,-24.46,Forward Fall while Standing
19:58.5,1001,1000,1500,1003,244,3.19,313.22,1.19,20724.04,233,138,144.52,144,20886,142059,997,1,-0.08,0.11,1.35,-1.86,-1.66,-5.06,-80.76,-5.19,-22.36,0.22,-5.18,-24.7,Forward Fall while Standing
19:58.6,1001,1000,1500,1003,246,3.16,316.6,1.2,20724.04,233,150,144.52,144,20886,164559,1147,1,-0.12,0.17,4.66,-0.8,3.48,-7.39,-76.82,-4.79,-22.58,0.55,-4.89,-24.75,Forward Fall while Standing
19:58.7,1000,1000,1500,1003,241,3.24,308.18,1.18,20724.04,233,154,144.52,144,20886,188275,1301,1.01,-0.07,0.09,6.79,4.58,6.32,-4.8,-81.62,-4.22,-22.38,1.1,-4.24,-24.75,Forward Fall while Standing
19:58.7,1001,1000,1500,1003,234,3.37,296.58,1.14,20724.1,238,147,144.87,144,20987,0,0,1.04,-0.06,0.12,2.99,4.28,-3.82,-3.89,-81.27,-3.96,-22.21,0.87,-3.95,-24.57,Forward Fall while Standing
19:58.8,1000,1000,1500,1003,231,3.43,291.67,1.13,20724.1,238,149,144.87,144,20987,22201,149,1,-0.08,0.13,10.55,-1.8,-7.02,-4.97,-79.67,-3.11,-22.5,0.4,-3.19,-24.78,Forward Fall while Standing
19:58.9,1001,1000,1500,1003,236,3.33,299.87,1.15,20724.1,238,144,144.87,144,20987,42937,293,0.98,-0.07,0.14,8.27,4.57,-1.8,-4.53,-79.27,-2.43,-22.3,0.32,-2.52,-24.58,Forward Fall while Standing
19:59.0,1000,1000,1500,1003,245,3.18,314.91,1.2,20724.1,238,149,144.87,144,20987,65138,442,1,-0.09,0.15,1.14,9.6,-1.98,-5.52,-78.36,-2.3,-21.71,0.23,-2.43,-23.98,Forward Fall while Standing
19:59.0,1001,1000,1500,1003,246,3.16,316.6,1.2,20724.1,238,151,144.87,144,20987,87939,593,1,-0.1,0.15,4.19,8.75,-0.82,-6.33,-78.33,-1.93,-21.19,0.23,-2.11,-23.48,Forward Fall while Standing
19:59.1,1000,1000,1500,1003,239,3.28,304.85,1.17,20724.1,238,145,144.87,144,20987,108964,738,0.96,-0.06,0.11,-0.87,7.14,-1.27,-4.34,-80.99,-1.96,-20.8,0.19,-2.05,-23.21,Forward Fall while Standing
19:59.2,1001,1000,1500,1003,234,3.37,296.58,1.14,20724.1,238,143,144.87,144,20987,129413,881,0.94,-0.03,0.14,-3.5,12.11,1.98,-2.58,-79.59,-2.18,-20.02,0.4,-2.2,-22.41,Forward Fall while Standing
19:59.3,1002,1000,1500,1003,232,3.41,293.3,1.13,20724.1,238,145,144.87,144,20987,150438,1026,1.02,-0.06,0.15,-9.7,18.37,-8.32,-4.04,-79.29,-2.89,-18.76,-0.18,-2.93,-21.19,Forward Fall while Standing
19:59.4,1001,1000,1500,1003,235,3.35,298.22,1.15,20724.1,238,139,144.87,144,20987,169759,1165,1.02,-0.07,0.14,-22.87,17.82,-22.3,-4.29,-79.72,-4.61,-17.55,-1.83,-4.59,-20.03,Forward Fall while Standing
19:59.4,1002,1000,1500,1003,242,3.23,309.86,1.18,20724.1,238,146,144.87,144,20987,191075,1311,1.01,-0.06,0.18,-28.56,22.64,-38.73,-3.89,-77.68,-6.79,-15.94,-4.79,-6.67,-18.41,Forward Fall while Standing
19:59.5,1000,1000,1500,1003,247,3.14,318.3,1.21,20724.1,238,150,146.14,146,21356,0,0,0.97,-0.04,0.27,-41.85,25.95,-41.54,-2.68,-73,-9.93,-14.12,-7.89,-9.64,-16.47,Forward Fall while Standing
19:59.6,1001,1000,1500,1003,245,3.18,314.91,1.2,20724.1,238,151,146.14,146,21356,22801,151,0.95,0.04,0.31,-38.82,9.29,-33.25,1.56,-70.34,-12.87,-13.55,-10.39,-12.3,-15.83,Forward Fall while Standing
19:59.7,1000,1000,1500,1003,240,3.26,306.51,1.17,20724.1,238,148,146.14,146,21356,44705,299,1.01,0.06,0.32,-38.53,-4.55,-16.4,2.69,-70.49,-15.84,-14.07,-11.61,-15.1,-16.32,Forward Fall while Standing
19:59.7,1001,1000,1500,1003,235,3.35,298.22,1.15,20724.1,238,152,146.14,146,21356,67809,451,0.94,0.06,0.37,-18.91,-17.24,-17.33,2.97,-66.96,-17.27,-15.57,-12.9,-16.46,-17.62,Forward Fall while Standing
19:59.8,1000,1000,1500,1003,234,3.37,296.58,1.14,20724.1,238,151,146.14,146,21356,90610,602,0.91,0.07,0.24,-16.11,-7.88,-2.73,3.65,-73.14,-18.47,-16.33,-13.05,-17.58,-18.6,Forward Fall while Standing
19:59.9,1000,1000,1500,1003,233,3.39,294.94,1.14,20724.1,238,149,146.14,146,21356,112811,751,0.92,0.07,0.27,-22.25,-4.56,17.33,3.57,-71.54,-20.16,-16.84,-11.63,-19.21,-19.03,Forward Fall while Standing
20:00.0,1002,1000,1500,1003,237,3.32,301.53,1.16,20724.1,238,150,146.14,146,21356,135311,901,0.97,-0.02,0.37,-27.58,-0.88,22.74,-1.68,-67.46,-22.24,-17.06,-9.82,-21.42,-19.08,Forward Fall while Standing
20:00.0,1000,1000,1500,1003,245,3.18,314.91,1.2,20724.1,238,150,146.14,146,21356,157811,1051,0.95,0,0.4,-24.29,-11.65,3.06,-0.77,-65.62,-24.09,-18.13,-9.52,-23.16,-20.03,Forward Fall while Standing
20:00.1,1000,1000,1500,1003,251,3.08,325.13,1.23,20724.1,238,152,146.14,146,21356,180915,1203,0.95,-0.04,0.26,-24.03,-28.63,-1.15,-2.64,-72.99,-25.92,-20.51,-9.55,-24.99,-22.61,Forward Fall while Standing
20:00.2,1000,1000,1500,1003,251,3.08,325.13,1.23,20724.1,238,153,146.14,146,21356,204324,1356,0.93,-0.06,0.22,-24.34,-16.4,-1.03,-3.94,-74.65,-27.77,-21.95,-9.57,-26.82,-24.06,Forward Fall while Standing
20:00.3,1001,1000,1500,1003,247,3.14,318.3,1.21,20724.13,241,156,151.22,151,22865,0,0,0.89,-0.12,0.14,-9.43,-0.76,-1.92,-7.99,-76.68,-28.46,-22.16,-9.66,-27.64,-24.34,Forward Fall while Standing
20:00.4,1000,1000,1500,1003,240,3.26,306.51,1.17,20724.13,241,148,151.22,151,22865,21904,148,0.95,-0.1,0.13,-13.01,27.69,-3.03,-6.75,-78.67,-29.4,-20.21,-9.83,-28.5,-22.55,Forward Fall while Standing
20:00.4,1001,1000,1500,1003,236,3.33,299.87,1.15,20724.13,241,147,151.22,151,22865,43513,295,0.97,-0.07,0.25,-16.26,54.29,-19.96,-4.64,-73.34,-30.63,-16.13,-11.32,-29.59,-18.42,Forward Fall while Standing
20:00.5,1001,1000,1500,1003,235,3.35,298.22,1.15,20724.13,241,147,151.22,151,22865,65122,442,0.87,-0.02,0.25,6.73,33.45,-9.54,-1.94,-72.14,-30.06,-13.68,-12,-28.93,-16.02,Forward Fall while Standing
20:00.6,1001,1000,1500,1003,236,3.33,299.87,1.15,20724.13,241,142,151.22,151,22865,85286,584,0.94,-0.04,0.37,-23.34,-5.44,11.34,-2.83,-66.91,-31.84,-14.26,-11.06,-30.68,-16.36,Forward Fall while Standing
20:00.7,1000,1000,1500,1003,243,3.21,311.54,1.19,20724.13,241,140,151.22,151,22865,104886,724,0.99,-0.06,0.36,-24.39,-8.89,18.82,-4.07,-68.39,-33.69,-15.11,-9.53,-32.51,-17.24,Forward Fall while Standing
20:00.7,1000,1000,1500,1003,246,3.16,316.6,1.2,20724.13,241,149,151.22,151,22865,127087,873,1.04,-0.09,0.26,-6.94,-16.66,13.97,-5.52,-73.45,-34.19,-16.56,-8.38,-33.04,-18.84,Forward Fall while Standing
20:00.8,1000,1000,1500,1003,251,3.08,325.13,1.23,20724.13,241,148,151.22,151,22865,148991,1021,1.02,-0.12,0.25,-0.53,-9.08,6.3,-7.24,-73.07,-34.19,-17.42,-7.83,-33.11,-19.64,Forward Fall while Standing
20:00.9,1001,1000,1500,1003,246,3.16,316.6,1.2,20724.13,241,152,151.22,151,22865,172095,1173,1.01,-0.14,0.24,1.53,-1.8,-1.07,-8.08,-73.28,-34.03,-17.71,-7.85,-32.99,-19.93,Forward Fall while Standing
20:01.0,1000,1000,1500,1003,242,3.23,309.86,1.18,20724.13,241,151,151.22,151,22865,194896,1324,0.94,-0.14,0.3,3.05,1.24,-4.72,-8.51,-69.27,-33.75,-17.77,-8.16,-32.74,-19.83,Forward Fall while Standing
20:01.1,1000,1000,1500,1003,237,3.32,301.53,1.16,20724.13,241,148,147.24,147,21679,0,0,0.92,-0.13,0.29,-4.71,-3.2,-2.67,-7.96,-69.6,-34.06,-18.16,-8.3,-33.02,-20.22,Forward Fall while Standing
20:01.1,1001,1000,1500,1003,234,3.37,296.58,1.14,20724.13,241,151,147.24,147,21679,22801,151,0.94,-0.12,0.26,-0.5,-8.76,0.3,-7.68,-71.35,-34.06,-19,-8.22,-33,-21.1,Forward Fall while Standing
20:01.2,1001,1000,1500,1003,238,3.3,303.18,1.16,20724.13,241,150,147.24,147,21679,45301,301,0.96,-0.13,0.23,-2.55,-5.5,-2.35,-7.99,-73.07,-34.21,-19.57,-8.34,-33.16,-21.71,Forward Fall while Standing
20:01.3,1001,1000,1500,1003,244,3.19,313.22,1.19,20724.13,241,152,147.24,147,21679,68405,453,0.96,-0.12,0.21,-4.17,2.16,-2.47,-7.44,-74.22,-34.49,-19.56,-8.47,-33.41,-21.75,Forward Fall while Standing
20:01.4,1000,1000,1500,1003,250,3.09,323.42,1.22,20724.13,241,152,147.24,147,21679,91509,605,0.96,-0.12,0.23,-4.32,6.49,-2.97,-7.29,-73.36,-34.78,-19.22,-8.63,-33.68,-21.38,Forward Fall while Standing
20:01.4,1000,1000,1500,1003,246,3.16,316.6,1.2,20724.13,241,155,147.24,147,21679,115534,760,0.97,-0.11,0.28,0.22,6.96,-6.02,-6.86,-70.97,-34.72,-18.83,-9.04,-33.6,-20.91,Forward Fall while Standing
20:01.5,1001,1000,1500,1003,240,3.26,306.51,1.17,20724.13,241,148,147.24,147,21679,137438,908,0.94,-0.1,0.26,0.14,2.56,-1.99,-6.59,-72.08,-34.67,-18.79,-9.14,-33.54,-20.92,Forward Fall while Standing
20:01.6,1002,1000,1500,1003,236,3.33,299.87,1.15,20724.13,241,152,147.24,147,21679,160542,1060,0.96,-0.1,0.26,-4.16,-1.65,4.98,-6.61,-72.33,-34.94,-19.07,-8.69,-33.81,-21.2,Forward Fall while Standing
20:01.7,1001,1000,1500,1003,233,3.39,294.94,1.14,20724.13,241,152,147.24,147,21679,183646,1212,0.98,-0.11,0.28,0.06,-3.99,3.27,-6.7,-71.61,-34.9,-19.53,-8.38,-33.77,-21.61,Forward Fall while Standing
20:01.8,1000,1000,1500,1003,236,3.33,299.87,1.15,20724.13,241,148,147.24,147,21679,205550,1360,0.96,-0.13,0.24,-3.31,-4.11,0.24,-7.9,-72.52,-35.11,-20,-8.3,-34.02,-22.1,Forward Fall while Standing
20:01.8,1000,1000,1500,1003,240,3.26,306.51,1.17,20724.11,239,150,151.01,151,22804,0,0,0.96,-0.12,0.23,-2.14,-0.92,-0.79,-7.57,-73.34,-35.23,-20.23,-8.3,-34.12,-22.35,Forward Fall while Standing
20:01.9,1000,1000,1500,1003,249,3.11,321.71,1.22,20724.11,239,150,151.01,151,22804,22500,150,0.97,-0.11,0.25,-1.58,3.65,-3.26,-7.14,-72.55,-35.31,-20.1,-8.49,-34.18,-22.2,Forward Fall while Standing
20:14.8,1002,1002,1503,1002,233,3.39,294.94,1.14,0,0,152,0,0,0,46513,305,0.95,-0.34,0.13,-2.13,-1.73,-2.86,-19.82,-67.83,0.37,-0.62,-0.2,-0.44,-3.31,Sitting
20:14.9,1002,1002,1503,1002,223,3.59,278.75,1.09,0,0,153,0,0,0,69922,458,0.94,-0.34,0.13,-6.61,-4.19,-3.88,-20.29,-67.21,-0.08,-1.07,-0.42,-0.89,-3.72,Sitting
20:14.9,1003,1002,1503,1003,228,3.49,286.79,1.11,0,0,152,0,0,0,93026,610,0.95,-0.33,0.14,-4.9,1.32,-2.68,-19.67,-67.56,-0.4,-1.13,-0.56,-1.17,-3.78,Sitting
20:15.0,1001,1002,1503,1003,239,3.28,304.85,1.17,0,0,158,0,0,0,117990,768,0.95,-0.32,0.11,-4.13,2.25,-2.47,-18.78,-69.06,-0.67,-1.11,-0.69,-1.39,-3.82,Sitting
20:15.1,1001,1001,1501.5,1003,229,3.47,288.41,1.12,0,0,152,0,0,0,141094,920,0.95,-0.34,0.1,-0.64,-1.32,-4.02,-20.14,-67.91,-0.67,-1.35,-0.93,-1.45,-4.01,Sitting
20:15.2,1001,1001,1501.5,1003,224,3.57,280.35,1.09,0,0,154,0,0,0,164810,1074,0.95,-0.33,0.11,2.14,-2.96,-2.76,-19.31,-68.54,-0.47,-1.72,-1.08,-1.23,-4.4,Sitting
20:15.2,1002,1001,1501.5,1003,233,3.39,294.94,1.14,0,0,147,0,0,0,186419,1221,0.95,-0.33,0.13,-1.36,-1.08,-2.12,-19.65,-67.9,-0.53,-1.95,-1.17,-1.3,-4.59,Sitting
20:15.3,1002,1001,1501.5,1003,236,3.33,299.87,1.15,0,0,158,0,0,0,211383,1379,0.96,-0.34,0.13,-2.28,3.6,-0.31,-19.76,-67.81,-0.66,-1.83,-1.14,-1.42,-4.47,Sitting
20:15.4,1001,1001,1501.5,1003,227,3.51,285.18,1.11,20724.01,231,150,152.93,152,23387,0,0,0.96,-0.32,0.12,-5.98,2.18,-1.98,-18.91,-68.68,-1.07,-1.82,-1.23,-1.79,-4.49,Sitting
20:15.5,1002,1001,1501.5,1003,224,3.57,280.35,1.09,20724.01,231,155,152.93,152,23387,24025,155,0.96,-0.31,0.11,-7.93,0.66,-4.4,-18.64,-69.2,-1.64,-1.92,-1.51,-2.32,-4.61,Sitting
20:15.5,1003,1001,1501.5,1003,229,3.47,288.41,1.12,20724.01,231,153,152.93,152,23387,47434,308,0.97,-0.33,0.11,-3.42,0.22,-1.75,-19.09,-68.76,-1.86,-2.06,-1.58,-2.55,-4.73,Sitting
20:15.6,1002,1001,1501.5,1003,237,3.32,301.53,1.16,20724.01,231,156,152.93,152,23387,71770,464,0.96,-0.33,0.12,1.45,2.16,1.96,-19.24,-68.54,-1.71,-2.05,-1.37,-2.41,-4.71,Sitting
20:15.7,1001,1001,1501.5,1003,237,3.32,301.53,1.16,20724.01,231,158,152.93,152,23387,96734,622,0.96,-0.33,0.11,0.75,1.95,0.14,-19.34,-68.54,-1.61,-2.05,-1.3,-2.32,-4.71,Sitting
20:15.8,1001,1001,1501.5,1003,230,3.45,290.04,1.12,20724.01,231,152,152.93,152,23387,119838,774,0.95,-0.33,0.13,-0.45,-0.32,-1.94,-19.33,-68.21,-1.6,-2.23,-1.39,-2.31,-4.87,Sitting
20:15.8,1002,1001,1501.5,1003,225,3.55,281.95,1.1,20724.01,231,152,152.93,152,23387,142942,926,0.96,-0.32,0.11,-3.66,0.45,-2.26,-18.79,-69.06,-1.84,-2.35,-1.5,-2.52,-5.02,Sitting
20:15.9,1001,1001,1501.5,1003,224,3.57,280.35,1.09,20724.01,231,155,152.93,152,23387,166967,1081,0.97,-0.31,0.11,-4.95,-0.49,-3.89,-18.22,-69.64,-2.18,-2.54,-1.75,-2.82,-5.23,Sitting
20:16.0,1001,1001,1501.5,1003,228,3.49,286.79,1.11,20724.01,231,154,152.93,152,23387,190683,1235,0.96,-0.33,0.12,-4,0.75,-1.88,-19.34,-68.43,-2.44,-2.64,-1.83,-3.12,-5.27,Sitting
20:16.1,1002,1001,1501.5,1003,235,3.35,298.22,1.15,20724.01,231,156,152.93,152,23387,215019,1391,0.96,-0.32,0.11,-1.55,1.1,0.27,-18.66,-69.18,-2.52,-2.71,-1.75,-3.16,-5.37,Sitting
20:16.1,1001,1001,1501.5,1003,239,3.28,304.85,1.17,20724.01,230,157,154.81,154,23965,0,0,0.95,-0.31,0.12,-1.78,0.17,0.26,-18.59,-69.07,-2.61,-2.85,-1.67,-3.25,-5.49,Sitting
20:16.2,1003,1001,1501.5,1003,231,3.43,291.67,1.13,20724.01,230,155,154.81,154,23965,24025,155,0.95,-0.32,0.1,-2.13,0.12,-2.15,-19.02,-69.02,-2.73,-2.99,-1.77,-3.38,-5.63,Sitting
20:16.3,1001,1001,1501.5,1003,225,3.55,281.95,1.1,20724.01,230,154,154.81,154,23965,47741,309,0.95,-0.32,0.12,-1.49,2.45,-2.03,-19.33,-68.32,-2.8,-2.96,-1.86,-3.46,-5.57,Sitting
20:16.4,1001,1001,1501.5,1003,225,3.55,281.95,1.1,20724.01,230,156,154.81,154,23965,72077,465,0.95,-0.31,0.12,-2.5,1.92,-2.96,-18.7,-68.96,-2.95,-2.96,-2.03,-3.58,-5.6,Sitting
20:16.5,1002,1001,1501.5,1003,230,3.45,290.04,1.12,20724.01,230,155,154.81,154,23965,96102,620,0.96,-0.32,0.12,-5.56,2.51,-4.34,-18.95,-68.82,-3.33,-2.92,-2.3,-3.96,-5.56,Sitting
20:16.5,1001,1001,1501.5,1003,239,3.28,304.85,1.17,20724.01,230,154,154.81,154,23965,119818,774,0.96,-0.31,0.12,-4.61,1.41,-1.73,-18.44,-69.24,-3.65,-2.97,-2.38,-4.24,-5.62,Sitting
20:16.6,1001,1001,1501.5,1003,239,3.28,304.85,1.17,20724.01,230,158,154.81,154,23965,144782,932,0.97,-0.31,0.11,-2.11,1.25,-0.24,-18.12,-69.67,-3.77,-3.03,-2.33,-4.34,-5.69,Sitting
20:16.7,1002,1001,1501.5,1003,232,3.41,293.3,1.13,20724.01,230,152,154.81,154,23965,167886,1084,0.96,-0.31,0.11,0.2,-1.07,-1.27,-18.21,-69.6,-3.71,-3.26,-2.37,-4.29,-5.92,Sitting
20:16.7,1001,1001,1501.5,1003,227,3.51,285.18,1.11,20724.01,230,153,154.81,154,23965,191295,1237,0.95,-0.31,0.11,-0.5,-2.32,-1.53,-18.49,-69.33,-3.7,-3.59,-2.43,-4.29,-6.22,Sitting
20:16.8,1001,1001,1501.5,1003,224,3.57,280.35,1.09,20724.01,230,154,154.81,154,23965,215011,1391,0.95,-0.32,0.12,0.06,0.17,-0.8,-19.11,-68.65,-3.65,-3.74,-2.43,-4.27,-6.33,Sitting
