Datetime, ECGRaw , AvgECG , ampECG , MAX , GSRRaw , Resistance , GSR(kohm) , SCL , GSRRMS , GSRMAV , EMGRaw , EMGRMS , EMGMAV , EMGVAR , EMGSSI , IEMG , AccX , AccY, AccZ , GyroX , GyroY , GyroZ , Aroll , Apitch , Groll , Gpitch, Gyaw , Combroll , Combpitch,Features
44:17.1,438,487,730.5,786,446,1.29,772.96,2.18,50.75,446,153,157.55,157,24821,46818,306,1.01,-0.05,0.04,-3.15,-9.92,9.18,-3.19,-84.87,-36.57,-16.69,-12.54,-35.23,-19.42,Standing
44:17.2,433,483,724.5,786,446,1.29,772.96,2.18,50.75,446,153,157.55,157,24821,70227,459,1.05,-0.06,0.09,-12.3,0.83,1.22,-3.67,-82.67,-37.74,-16.81,-12.34,-36.38,-19.44,Standing
44:17.3,469,482,723,786,447,1.29,776.04,2.18,50.75,446,870,157.55,157,24821,40695,1329,1.01,-0.06,0.02,-7.95,5.4,0.86,-3.91,-84.83,-38.49,-16.47,-12.18,-37.11,-19.2,Standing
44:17.4,1001,519,778.5,1001,448,1.28,779.13,2.19,50.75,446,857,157.55,157,24821,54248,2186,1.01,-0.07,0.08,-8.08,-3.49,1.42,-4.26,-82.5,-39.24,-17.02,-11.95,-37.84,-19.64,Standing
44:17.5,1001,551,826.5,1001,448,1.28,779.13,2.19,50.75,446,850,157.55,157,24821,55852,3036,1.03,-0.07,0.09,-10.1,15.19,-1.26,-4.44,-82.27,-40.2,-15.7,-12,-38.77,-18.36,Standing
44:17.6,1001,579,868.5,1001,449,1.28,782.23,2.19,50.75,446,818,157.55,157,24821,69616,3854,1,-0.08,0.07,-4.63,1.08,-1.37,-4.92,-82.49,-40.61,-15.79,-12.06,-39.18,-18.46,Standing
44:17.7,1001,604,906,1001,448,1.28,779.13,2.19,50.75,446,310,157.55,157,24821,100180,4164,1.02,-0.07,0.09,-0.63,-1.46,-0.4,-4.35,-82.22,-40.62,-16.14,-12.02,-39.17,-18.78,Standing
44:17.8,1001,626,939,1001,448,1.28,779.13,2.19,50.75,446,303,157.55,157,24821,126453,4467,1.01,-0.07,0.07,-0.61,4.3,-2.16,-4.83,-82.49,-40.62,-15.91,-12.16,-39.19,-18.57,Standing
44:17.9,973,644,966,1001,449,1.28,782.23,2.19,60.41,447,299,122.6,476,15030,0,0,1,-0.09,0.09,-3.82,1.44,-2.89,-5.75,-80.97,-40.95,-15.96,-12.37,-39.54,-18.56,Standing
44:18.0,696,647,970.5,1001,448,1.28,779.13,2.19,60.41,447,298,122.6,476,15030,23268,298,0.96,-0.06,0.12,1.2,-0.97,4.09,-4.33,-80.51,-40.77,-16.26,-11.88,-39.31,-18.83,Standing
44:18.1,528,641,961.5,1001,447,1.29,776.04,2.18,60.41,447,299,122.6,476,15030,47133,597,1,-0.07,0.07,-2.38,-1.45,-1.33,-4.81,-82.43,-40.95,-16.61,-11.94,-39.51,-19.24,Standing
44:18.2,419,631,946.5,1001,447,1.29,776.04,2.18,60.41,447,311,122.6,476,15030,78318,908,0.87,-0.07,0.16,-0.5,0.77,-4.02,-5.05,-77.13,-40.95,-16.73,-12.26,-39.51,-19.15,Standing
44:18.3,326,617,925.5,1001,447,1.29,776.04,2.18,60.41,447,773,122.6,476,15030,86023,1681,1,-0.07,0.08,6.19,-0.73,-2.79,-4.47,-82.34,-40.27,-17,-12.46,-38.84,-19.62,Standing
44:18.4,309,605,907.5,1001,447,1.29,776.04,2.18,60.41,447,788,122.6,476,15030,117143,2469,1.02,-0.07,0.04,-5.73,2.89,-8.12,-4.67,-83.84,-40.79,-16.91,-13.2,-39.35,-19.59,Standing
44:18.5,309,593,889.5,1001,448,1.28,779.13,2.19,60.41,447,784,122.6,476,15030,141975,3253,1.08,-0.06,0.01,-12.47,2.24,0.94,-3.67,-85.28,-42,-16.89,-13.03,-40.46,-19.62,Standing
44:18.6,213,578,867,1001,447,1.29,776.04,2.18,60.41,447,778,122.6,476,15030,157435,4031,1.06,-0.07,0.05,-2.89,1.55,0.41,-4.45,-83.69,-42.23,-16.93,-12.91,-40.72,-19.6,Standing
44:18.7,241,566,849,1001,447,1.29,776.04,2.18,60.41,447,777,122.6,476,15030,171340,4808,0.99,-0.06,0.04,-4.12,-1.06,-0.99,-4.31,-84.11,-42.59,-17.24,-12.93,-41.06,-19.92,Standing
44:18.8,242,554,831,1001,447,1.29,776.04,2.18,60.41,447,774,122.6,476,15030,180592,5582,1.03,-0.06,0.06,-3.59,1.35,-0.56,-3.81,-83.79,-42.9,-17.31,-12.9,-41.33,-19.97,Standing
44:18.9,255,544,816,1001,447,1.29,776.04,2.18,58.14,447,774,137.78,635,18983,0,0,1,-0.07,0.06,-1.89,0.08,-1.72,-4.73,-82.98,-43.03,-17.5,-12.99,-41.5,-20.12,Standing
44:19.0,286,535,802.5,1001,447,1.29,776.04,2.18,58.14,447,774,137.78,635,18983,9252,774,1.01,-0.07,0.06,-2.31,-0.09,0.48,-4.65,-83.28,-43.21,-17.71,-12.87,-41.66,-20.33,Standing
44:19.1,166,523,784.5,1001,447,1.29,776.04,2.18,58.14,447,777,137.78,635,18983,23157,1551,1.01,-0.07,0.05,-2.78,0.75,-1.26,-4.32,-83.57,-43.43,-17.84,-12.91,-41.86,-20.47,Standing
44:19.2,293,516,774,1001,447,1.29,776.04,2.18,58.14,447,778,137.78,635,18983,38617,2329,1.02,-0.07,0.05,-0.49,1.66,-2.03,-4.66,-83.38,-43.42,-17.87,-13.04,-41.87,-20.49,Standing
44:19.3,332,510,765,1001,447,1.29,776.04,2.18,58.14,447,777,137.78,635,18983,52522,3106,1,-0.07,0.07,-3.32,0.37,-2.68,-4.65,-82.59,-43.7,-18.03,-13.23,-42.14,-20.62,Standing
44:19.4,358,506,759,1001,448,1.28,779.13,2.19,58.14,447,775,137.78,635,18983,63323,3881,1.01,-0.06,0.07,-0.16,-0.12,-1.11,-4.04,-83.32,-43.66,-18.25,-13.26,-42.07,-20.85,Standing
44:19.5,374,502,753,1001,447,1.29,776.04,2.18,58.14,447,773,137.78,635,18983,71028,4654,1.01,-0.07,0.08,-0.71,3.16,0.11,-4.42,-82.64,-43.67,-18.13,-13.17,-42.1,-20.71,Standing
44:19.6,364,498,747,1001,447,1.29,776.04,2.18,58.14,447,776,137.78,635,18983,83380,5430,1,-0.07,0.07,-3.04,-0.23,-0.26,-4.6,-82.69,-43.92,-18.36,-13.12,-42.35,-20.93,Standing
44:19.7,379,495,742.5,1001,447,1.29,776.04,2.18,58.14,447,776,137.78,635,18983,95732,6206,1.01,-0.07,0.07,-0.85,1.07,-0.44,-4.44,-82.86,-43.95,-18.45,-13.08,-42.37,-21.03,Standing
44:19.8,426,493,739.5,1001,447,1.29,776.04,2.18,58.14,447,772,137.78,635,18983,101892,6978,1,-0.07,0.07,-1.58,1.98,-1.57,-4.48,-82.91,-44.06,-18.45,-13.16,-42.47,-21.03,Standing
44:19.9,475,493,739.5,1001,449,1.28,782.23,2.19,58.9,447,740,111.89,771,12519,0,0,1,-0.07,0.06,-2.94,0.23,0.17,-4.59,-83.15,-44.29,-18.63,-13.07,-42.71,-21.21,Standing
44:20.0,475,492,738,1001,447,1.29,776.04,2.18,58.9,447,507,111.89,771,12519,4294962201,507,1.01,-0.07,0.06,-3.56,-0.21,-0.56,-4.61,-83.3,-44.6,-18.85,-13.04,-43,-21.43,Standing
44:20.1,532,493,739.5,1001,448,1.28,779.13,2.19,58.9,447,312,111.89,771,12519,26713,819,1.01,-0.08,0.07,-3.67,0.71,-0.54,-5.25,-82.45,-44.91,-18.98,-13.02,-43.33,-21.52,Standing
44:20.2,550,495,742.5,1001,448,1.28,779.13,2.19,58.9,447,303,111.89,771,12519,52986,1122,1.01,-0.08,0.07,-1.97,2.4,0.06,-5.14,-82.47,-45.05,-18.94,-12.93,-43.46,-21.49,Standing
44:20.3,492,494,741,1001,448,1.28,779.13,2.19,58.9,447,299,111.89,771,12519,76851,1421,1.02,-0.08,0.07,1.09,0.86,0.62,-5.08,-82.49,-44.89,-19.06,-12.79,-43.3,-21.6,Standing
44:20.4,541,496,744,1001,447,1.29,776.04,2.18,58.9,447,298,111.89,771,12519,100119,1719,0.99,-0.08,0.07,-0.27,-0.12,-1.36,-5.3,-82.19,-44.86,-19.27,-12.85,-43.28,-21.79,Standing
44:20.5,558,497,745.5,1001,447,1.29,776.04,2.18,58.9,447,297,111.89,771,12519,122792,2016,1.02,-0.08,0.07,-1.99,1.7,-0.37,-4.9,-82.48,-45,-19.3,-12.81,-43.4,-21.83,Standing
44:20.6,567,498,747,1001,448,1.28,779.13,2.19,58.9,447,297,111.89,771,12519,145465,2313,1,-0.08,0.07,-1.89,1.72,-0.36,-5.32,-82.06,-45.14,-19.33,-12.76,-43.55,-21.84,Standing
44:20.7,573,500,750,1001,447,1.29,776.04,2.18,58.9,447,297,111.89,771,12519,168138,2610,1,-0.08,0.07,-2.21,1.37,-1.56,-5.3,-82.14,-45.3,-19.39,-12.84,-43.7,-21.9,Standing
44:20.8,496,500,750,1001,447,1.29,776.04,2.18,58.9,447,297,111.89,771,12519,190811,2907,1.01,-0.08,0.07,-2.06,1.36,-1.84,-5.38,-82.3,-45.46,-19.46,-12.95,-43.85,-21.97,Standing
44:20.9,528,500,750,1001,447,1.29,776.04,2.18,59.66,447,298,146.31,320,21406,0,0,1.02,-0.09,0.06,-2.4,1.01,-1.86,-5.61,-82.47,-45.64,-19.56,-13.05,-44.04,-22.07,Standing
44:21.0,551,501,751.5,1001,449,1.28,782.23,2.19,59.66,447,298,146.31,320,21406,23268,298,1.01,-0.08,0.07,-2.31,-0.12,-1.79,-5.01,-82.49,-45.81,-19.77,-13.15,-44.18,-22.28,Standing
44:21.1,548,502,753,1001,448,1.28,779.13,2.19,59.66,447,299,146.31,320,21406,47133,597,1.01,-0.07,0.08,-2.7,0.96,-1.37,-4.67,-82.34,-46.03,-19.88,-13.21,-44.37,-22.37,Standing
44:21.2,531,503,754.5,1001,448,1.28,779.13,2.19,59.66,447,299,146.31,320,21406,70998,896,1.01,-0.08,0.07,-3.17,1.71,-1.79,-5.14,-82.45,-46.29,-19.9,-13.31,-44.64,-22.41,Standing
44:21.3,495,503,754.5,1001,447,1.29,776.04,2.18,59.66,447,299,146.31,320,21406,94863,1195,1.01,-0.08,0.06,-2.63,1.37,-0.48,-5.4,-82.44,-46.5,-19.97,-13.28,-44.86,-22.47,Standing
44:21.4,481,502,753,1001,447,1.29,776.04,2.18,59.66,447,300,146.31,320,21406,119327,1495,1,-0.08,0.07,-1.34,0.75,0.8,-4.98,-82.34,-46.58,-20.09,-13.12,-44.92,-22.58,Standing
44:21.5,482,502,753,1001,448,1.28,779.13,2.19,59.66,447,301,146.31,320,21406,144392,1796,1.01,-0.08,0.06,-2.58,2.04,-1.66,-4.96,-82.75,-46.78,-20.09,-13.21,-45.11,-22.6,Standing
44:21.6,486,502,753,1001,448,1.28,779.13,2.19,59.66,447,301,146.31,320,21406,169457,2097,1.01,-0.08,0.06,-1.26,0.45,-0.21,-5.14,-82.71,-46.85,-20.25,-13.15,-45.19,-22.75,Standing
44:21.8,491,501,751.5,1001,447,1.29,776.04,2.18,59.66,447,301,146.31,320,21406,194522,2398,1.01,-0.08,0.07,-2.44,1.73,-1.19,-4.98,-82.48,-47.04,-20.27,-13.19,-45.36,-22.76,Standing
44:21.8,475,501,751.5,1001,448,1.28,779.13,2.19,59.66,447,302,146.31,320,21406,220190,2700,1,-0.08,0.07,-2.98,0.21,-0.83,-5.42,-82.1,-47.29,-20.46,-13.19,-45.61,-22.92,Standing
44:22.0,462,500,750,1001,447,1.29,776.04,2.18,61.86,447,302,156.8,300,24584,0,0,1.01,-0.08,0.06,-2.4,1.72,-0.02,-5.31,-82.64,-47.47,-20.48,-13.12,-45.78,-22.97,Standing
44:22.0,447,499,748.5,1001,447,1.29,776.04,2.18,61.86,447,303,156.8,300,24584,26273,303,1.01,-0.08,0.08,-1.18,-0.79,-1.39,-5.38,-81.81,-47.53,-20.76,-13.18,-45.85,-23.21,Standing
44:22.2,481,499,748.5,1001,447,1.29,776.04,2.18,61.86,447,303,156.8,300,24584,52546,606,1,-0.09,0.06,-3.04,2.21,-2.51,-5.67,-82.11,-47.78,-20.74,-13.35,-46.1,-23.2,Standing
44:22.3,491,499,748.5,1001,447,1.29,776.04,2.18,61.86,447,303,156.8,300,24584,78819,909,1.01,-0.09,0.07,-1.76,2.15,0.45,-5.65,-82,-47.9,-20.73,-13.23,-46.21,-23.18,Standing
44:22.4,492,499,748.5,1001,447,1.29,776.04,2.18,61.86,447,304,156.8,300,24584,105699,1213,0.99,-0.09,0.07,-0.75,0.76,-0.57,-5.49,-82.16,-47.92,-20.85,-13.21,-46.22,-23.31,Standing
44:22.5,489,499,748.5,1001,448,1.28,779.13,2.19,61.86,447,304,156.8,300,24584,132579,1517,1.02,-0.09,0.06,0.91,-1.63,-0.75,-5.47,-82.54,-47.77,-21.22,-13.2,-46.08,-23.67,Standing
44:22.6,483,498,747,1001,447,1.29,776.04,2.18,61.86,447,304,156.8,300,24584,159459,1821,1.01,-0.08,0.06,-2.33,0.91,-0.63,-5.37,-82.4,-47.95,-21.33,-13.19,-46.25,-23.77,Standing
44:22.7,469,498,747,1001,447,1.29,776.04,2.18,61.86,447,304,156.8,300,24584,186339,2125,1.01,-0.09,0.07,-2.77,2.86,-0.62,-5.74,-81.82,-48.17,-21.24,-13.17,-46.48,-23.67,Standing
44:22.8,497,498,747,1001,447,1.29,776.04,2.18,61.86,447,304,156.8,300,24584,213219,2429,1,-0.09,0.06,-1.91,2.93,-2.6,-5.56,-82.34,-48.31,-21.15,-13.35,-46.6,-23.6,Standing
44:22.9,507,498,747,1001,447,1.29,776.04,2.18,61.86,447,305,156.8,300,24584,240708,2734,1.01,-0.08,0.06,-2.44,0.31,-0.22,-5.31,-82.45,-48.5,-21.32,-13.29,-46.77,-23.76,Standing
44:23.0,510,498,747,1001,448,1.28,779.13,2.19,58.14,447,305,163.77,303,26818,0,0,1,-0.09,0.06,-2.12,0.48,-2.21,-5.92,-81.98,-48.66,-21.47,-13.44,-46.95,-23.89,Standing
44:23.1,508,498,747,1001,447,1.29,776.04,2.18,58.14,447,305,163.77,303,26818,27489,305,1.01,-0.08,0.07,-1.29,-0.58,-0.18,-5.35,-82.07,-48.73,-21.73,-13.38,-46.99,-24.14,Standing
44:23.2,508,499,748.5,1001,448,1.28,779.13,2.19,58.14,447,305,163.77,303,26818,54978,610,1.01,-0.08,0.07,-2.4,1.41,-1.64,-5.05,-82.36,-48.91,-21.79,-13.46,-47.16,-24.21,Standing
44:23.3,508,499,748.5,1001,447,1.29,776.04,2.18,58.14,447,305,163.77,303,26818,82467,915,1.01,-0.08,0.07,-1.77,0.52,-0.18,-5.2,-82.27,-49.04,-21.94,-13.4,-47.28,-24.35,Standing
44:23.4,523,499,748.5,1001,448,1.28,779.13,2.19,58.14,447,305,163.77,303,26818,109956,1220,1,-0.09,0.08,-2.4,2.02,-1.98,-5.59,-81.7,-49.22,-21.94,-13.52,-47.47,-24.33,Standing
44:23.5,535,499,748.5,1001,447,1.29,776.04,2.18,58.14,447,305,163.77,303,26818,137445,1525,1.01,-0.08,0.06,-1.89,1.37,-0.05,-5.15,-82.6,-49.35,-22,-13.44,-47.58,-24.43,Standing
44:23.6,539,500,750,1001,447,1.29,776.04,2.18,58.14,447,305,163.77,303,26818,164934,1830,1.01,-0.08,0.07,-3.02,0.82,-1.56,-5.15,-82.45,-49.6,-22.12,-13.52,-47.82,-24.53,Standing
44:23.7,515,500,750,1001,447,1.29,776.04,2.18,58.14,447,305,163.77,303,26818,192423,2135,1.01,-0.09,0.07,-1.92,0.08,-1.29,-5.58,-82.12,-49.74,-22.31,-13.57,-47.97,-24.71,Standing
44:23.8,498,500,750,1001,448,1.28,779.13,2.19,58.14,447,305,163.77,303,26818,219912,2440,1.02,-0.08,0.07,-4.02,1.84,0.48,-5.12,-82.54,-50.09,-22.33,-13.44,-48.29,-24.74,Standing
44:23.9,477,500,750,1001,448,1.28,779.13,2.19,58.14,447,306,163.77,303,26818,248012,2746,1,-0.08,0.07,-3.79,1.37,-0.95,-5.33,-82.22,-50.41,-22.39,-13.46,-48.61,-24.79,Standing
44:24.0,485,500,750,1001,447,1.29,776.04,2.18,59.66,447,305,165.98,305,27549,0,0,1.01,-0.1,0.07,-4.09,2.02,-0.32,-6.02,-81.71,-50.76,-22.39,-13.41,-48.97,-24.76,Standing
44:24.1,498,500,750,1001,448,1.28,779.13,2.19,59.66,447,305,165.98,305,27549,27489,305,1,-0.09,0.07,-3.59,1.79,-0.61,-5.96,-81.58,-51.07,-22.41,-13.4,-49.26,-24.78,Standing
44:24.2,494,500,750,1001,447,1.29,776.04,2.18,59.66,447,306,165.98,305,27549,55589,611,1.01,-0.09,0.08,-3.32,1.16,-0.5,-5.75,-81.59,-51.35,-22.5,-13.37,-49.52,-24.86,Standing
44:24.3,292,497,745.5,1001,448,1.28,779.13,2.19,59.66,447,305,165.98,305,27549,83078,916,1,-0.09,0.08,-4.31,0.8,-5.53,-5.58,-81.83,-51.73,-22.62,-13.84,-49.88,-24.99,Standing
44:24.4,248,494,741,1001,447,1.29,776.04,2.18,59.66,447,306,165.98,305,27549,111178,1222,0.99,-0.09,0.1,0.35,0.6,-5.83,-5.91,-80.75,-51.63,-22.76,-14.35,-49.8,-25.08,Standing
44:24.5,297,492,738,1001,447,1.29,776.04,2.18,59.66,447,306,165.98,305,27549,139278,1528,1.01,-0.07,0.07,-0.82,-4.72,-2.48,-4.74,-82.83,-51.66,-23.43,-14.52,-49.78,-25.81,Standing
44:24.6,374,490,735,1001,447,1.29,776.04,2.18,59.66,447,306,165.98,305,27549,167378,1834,0.99,-0.08,0.1,-3.37,3.38,-0.31,-4.99,-81.34,-51.94,-23.29,-14.47,-50.06,-25.61,Standing
44:27.1,612,612,918,612,448,1.28,779.13,2.19,0,0,307,0,0,0,57426,614,0.99,-0.13,0.09,-3.9,1.1,-0.19,-7.86,-79.63,-0.37,-0.07,0.09,-0.67,-3.25,Left Fall while Standing
44:27.2,606,609,913.5,612,448,1.28,779.13,2.19,0,0,307,0,0,0,86139,921,1.01,-0.13,0.08,-1.02,3.84,-2.05,-8.05,-79.56,-0.42,0.11,-0.03,-0.72,-3.08,Left Fall while Standing
44:27.3,583,600,900,612,447,1.29,776.04,2.18,0,0,307,0,0,0,114852,1228,1.01,-0.13,0.08,0.73,1.22,-1.1,-7.93,-79.94,-0.29,0.03,-0.06,-0.6,-3.16,Left Fall while Standing
44:27.4,561,590,885,612,448,1.28,779.13,2.19,0,0,307,0,0,0,143565,1535,1,-0.12,0.09,-1.45,0.47,0.82,-7.64,-79.62,-0.38,-0.11,0.09,-0.67,-3.29,Left Fall while Standing
44:27.5,545,581,871.5,612,447,1.29,776.04,2.18,0,0,307,0,0,0,172278,1842,1.04,-0.12,0.09,0.41,5.11,-4.03,-7.42,-80.01,-0.28,0.19,-0.22,-0.57,-3.02,Left Fall while Standing
44:27.6,547,575,862.5,612,447,1.29,776.04,2.18,0,0,307,0,0,0,200991,2149,0.99,-0.14,0.08,-2.95,-2.05,-13.41,-8.32,-79.37,-0.52,-0.21,-1.46,-0.83,-3.37,Left Fall while Standing
44:27.7,448,557,835.5,612,447,1.29,776.04,2.18,0,0,307,0,0,0,229704,2456,0.99,-0.12,0.07,-3.02,-3.61,-6.03,-7.7,-80.1,-0.76,-0.76,-1.97,-1.03,-3.93,Left Fall while Standing
44:27.8,398,537,805.5,612,447,1.29,776.04,2.18,0,0,307,0,0,0,258417,2763,0.98,-0.08,0.09,-15.56,-2.04,-4.69,-5.43,-81.41,-2.24,-1.16,-2.36,-2.37,-4.37,Left Fall while Standing
44:27.9,350,516,774,612,447,1.29,776.04,2.18,60.4,447,307,169.45,307,28712,0,0,1.02,-0.08,0.07,-13.56,6.82,-15,-5.23,-82.17,-3.52,-0.68,-3.75,-3.59,-3.94,Left Fall while Standing
44:28.0,375,502,753,612,447,1.29,776.04,2.18,60.4,447,306,169.45,307,28712,28100,306,0.99,-0.05,0.02,-7.22,1.39,-18.44,-3.52,-85.32,-4.18,-0.74,-5.5,-4.15,-4.13,Left Fall while Standing
44:28.1,436,496,744,612,448,1.28,779.13,2.19,60.4,447,307,169.45,307,28712,56813,613,1.02,-0.01,0.02,-8.14,-5.95,-19.78,-1.41,-87.03,-4.94,-1.55,-7.42,-4.8,-4.97,Left Fall while Standing
44:28.2,476,494,741,612,447,1.29,776.04,2.18,60.4,447,307,169.45,307,28712,85526,920,1,0.01,0.03,-16.5,2.61,-24.11,0.22,-86.64,-6.52,-1.49,-9.73,-6.25,-4.89,Left Fall while Standing
44:28.3,503,495,742.5,612,447,1.29,776.04,2.18,60.4,447,307,169.45,307,28712,114239,1227,0.99,0.04,0.05,-11.47,-4.18,-32.05,1.84,-84.65,-7.61,-2.1,-12.85,-7.23,-5.41,Left Fall while Standing
44:28.4,495,495,742.5,612,447,1.29,776.04,2.18,60.4,447,307,169.45,307,28712,142952,1534,0.97,0.08,0.07,-6.98,-8.33,-31.87,4.06,-82.2,-8.25,-3.14,-15.96,-7.76,-6.3,Left Fall while Standing
44:28.5,888,521,781.5,888,448,1.28,779.13,2.19,60.4,447,307,169.45,307,28712,171665,1841,1.02,0.09,0.06,-0.61,-9.63,-22.47,4.67,-82.17,-8.26,-4.3,-18.13,-7.74,-7.42,Left Fall while Standing
44:28.6,488,519,778.5,888,449,1.28,782.23,2.19,60.4,447,307,169.45,307,28712,200378,2148,1.01,0.14,0.07,-6.11,-8.62,-19.75,7.06,-79.8,-8.81,-5.36,-20.02,-8.18,-8.34,Left Fall while Standing
44:28.7,524,519,778.5,888,448,1.28,779.13,2.19,60.4,447,307,169.45,307,28712,229091,2455,0.97,0.21,0.02,-13.8,4.04,-13.4,11.63,-76.15,-10.14,-5.16,-21.29,-9.27,-8,Left Fall while Standing
44:28.8,495,518,777,888,448,1.28,779.13,2.19,60.4,447,307,169.45,307,28712,257804,2762,0.95,0.22,0.02,-6.19,6.74,-10.11,12.23,-75.57,-10.7,-4.69,-22.22,-9.78,-7.52,Left Fall while Standing
44:28.9,514,518,777,888,447,1.29,776.04,2.18,61.14,447,307,169.27,306,28650,0,0,0.94,0.26,-0.02,-0.02,-5.87,-9.83,14.98,-72.83,-10.65,-5.46,-23.11,-9.62,-8.16,Left Fall while Standing
44:29.0,460,515,772.5,888,447,1.29,776.04,2.18,61.14,447,307,169.27,306,28650,28713,307,0.99,0.31,0,-2.46,-10.31,-14.55,17.04,-70.8,-10.84,-6.7,-24.49,-9.72,-9.26,Left Fall while Standing
44:29.1,403,509,763.5,888,448,1.28,779.13,2.19,61.14,447,307,169.27,306,28650,57426,614,0.95,0.31,-0.06,-6.14,-1.49,-22.67,17.3,-70.17,-11.39,-7.04,-26.68,-10.25,-9.57,Left Fall while Standing
44:29.2,406,505,757.5,888,447,1.29,776.04,2.18,61.14,447,307,169.27,306,28650,86139,921,0.95,0.3,-0.04,-5.82,-1.73,-16.76,17.16,-70.5,-11.92,-7.42,-28.27,-10.76,-9.94,Left Fall while Standing
44:29.3,403,500,750,888,448,1.28,779.13,2.19,61.14,447,307,169.27,306,28650,114852,1228,0.96,0.31,-0.05,-9.19,-11.23,-12.99,17.4,-70.2,-12.79,-8.75,-29.51,-11.59,-11.21,Left Fall while Standing
44:29.4,396,496,744,888,447,1.29,776.04,2.18,61.14,447,307,169.27,306,28650,143565,1535,0.95,0.34,0.04,0.2,-11.81,-11.12,19.15,-68.58,-12.72,-10.15,-30.55,-11.44,-12.49,Left Fall while Standing
44:29.5,467,495,742.5,888,448,1.28,779.13,2.19,61.14,447,308,169.27,306,28650,172893,1843,0.96,0.36,-0.02,-5.15,-2.03,-15.89,20.19,-67.62,-13.17,-10.55,-32.06,-11.84,-12.83,Left Fall while Standing
44:29.6,908,511,766.5,908,449,1.28,782.23,2.19,61.14,447,308,169.27,306,28650,202221,2151,0.93,0.39,-0.05,-7.94,2.23,-12.99,22.04,-65.59,-13.93,-10.53,-33.3,-12.49,-12.73,Left Fall while Standing
44:29.7,518,511,766.5,908,448,1.28,779.13,2.19,61.14,447,308,169.27,306,28650,231549,2459,0.88,0.4,-0.05,-5.5,-8.1,-15.45,23.8,-63.87,-14.43,-11.55,-34.79,-12.9,-13.64,Left Fall while Standing
44:29.8,560,513,769.5,908,448,1.28,779.13,2.19,61.14,447,308,169.27,306,28650,260877,2767,0.93,0.43,-0.03,-0.89,-9.04,-14.84,24.49,-63.29,-14.46,-12.66,-36.2,-12.9,-14.69,Left Fall while Standing
44:29.9,529,513,769.5,908,448,1.28,779.13,2.19,62.59,447,308,170.35,307,29019,0,0,0.86,0.45,-0.08,-4.51,0.54,-18.52,27,-60.4,-14.85,-12.81,-37.96,-13.18,-14.71,Left Fall while Standing
44:30.0,563,515,772.5,908,447,1.29,776.04,2.18,62.59,447,308,170.35,307,29019,29328,308,0.9,0.51,-0.14,-13.37,-1.07,-17.16,28.71,-58.02,-16.14,-13.12,-39.61,-14.35,-14.91,Left Fall while Standing
44:30.1,579,517,775.5,908,448,1.28,779.13,2.19,62.59,447,307,170.35,307,29019,58041,615,0.86,0.52,-0.17,-13.79,-6.9,-19.15,29.93,-56.07,-17.48,-14.02,-41.47,-15.58,-15.7,Left Fall while Standing
44:30.2,861,528,792,908,448,1.28,779.13,2.19,62.59,447,308,170.35,307,29019,87369,923,0.91,0.54,-0.1,-8.69,-6.78,-17.16,29.91,-57.3,-18.29,-14.89,-43.1,-16.37,-16.59,Left Fall while Standing
44:30.3,586,529,793.5,908,448,1.28,779.13,2.19,62.59,447,308,170.35,307,29019,116697,1231,0.81,0.51,-0.06,-3.17,-3.53,-13.12,31.3,-56.32,-18.56,-15.45,-44.35,-16.56,-17.09,Left Fall while Standing
44:30.4,640,533,799.5,908,447,1.29,776.04,2.18,62.59,447,308,170.35,307,29019,146025,1539,0.84,0.58,-0.08,0.82,-6.31,-9.84,33.81,-53.68,-18.42,-16.3,-45.27,-16.33,-17.8,Left Fall while Standing
44:30.5,563,533,799.5,908,447,1.29,776.04,2.18,62.59,447,308,170.35,307,29019,175353,1847,0.84,0.58,-0.12,-1.67,-3.6,-14.5,33.98,-53.06,-18.53,-16.86,-46.64,-16.43,-18.31,Left Fall while Standing
44:30.6,588,535,802.5,908,448,1.28,779.13,2.19,62.59,447,308,170.35,307,29019,204681,2155,0.82,0.62,-0.14,-3.3,4.82,-10.37,35.85,-50.86,-18.8,-16.57,-47.61,-16.62,-17.95,Left Fall while Standing
44:30.7,556,535,802.5,908,447,1.29,776.04,2.18,62.59,447,308,170.35,307,29019,234009,2463,0.78,0.62,-0.14,-0.22,0.5,-10.25,37.76,-49.01,-18.77,-16.73,-48.57,-16.51,-18.02,Left Fall while Standing
44:30.8,582,537,805.5,908,447,1.29,776.04,2.18,62.59,447,308,170.35,307,29019,263337,2771,0.79,0.63,-0.12,1.05,-3.93,-7.05,37.58,-49.4,-18.61,-17.32,-49.19,-16.36,-18.6,Left Fall while Standing
44:30.9,606,538,807,908,447,1.29,776.04,2.18,59.66,447,309,171.25,308,29327,0,0,0.79,0.63,-0.13,-2.71,-0.56,-6.9,37.52,-49.32,-18.82,-17.57,-49.8,-16.57,-18.84,Left Fall while Standing
44:31.0,496,537,805.5,908,448,1.28,779.13,2.19,59.66,447,308,171.25,308,29327,29328,308,0.77,0.64,-0.1,-4.98,1.47,-5.15,38.94,-48.31,-19.27,-17.63,-50.24,-16.94,-18.85,Left Fall while Standing
44:31.1,539,537,805.5,908,447,1.29,776.04,2.18,59.66,447,308,171.25,308,29327,58656,616,0.76,0.67,-0.12,-4.07,-1.47,-5.08,40.3,-46.72,-19.62,-17.97,-50.67,-17.22,-19.12,Left Fall while Standing
44:31.2,520,537,805.5,908,447,1.29,776.04,2.18,59.66,447,308,171.25,308,29327,87984,924,0.77,0.65,-0.13,-2.01,1.5,-4.24,38.96,-47.9,-19.77,-18.02,-51.02,-17.42,-19.22,Left Fall while Standing
44:31.3,502,536,804,908,447,1.29,776.04,2.18,59.66,447,308,171.25,308,29327,117312,1232,0.78,0.66,-0.1,-2.02,-1.56,-1.34,39.38,-47.95,-19.91,-18.38,-51.07,-17.54,-19.56,Left Fall while Standing
44:31.4,547,536,804,908,447,1.29,776.04,2.18,59.66,447,309,171.25,308,29327,147257,1541,0.76,0.65,-0.11,-0.6,1.31,-4.38,39.59,-47.56,-19.92,-18.45,-51.43,-17.54,-19.61,Left Fall while Standing
44:31.5,499,536,804,908,448,1.28,779.13,2.19,59.66,447,307,171.25,308,29327,175970,1848,0.77,0.66,-0.11,-2.6,-1.39,-4.46,39.66,-47.47,-20.12,-18.79,-51.81,-17.73,-19.94,Left Fall while Standing
44:31.6,526,535,802.5,908,448,1.28,779.13,2.19,59.66,447,307,171.25,308,29327,204683,2155,0.74,0.66,-0.1,-2.02,0.44,-3.31,40.76,-46.45,-20.27,-18.95,-52.06,-17.83,-20.05,Left Fall while Standing
44:31.7,700,539,808.5,908,448,1.28,779.13,2.19,59.66,447,307,171.25,308,29327,233396,2462,0.74,0.66,-0.12,0.75,-0.24,-3.89,41.14,-45.89,-20.14,-19.17,-52.37,-17.69,-20.24,Left Fall while Standing
44:31.8,680,542,813,908,448,1.28,779.13,2.19,59.66,447,325,171.25,308,29327,207949,2787,0.75,0.69,-0.11,1.15,-2.31,-3.4,41.64,-45.5,-19.97,-19.61,-52.64,-17.5,-20.65,Left Fall while Standing
44:31.9,920,549,823.5,920,448,1.28,779.13,2.19,61.14,447,329,136.06,311,18510,0,0,0.74,0.68,-0.13,-0.66,-1.66,-3.03,41.21,-45.67,-19.97,-19.97,-52.86,-17.53,-21,Left Fall while Standing
44:32.0,736,553,829.5,920,448,1.28,779.13,2.19,61.14,447,340,136.06,311,18510,4294951824,340,0.72,0.67,-0.14,-1.11,3.21,-2.95,41.8,-44.89,-20.03,-19.85,-53.08,-17.56,-20.86,Left Fall while Standing
44:32.1,856,559,838.5,920,448,1.28,779.13,2.19,61.14,447,347,136.06,311,18510,4294941161,687,0.7,0.68,-0.13,-0.14,-0.37,-5,42.83,-43.98,-19.99,-20.1,-53.5,-17.47,-21.05,Left Fall while Standing
44:32.2,922,566,849,922,448,1.28,779.13,2.19,61.14,447,348,136.06,311,18510,4294931193,1035,0.72,0.67,-0.11,-2.76,0.65,-3.74,42.1,-45.01,-20.21,-20.23,-53.8,-17.72,-21.22,Left Fall while Standing
44:32.3,638,567,850.5,922,447,1.29,776.04,2.18,61.14,447,326,136.06,311,18510,4294906397,1361,0.72,0.67,-0.1,-2.5,1.48,-4.87,42.12,-45.15,-20.41,-20.28,-54.21,-17.9,-21.28,Left Fall while Standing
44:32.4,428,565,847.5,922,447,1.29,776.04,2.18,61.14,447,310,136.06,311,18510,4294936961,1671,0.72,0.68,-0.13,-2.62,-0.63,-3.07,42.22,-44.67,-20.62,-20.55,-54.45,-18.1,-21.52,Left Fall while Standing
44:32.5,219,559,838.5,922,447,1.29,776.04,2.18,61.14,447,341,136.06,311,18510,4294922170,2012,0.73,0.68,-0.11,-5.44,1.08,-1.83,42.12,-44.97,-21.11,-20.65,-54.55,-18.58,-21.62,Left Fall while Standing
44:32.6,339,555,832.5,922,448,1.28,779.13,2.19,61.14,447,318,136.06,311,18510,4294892222,2330,0.72,0.7,-0.08,-1.4,-1.01,-4.5,43.31,-44.19,-21.19,-20.95,-54.93,-18.61,-21.88,Left Fall while Standing
44:32.7,281,550,825,922,447,1.29,776.04,2.18,61.14,447,317,136.06,311,18510,4294861639,2647,0.72,0.68,-0.1,-1.98,-1.89,-1.6,42.66,-44.63,-21.34,-21.35,-55.01,-18.78,-22.28,Left Fall while Standing
44:32.8,196,544,816,922,447,1.29,776.04,2.18,61.14,447,314,136.06,311,18510,4294829163,2961,0.71,0.7,-0.1,-6.89,3.35,-0.24,43.89,-43.38,-21.98,-21.21,-54.96,-19.34,-22.1,Left Fall while Standing
44:32.9,266,539,808.5,922,447,1.29,776.04,2.18,59.66,447,327,20723.91,328,429480512,0,0,0.69,0.69,-0.12,-5.54,-0.44,-1.44,44.05,-42.97,-22.48,-21.46,-55.02,-19.82,-22.32,Left Fall while Standing
44:33.0,549,539,808.5,922,447,1.29,776.04,2.18,59.66,447,326,20723.91,328,429480512,4294942500,326,0.7,0.69,-0.13,-5.73,2.53,-2.11,43.31,-43.55,-23.01,-21.4,-55.16,-20.35,-22.29,Left Fall while Standing
44:33.1,586,540,810,922,447,1.29,776.04,2.18,59.66,447,323,20723.91,328,429480512,4294915757,649,0.7,0.71,-0.15,-3.58,-0.18,-2.28,43.96,-42.59,-23.32,-21.63,-55.31,-20.63,-22.46,Left Fall while Standing
44:33.2,919,546,819,922,448,1.28,779.13,2.19,59.66,447,325,20723.91,328,429480512,4294890310,974,0.7,0.69,-0.09,-2.62,-0.73,-3.36,43.84,-43.48,-23.53,-21.9,-55.57,-20.83,-22.77,Left Fall while Standing
44:33.3,543,546,819,922,447,1.29,776.04,2.18,59.66,447,323,20723.91,328,429480512,4294863567,1297,0.69,0.7,-0.11,-2.9,0.15,-1.03,44.4,-42.7,-23.77,-22.09,-55.6,-21.04,-22.92,Left Fall while Standing
44:33.4,584,547,820.5,922,447,1.29,776.04,2.18,59.66,447,323,20723.91,328,429480512,4294836824,1620,0.7,0.7,-0.11,-1.39,1.71,-1.06,44.04,-43.15,-23.85,-22.12,-55.63,-21.14,-22.97,Left Fall while Standing
44:33.5,515,546,819,922,447,1.29,776.04,2.18,59.66,447,322,20723.91,328,429480512,4294809436,1942,0.71,0.7,-0.11,-0.6,0.28,-1.85,43.83,-43.34,-23.86,-22.3,-55.73,-21.15,-23.14,Left Fall while Standing
44:33.6,557,546,819,922,448,1.28,779.13,2.19,59.66,447,322,20723.91,328,429480512,4294782048,2264,0.69,0.71,-0.08,-1.95,1.25,-3.73,45.14,-42.29,-24,-22.38,-56.04,-21.23,-23.17,Left Fall while Standing
44:33.7,474,545,817.5,922,447,1.29,776.04,2.18,59.66,447,313,20723.91,328,429480512,4294814481,2577,0.68,0.71,-0.11,-0.76,-0.5,-6.95,45.2,-41.96,-24.02,-22.63,-56.66,-21.25,-23.4,Left Fall while Standing
44:33.8,435,543,814.5,922,447,1.29,776.04,2.18,59.66,447,336,20723.91,328,429480512,4294796305,2913,0.64,0.71,-0.07,0.8,0.21,-10.67,47.23,-40.31,-23.88,-22.81,-57.67,-21.04,-23.51,Left Fall while Standing
44:33.9,437,542,813,922,447,1.29,776.04,2.18,58.14,447,312,20723.97,322,429482816,0,0,0.68,0.72,-0.12,-2.4,0.6,-6.31,45.85,-41.21,-24.07,-22.96,-58.23,-21.27,-23.69,Left Fall while Standing
44:34.0,272,538,807,922,447,1.29,776.04,2.18,58.14,447,305,20723.97,322,429482816,27489,305,0.67,0.71,-0.12,-1.98,0.91,-4.82,45.39,-41.56,-24.21,-23.07,-58.64,-21.43,-23.81,Left Fall while Standing
44:34.1,210,533,799.5,922,448,1.28,779.13,2.19,58.14,447,305,20723.97,322,429482816,54978,610,0.67,0.73,-0.12,1.66,3.73,-1.28,46.6,-40.39,-23.99,-22.89,-58.69,-21.16,-23.59,Left Fall while Standing
44:34.2,317,530,795,922,447,1.29,776.04,2.18,58.14,447,305,20723.97,322,429482816,82467,915,0.68,0.73,-0.13,1.74,-3.8,-3.51,46,-40.88,-23.75,-23.48,-58.96,-20.96,-24.18,Left Fall while Standing
44:34.3,282,527,790.5,922,447,1.29,776.04,2.18,58.14,447,307,20723.97,322,429482816,111180,1222,0.68,0.73,-0.13,-6.99,6.05,2.51,46.01,-40.84,-24.4,-23.07,-58.63,-21.59,-23.78,Left Fall while Standing
44:34.4,385,525,787.5,922,447,1.29,776.04,2.18,58.14,447,306,20723.97,322,429482816,139280,1528,0.67,0.75,-0.16,-2.23,-0.11,2.32,47.09,-39.38,-24.57,-23.29,-58.31,-21.71,-23.93,Left Fall while Standing
44:34.5,434,524,786,922,448,1.28,779.13,2.19,58.14,447,307,20723.97,322,429482816,167993,1835,0.7,0.73,-0.14,-4.36,1.3,3.82,44.7,-42.03,-24.96,-23.36,-57.85,-22.17,-24.11,Left Fall while Standing
44:34.6,497,524,786,922,448,1.28,779.13,2.19,58.14,447,309,20723.97,322,429482816,197938,2144,0.69,0.73,-0.13,-7.15,2.51,8.56,45.54,-41.41,-25.62,-23.31,-56.9,-22.77,-24.03,Left Fall while Standing
44:34.7,652,525,787.5,922,448,1.28,779.13,2.19,58.14,447,312,20723.97,322,429482816,229746,2456,0.69,0.71,-0.12,-3.92,-0.47,10.42,44.52,-42.55,-25.97,-23.56,-55.75,-23.15,-24.32,Left Fall while Standing
44:34.8,693,527,790.5,922,448,1.28,779.13,2.19,58.14,447,309,20723.97,322,429482816,259691,2765,0.73,0.68,-0.12,-5.73,6.29,10.44,42.02,-45.07,-26.49,-23.13,-54.61,-23.75,-24.01,Left Fall while Standing
44:34.9,705,530,795,922,448,1.28,779.13,2.19,61.14,447,309,170.19,307,28962,0,0,0.74,0.68,-0.1,-2.88,4.5,13.78,41.54,-45.76,-26.72,-22.88,-53.17,-23.99,-23.8,Left Fall while Standing
44:35.0,691,532,798,922,448,1.28,779.13,2.19,61.14,447,307,170.19,307,28962,28713,307,0.76,0.64,-0.1,-4.24,4.98,15.12,39.46,-47.84,-27.09,-22.58,-51.57,-24.43,-23.59,Left Fall while Standing
44:35.1,624,533,799.5,922,449,1.28,782.23,2.19,61.14,447,307,170.19,307,28962,57426,614,0.77,0.63,-0.1,-4.23,4.39,15.06,38.67,-48.54,-27.46,-22.34,-49.98,-24.81,-23.39,Left Fall while Standing
44:35.2,613,534,801,922,448,1.28,779.13,2.19,61.14,447,307,170.19,307,28962,86139,921,0.78,0.61,-0.1,-1.15,4.86,15.84,37.49,-49.77,-27.52,-22.06,-48.32,-24.92,-23.16,Left Fall while Standing
44:35.3,598,534,801,922,449,1.28,782.23,2.19,61.14,447,308,170.19,307,28962,115467,1229,0.81,0.58,-0.08,0.44,6.64,17.6,34.82,-52.61,-27.42,-21.59,-46.46,-24.93,-22.83,Left Fall while Standing
44:35.4,610,535,802.5,922,448,1.28,779.13,2.19,61.14,447,307,170.19,307,28962,144180,1536,0.83,0.57,-0.08,1.32,4.31,15.83,34.01,-53.49,-27.23,-21.36,-44.8,-24.78,-22.64,Left Fall while Standing
44:35.5,569,536,804,922,448,1.28,779.13,2.19,61.14,447,307,170.19,307,28962,172893,1843,0.86,0.53,-0.07,-3.02,7.83,17.24,31.07,-56.43,-27.48,-20.77,-42.98,-25.13,-22.19,Left Fall while Standing
44:35.6,525,536,804,922,448,1.28,779.13,2.19,61.14,447,307,170.19,307,28962,201606,2150,0.87,0.51,-0.08,-2.56,5.79,19.2,29.38,-58.06,-27.68,-20.38,-40.96,-25.4,-21.89,Left Fall while Standing
44:35.7,527,535,802.5,922,448,1.28,779.13,2.19,61.14,447,307,170.19,307,28962,230319,2457,0.9,0.47,-0.05,-2.27,3.31,19.73,26.93,-60.74,-27.85,-20.25,-38.91,-25.66,-21.87,Left Fall while Standing
44:35.8,533,535,802.5,922,448,1.28,779.13,2.19,61.14,447,307,170.19,307,28962,259032,2764,0.91,0.45,-0.05,-7.74,10.75,22.34,25.78,-61.88,-28.57,-19.37,-36.57,-26.4,-21.07,Left Fall while Standing
44:35.9,463,535,802.5,922,447,1.29,776.04,2.18,64.69,448,307,169.63,307,28773,0,0,0.92,0.4,-0.05,-4.63,6.56,22.09,23.12,-64.49,-28.98,-18.92,-34.31,-26.89,-20.74,Left Fall while Standing
44:36.0,436,534,801,922,448,1.28,779.13,2.19,64.69,448,307,169.63,307,28773,28713,307,0.92,0.36,-0.04,0.47,6.13,21.47,20.76,-66.96,-28.88,-18.5,-32.08,-26.89,-20.44,Left Fall while Standing
44:36.1,170,530,795,922,447,1.29,776.04,2.18,64.69,448,307,169.63,307,28773,57426,614,0.91,0.33,0,-0.42,6.48,22.14,19.36,-68.48,-28.86,-18.05,-29.76,-26.93,-20.07,Left Fall while Standing
44:36.2,171,526,789,922,447,1.29,776.04,2.18,64.69,448,307,169.63,307,28773,86139,921,0.96,0.3,0.01,0.31,4.87,18.8,17.01,-70.83,-28.77,-17.76,-27.8,-26.94,-19.89,Left Fall while Standing
44:36.3,243,523,784.5,922,447,1.29,776.04,2.18,64.69,448,308,169.63,307,28773,115467,1229,0.97,0.26,0.01,-2.41,6.87,16.73,14.41,-73.42,-28.96,-17.28,-26.05,-27.23,-19.52,Left Fall while Standing
44:36.4,226,519,778.5,922,447,1.29,776.04,2.18,64.69,448,307,169.63,307,28773,144180,1536,0.98,0.24,0.01,2.21,3.23,13.71,13.01,-74.82,-28.68,-17.15,-24.59,-27.01,-19.46,Left Fall while Standing
44:36.5,407,518,777,922,447,1.29,776.04,2.18,64.69,448,307,169.63,307,28773,172893,1843,0.99,0.19,0.01,3.61,4.06,17.23,10.09,-77.73,-28.26,-16.95,-22.79,-26.73,-19.38,Left Fall while Standing
44:36.6,540,518,777,922,448,1.28,779.13,2.19,64.69,448,308,169.63,307,28773,202221,2151,1,0.19,-0.01,2.98,4.28,16.08,10.05,-77.78,-27.91,-16.72,-21.1,-26.39,-19.16,Left Fall while Standing
44:36.7,630,520,780,922,448,1.28,779.13,2.19,64.69,448,308,169.63,307,28773,231549,2459,0.98,0.16,0,0.83,5.13,10.47,8.79,-79.04,-27.77,-16.4,-19.96,-26.31,-18.91,Left Fall while Standing
44:36.8,583,520,780,922,447,1.29,776.04,2.18,64.69,448,308,169.63,307,28773,260877,2767,1.02,0.13,0.02,2.97,3.89,6.73,6.77,-80.94,-27.41,-16.21,-19.21,-26.05,-18.8,Left Fall while Standing
44:36.9,610,521,781.5,922,449,1.28,782.23,2.19,60.4,447,308,170.35,307,29019,0,0,1.02,0.12,0.01,-0.94,5.57,10.31,5.9,-81.91,-27.45,-15.86,-18.12,-26.12,-18.51,Left Fall while Standing
44:37.0,631,522,783,922,448,1.28,779.13,2.19,60.4,447,307,170.35,307,29019,28713,307,1.02,0.11,0.01,0.22,2.66,11.85,5.5,-82.31,-27.37,-15.8,-16.85,-26.06,-18.46,Left Fall while Standing
44:37.1,579,522,783,922,447,1.29,776.04,2.18,60.4,447,308,170.35,307,29019,58041,615,1.02,0.09,0.02,2.04,4.69,9.1,4.29,-83.45,-27.12,-15.53,-15.87,-25.86,-18.25,Left Fall while Standing
44:37.2,592,522,783,922,448,1.28,779.13,2.19,60.4,447,307,170.35,307,29019,86754,922,1.01,0.06,0.04,1.76,7.8,7.26,2.78,-84.34,-26.89,-14.96,-15.07,-25.7,-17.73,Left Fall while Standing
44:37.3,659,523,784.5,922,448,1.28,779.13,2.19,60.4,447,308,170.35,307,29019,116082,1230,1.01,0.05,0.05,-2.24,5.4,6.03,2.53,-84.07,-27.06,-14.61,-14.38,-25.87,-17.39,Left Fall while Standing
44:37.4,609,523,784.5,922,448,1.28,779.13,2.19,60.4,447,308,170.35,307,29019,145410,1538,1.01,0.04,0.05,-3.89,5.99,4.6,1.59,-84.86,-27.39,-14.21,-13.84,-26.23,-17.04,Left Fall while Standing
44:37.5,586,523,784.5,922,447,1.29,776.04,2.18,60.4,447,307,170.35,307,29019,174123,1845,0.99,0.03,0.07,-1.51,2.98,4.79,1.08,-83.95,-27.48,-14.11,-13.28,-26.34,-16.91,Left Fall while Standing
44:37.6,546,523,784.5,922,447,1.29,776.04,2.18,60.4,447,308,170.35,307,29019,203451,2153,1.01,0.02,0.07,-2.4,3.43,1.53,0.45,-84.41,-27.67,-13.97,-13.05,-26.55,-16.79,Left Fall while Standing
44:37.7,506,524,786,922,448,1.28,779.13,2.19,60.4,447,307,170.35,307,29019,232164,2460,1.01,0.01,0.07,1.35,2.67,2.11,0.16,-84.51,-27.48,-13.9,-12.76,-26.38,-16.73,Left Fall while Standing
44:45.7,603,603,904.5,603,448,1.28,779.13,2.19,0,0,310,0,0,0,61749,621,1,-0.12,0.12,0.39,0.82,1.99,-7.35,-78.72,0.21,-0.34,0.72,-0.1,-3.47,Right Fall while Standing
44:45.8,619,611,916.5,619,448,1.28,779.13,2.19,0,0,310,0,0,0,92313,931,1,-0.12,0.11,-0.94,0.65,1.02,-7.41,-79.23,0.17,-0.47,0.89,-0.13,-3.62,Right Fall while Standing
44:45.9,556,592,888,619,448,1.28,779.13,2.19,0,0,310,0,0,0,122877,1241,1,-0.14,0.11,-2.12,1.15,-0.1,-8.25,-78.52,0.02,-0.55,0.96,-0.31,-3.67,Right Fall while Standing
44:46.0,577,588,882,619,448,1.28,779.13,2.19,0,0,310,0,0,0,153441,1551,1,-0.13,0.12,-2.9,-0.19,0.32,-8.17,-78.36,-0.21,-0.77,1.07,-0.53,-3.87,Right Fall while Standing
44:46.1,610,593,889.5,619,448,1.28,779.13,2.19,0,0,311,0,0,0,184626,1862,0.99,-0.14,0.11,-3.2,-0.36,2.27,-8.79,-77.94,-0.47,-1,1.37,-0.8,-4.08,Right Fall while Standing
44:46.2,594,593,889.5,619,448,1.28,779.13,2.19,0,0,310,0,0,0,215190,2172,1.01,-0.15,0.12,-1.67,-0.69,6.76,-8.95,-77.71,-0.58,-1.26,2.1,-0.91,-4.32,Right Fall while Standing
44:46.3,593,593,889.5,619,448,1.28,779.13,2.19,0,0,312,0,0,0,246998,2484,1,-0.16,0.09,-0.42,-0.31,10.24,-9.66,-78.03,-0.56,-1.49,3.17,-0.93,-4.55,Right Fall while Standing
44:46.4,597,593,889.5,619,448,1.28,779.13,2.19,0,0,314,0,0,0,214522,2798,0.99,-0.18,0.1,0.78,2.77,15.07,-10.97,-76.56,-0.43,-1.41,4.74,-0.85,-4.42,Right Fall while Standing
44:46.5,520,585,877.5,619,448,1.28,779.13,2.19,64.69,448,314,134.92,311,18203,0,0,0.98,-0.21,0.09,7.66,0.72,16.53,-12.41,-75.43,0.37,-1.53,6.44,-0.14,-4.49,Right Fall while Standing
44:46.6,594,586,879,619,448,1.28,779.13,2.19,64.69,448,319,134.92,311,18203,4294937985,319,0.98,-0.25,0.12,12.93,-1.08,21.32,-14.56,-72.73,1.72,-1.84,8.65,1.07,-4.68,Right Fall while Standing
44:46.7,571,584,876,619,447,1.29,776.04,2.18,64.69,448,311,134.92,311,18203,1874,630,0.99,-0.24,0.11,13.8,-2.47,15.79,-13.9,-73.8,3.14,-2.28,10.29,2.46,-5.15,Right Fall while Standing
44:46.8,455,574,861,619,448,1.28,779.13,2.19,64.69,448,309,134.92,311,18203,31819,939,0.99,-0.26,0.11,17.84,0.96,3.41,-15.11,-72.52,4.98,-2.39,10.71,4.18,-5.19,Right Fall while Standing
44:46.9,422,562,843,619,447,1.29,776.04,2.18,64.69,448,310,134.92,311,18203,62383,1249,0.98,-0.29,0.13,13.2,1.4,1.61,-16.81,-70.53,6.33,-2.45,10.95,5.41,-5.17,Right Fall while Standing
44:47.0,572,563,844.5,619,447,1.29,776.04,2.18,64.69,448,318,134.92,311,18203,32435,1567,0.98,-0.27,0.12,5.54,2.04,2.44,-15.81,-71.57,6.94,-2.44,11.27,6.03,-5.21,Right Fall while Standing
44:47.1,359,549,823.5,619,447,1.29,776.04,2.18,64.69,448,316,134.92,311,18203,1219,1883,0.96,-0.3,0.11,1.69,1.37,2.77,-18,-69.76,7.16,-2.51,11.62,6.16,-5.2,Right Fall while Standing
44:47.2,459,543,814.5,619,447,1.29,776.04,2.18,64.69,448,311,134.92,311,18203,32404,2194,0.96,-0.3,0.14,4.29,0.6,8.37,-17.54,-69.66,7.64,-2.65,12.53,6.64,-5.33,Right Fall while Standing
44:47.3,418,536,804,619,448,1.28,779.13,2.19,64.69,448,310,134.92,311,18203,62968,2504,0.94,-0.31,0.13,4.82,-0.11,8.48,-18.39,-69.01,8.17,-2.85,13.45,7.11,-5.5,Right Fall while Standing
44:47.4,467,532,798,619,447,1.29,776.04,2.18,64.69,448,315,134.92,311,18203,31121,2819,0.95,-0.32,0.13,-1.18,-3.23,7.58,-18.82,-68.7,8.11,-3.38,14.28,7.04,-5.99,Right Fall while Standing
44:47.5,431,527,790.5,619,447,1.29,776.04,2.18,58.9,447,316,20724.3,313,429496704,0,0,0.95,-0.36,0.13,-6.6,2.01,7.83,-21.13,-66.49,7.52,-3.38,15.14,6.37,-5.9,Right Fall while Standing
44:47.6,460,523,784.5,619,447,1.29,776.04,2.18,58.9,447,311,20724.3,313,429496704,31185,311,0.93,-0.37,0.14,1.23,-1.5,6.85,-21.78,-65.74,7.69,-3.72,15.89,6.51,-6.2,Right Fall while Standing
44:47.7,437,519,778.5,619,447,1.29,776.04,2.18,58.9,447,312,20724.3,313,429496704,62993,623,0.92,-0.38,0.13,5,0.91,9.32,-22.73,-64.85,8.25,-3.83,16.92,7.02,-6.27,Right Fall while Standing
44:47.8,466,517,775.5,619,447,1.29,776.04,2.18,58.9,447,309,20724.3,313,429496704,92938,932,0.94,-0.38,0.15,4.17,-0.36,9.24,-22.43,-64.89,8.73,-4.07,17.92,7.48,-6.5,Right Fall while Standing
44:47.9,448,514,771,619,447,1.29,776.04,2.18,58.9,447,316,20724.3,313,429496704,61722,1248,0.88,-0.34,0.15,-1.24,-3.44,7.35,-21.75,-65.22,8.66,-4.62,18.74,7.44,-7.04,Right Fall while Standing
44:48.0,577,516,774,619,447,1.29,776.04,2.18,58.9,447,311,20724.3,313,429496704,92907,1559,0.95,-0.41,0.17,-0.81,0.53,7.43,-23.72,-63.19,8.63,-4.77,19.56,7.34,-7.1,Right Fall while Standing
44:48.1,368,510,765,619,447,1.29,776.04,2.18,58.9,447,312,20724.3,313,429496704,124715,1871,0.91,-0.4,0.16,-0.05,1.87,6.87,-24.12,-62.93,8.69,-4.78,20.33,7.37,-7.1,Right Fall while Standing
44:48.2,521,511,766.5,619,448,1.28,779.13,2.19,58.9,447,317,20724.3,313,429496704,94132,2188,0.91,-0.41,0.13,2.2,4.09,4.71,-24.66,-63.13,8.96,-4.57,20.88,7.62,-6.91,Right Fall while Standing
44:48.3,565,513,769.5,619,447,1.29,776.04,2.18,58.9,447,315,20724.3,313,429496704,62285,2503,0.88,-0.43,0.14,2.28,1.98,4.63,-26.28,-61.26,9.25,-4.57,21.43,7.83,-6.84,Right Fall while Standing
44:48.4,552,514,771,619,447,1.29,776.04,2.18,58.9,447,309,20724.3,313,429496704,92230,2812,0.91,-0.43,0.14,0.6,3.51,3.95,-25.49,-62.01,9.36,-4.42,21.9,7.97,-6.72,Right Fall while Standing
44:48.5,476,513,769.5,619,448,1.28,779.13,2.19,58.14,447,309,110.53,312,12216,0,0,0.86,-0.48,0.23,-5.33,4.02,1.59,-28.79,-56.84,8.89,-4.22,22.13,7.38,-6.32,Right Fall while Standing
44:48.6,393,509,763.5,619,448,1.28,779.13,2.19,58.14,447,308,110.53,312,12216,29328,308,0.89,-0.47,0.14,-0.65,0.55,4.51,-28.42,-59.3,8.88,-4.36,22.66,7.39,-6.56,Right Fall while Standing
44:48.7,382,505,757.5,619,447,1.29,776.04,2.18,58.14,447,308,110.53,312,12216,58656,616,0.89,-0.47,0.13,-0.27,-2.58,4,-27.99,-59.83,8.91,-4.82,23.13,7.43,-7.02,Right Fall while Standing
44:48.8,433,502,753,619,447,1.29,776.04,2.18,58.14,447,307,110.53,312,12216,87369,923,0.89,-0.48,0.13,-5.31,0.23,4.27,-28.5,-59.41,8.44,-4.99,23.64,6.96,-7.17,Right Fall while Standing
44:48.9,459,501,751.5,619,447,1.29,776.04,2.18,58.14,447,307,110.53,312,12216,116082,1230,0.88,-0.5,0.13,-2.93,-1.1,5.64,-29.77,-58.13,8.2,-5.3,24.27,6.68,-7.41,Right Fall while Standing
44:49.0,514,502,753,619,448,1.28,779.13,2.19,58.14,447,307,110.53,312,12216,144795,1537,0.87,-0.5,0.13,-3.29,-1.75,4.76,-30.38,-57.58,7.93,-5.67,24.82,6.4,-7.75,Right Fall while Standing
44:49.1,553,503,754.5,619,447,1.29,776.04,2.18,58.14,447,307,110.53,312,12216,173508,1844,0.87,-0.49,0.14,-3.45,-1.91,3.05,-29.84,-57.81,7.64,-6.06,25.21,6.14,-8.13,Right Fall while Standing
44:49.2,939,515,772.5,939,448,1.28,779.13,2.19,58.14,447,308,110.53,312,12216,202836,2152,0.85,-0.52,0.11,-3.92,0.01,2.73,-31.72,-56.49,7.31,-6.26,25.55,5.75,-8.27,Right Fall while Standing
44:49.3,559,516,774,939,448,1.28,779.13,2.19,58.14,447,308,110.53,312,12216,232164,2460,0.86,-0.52,0.11,-5.05,-3.73,3.44,-31.69,-56.58,6.86,-6.83,25.98,5.32,-8.82,Right Fall while Standing
44:49.4,633,519,778.5,939,448,1.28,779.13,2.19,58.14,447,308,110.53,312,12216,261492,2768,0.85,-0.53,0.1,-7.24,-0.29,5.67,-32.34,-56.01,6.19,-7.06,26.62,4.65,-9.02,Right Fall while Standing
44:49.5,619,522,783,939,448,1.28,779.13,2.19,61.14,447,308,170.53,307,29081,0,0,0.88,-0.53,0.09,-7.37,0.37,6.96,-31.74,-56.72,5.52,-7.22,27.38,4.03,-9.2,Right Fall while Standing
44:49.6,634,525,787.5,939,448,1.28,779.13,2.19,61.14,447,308,170.53,307,29081,29328,308,0.87,-0.58,0.11,-7.07,1.79,6.39,-33.91,-54.45,4.88,-7.24,28.09,3.33,-9.13,Right Fall while Standing
44:49.7,601,526,789,939,447,1.29,776.04,2.18,61.14,447,308,170.53,307,29081,58656,616,0.84,-0.58,0.1,-0.18,3.37,9.11,-34.99,-53.44,4.92,-7.11,29.06,3.32,-8.96,Right Fall while Standing
44:49.8,797,533,799.5,939,449,1.28,782.23,2.19,61.14,447,308,170.53,307,29081,87984,924,0.89,-0.56,0.03,5.13,-1.44,5.95,-32.87,-56.07,5.49,-7.45,29.74,3.95,-9.4,Right Fall while Standing
44:49.9,543,533,799.5,939,447,1.29,776.04,2.18,61.14,447,309,170.53,307,29081,117929,1233,0.82,-0.59,0.12,-0.17,-2.12,4.63,-36.27,-51.95,5.52,-7.86,30.27,3.85,-9.62,Right Fall while Standing
44:50.0,575,534,801,939,447,1.29,776.04,2.18,61.14,447,309,170.53,307,29081,147874,1542,0.82,-0.58,0.09,-1.16,-4.23,1.75,-35.76,-52.8,5.46,-8.48,30.53,3.82,-10.25,Right Fall while Standing
44:50.1,503,533,799.5,939,448,1.28,779.13,2.19,61.14,447,308,170.53,307,29081,177202,1850,0.83,-0.58,0.07,-4,-5.3,1.42,-35.46,-53.21,5.12,-9.21,30.75,3.5,-10.97,Right Fall while Standing
44:50.2,507,533,799.5,939,447,1.29,776.04,2.18,61.14,447,308,170.53,307,29081,206530,2158,0.83,-0.59,0.07,-7.49,-0.28,3.62,-35.94,-52.78,4.43,-9.44,31.19,2.82,-11.17,Right Fall while Standing
44:50.3,526,533,799.5,939,447,1.29,776.04,2.18,61.14,447,308,170.53,307,29081,235858,2466,0.82,-0.6,0.07,-5.63,-0.08,4.77,-36.58,-52.17,3.93,-9.65,31.74,2.31,-11.35,Right Fall while Standing
44:50.4,516,532,798,939,448,1.28,779.13,2.19,61.14,447,308,170.53,307,29081,265186,2774,0.8,-0.61,0.05,-9.45,0.18,5.17,-37.7,-51.15,3.04,-9.83,32.34,1.41,-11.48,Right Fall while Standing
44:50.5,488,531,796.5,939,448,1.28,779.13,2.19,61.14,447,308,171.61,308,29450,0,0,0.81,-0.62,0.07,-8.38,-2.44,4.23,-37.8,-50.93,2.27,-10.26,32.83,0.67,-11.89,Right Fall while Standing
44:50.6,503,531,796.5,939,447,1.29,776.04,2.18,61.14,447,308,171.61,308,29450,29328,308,0.81,-0.64,0.03,-6.66,2.56,5.89,-38.86,-50.08,1.66,-10.21,33.5,0.04,-11.8,Right Fall while Standing
44:50.7,508,530,795,939,447,1.29,776.04,2.18,61.14,447,308,171.61,308,29450,58656,616,0.78,-0.66,0.01,-2.29,0.71,5.44,-40.73,-48.26,1.49,-10.34,34.12,-0.2,-11.85,Right Fall while Standing
44:50.8,491,530,795,939,448,1.28,779.13,2.19,61.14,447,308,171.61,308,29450,87984,924,0.78,-0.67,0.04,-1.92,0.61,2.76,-41.03,-47.9,1.36,-10.47,34.47,-0.34,-11.97,Right Fall while Standing
44:50.9,471,528,792,939,447,1.29,776.04,2.18,61.14,447,307,171.61,308,29450,116697,1231,0.79,-0.66,0.04,-4.6,1.82,1.52,-40.29,-48.62,0.95,-10.49,34.7,-0.7,-12.02,Right Fall while Standing
44:51.0,475,527,790.5,939,447,1.29,776.04,2.18,61.14,447,307,171.61,308,29450,145410,1538,0.79,-0.67,0.04,-3.83,1.51,-1.53,-40.85,-48.07,0.62,-10.54,34.63,-1.03,-12.04,Right Fall while Standing
44:51.1,486,527,790.5,939,447,1.29,776.04,2.18,61.14,447,308,171.61,308,29450,174738,1846,0.78,-0.66,0.03,0.15,2.12,-2.02,-40.88,-48.05,0.69,-10.53,34.5,-0.97,-12.03,Right Fall while Standing
44:51.2,475,526,789,939,447,1.29,776.04,2.18,61.14,447,308,171.61,308,29450,204066,2154,0.77,-0.66,0.04,-2.42,-0.71,-1.79,-41.21,-47.7,0.51,-10.8,34.4,-1.16,-12.28,Right Fall while Standing
44:51.3,492,525,787.5,939,447,1.29,776.04,2.18,61.14,447,308,171.61,308,29450,233394,2462,0.78,-0.67,0.04,-3.53,-1.53,-1.27,-40.89,-48.02,0.21,-11.16,34.35,-1.43,-12.63,Right Fall while Standing
44:51.4,507,525,787.5,939,447,1.29,776.04,2.18,61.14,447,308,171.61,308,29450,262722,2770,0.8,-0.66,0.05,-1.53,-0.36,-1.8,-40.08,-48.8,0.11,-11.39,34.25,-1.49,-12.89,Right Fall while Standing
44:51.5,508,525,787.5,939,447,1.29,776.04,2.18,57.36,447,308,170.89,307,29204,0,0,0.78,-0.67,0.04,-1.91,1.79,-0.17,-41.04,-47.87,-0.02,-11.41,34.31,-1.66,-12.87,Right Fall while Standing
44:51.6,490,524,786,939,447,1.29,776.04,2.18,57.36,447,308,170.89,307,29204,29328,308,0.78,-0.66,0.03,-1.4,0.79,-1.2,-40.64,-48.29,-0.1,-11.53,34.27,-1.73,-13,Right Fall while Standing
44:51.7,511,524,786,939,447,1.29,776.04,2.18,57.36,447,308,170.89,307,29204,58656,616,0.79,-0.64,0.04,-2.56,2.63,-4.14,-39.52,-49.4,-0.3,-11.47,33.94,-1.87,-12.99,Right Fall while Standing
44:51.8,362,521,781.5,939,447,1.29,776.04,2.18,57.36,447,308,170.89,307,29204,87984,924,0.84,-0.68,0.05,2.48,4.78,-16.87,-39.53,-49.36,0,-11.19,32.32,-1.58,-12.72,Right Fall while Standing
44:51.9,476,520,780,939,447,1.29,776.04,2.18,57.36,447,308,170.89,307,29204,117312,1232,0.83,-0.61,0.04,0.03,-8.15,-10.09,-36.7,-52.21,0.06,-12.2,31.39,-1.41,-13.8,Right Fall while Standing
44:52.0,493,520,780,939,448,1.28,779.13,2.19,57.36,447,308,170.89,307,29204,146640,1540,0.8,-0.63,0.02,-9.15,2.81,-14.31,-38.58,-50.4,-0.8,-12.12,30.04,-2.31,-13.65,Right Fall while Standing
44:52.1,398,518,777,939,447,1.29,776.04,2.18,57.36,447,308,170.89,307,29204,175968,1848,0.84,-0.61,0.04,2.73,-1.21,-14.55,-36.7,-52.22,-0.46,-12.45,28.65,-1.91,-14.04,Right Fall while Standing
44:52.2,475,517,775.5,939,448,1.28,779.13,2.19,57.36,447,308,170.89,307,29204,205296,2156,0.85,-0.57,0.05,-1.6,0.13,-14.45,-34.28,-54.57,-0.57,-12.63,27.28,-1.92,-14.31,Right Fall while Standing
44:52.3,555,518,777,939,447,1.29,776.04,2.18,57.36,447,308,170.89,307,29204,234624,2464,0.86,-0.54,0.04,-2.1,-1.37,-17.99,-32.89,-56.01,-0.72,-12.97,25.56,-2.01,-14.69,Right Fall while Standing
44:52.4,590,519,778.5,939,447,1.29,776.04,2.18,57.36,447,308,170.89,307,29204,263952,2772,0.86,-0.52,0.03,-1.63,-3.13,-19.84,-31.82,-57.14,-0.83,-13.49,23.64,-2.07,-15.24,Right Fall while Standing
44:52.5,553,520,780,939,447,1.29,776.04,2.18,58.14,447,308,171.25,308,29327,0,0,0.89,-0.49,0.01,-5.79,-2.92,-16.98,-29.42,-59.57,-1.35,-13.98,22.03,-2.47,-15.8,Right Fall while Standing
44:52.6,557,520,780,939,448,1.28,779.13,2.19,58.14,447,308,171.25,308,29327,29328,308,0.9,-0.47,0.01,-5.11,-5.24,-17.5,-28.37,-60.62,-1.8,-14.7,20.36,-2.87,-16.54,Right Fall while Standing
44:52.7,538,520,780,939,447,1.29,776.04,2.18,58.14,447,309,171.25,308,29327,59273,617,0.95,-0.47,-0.01,-5.66,-4.15,-20.17,-26.6,-62.4,-2.32,-15.32,18.4,-3.29,-17.21,Right Fall while Standing
44:52.8,537,521,781.5,939,448,1.28,779.13,2.19,58.14,447,309,171.25,308,29327,89218,926,0.96,-0.43,0,-4.24,-2.73,-22.73,-24.97,-64.03,-2.69,-15.8,16.21,-3.58,-17.73,Right Fall while Standing
44:52.9,509,520,780,939,447,1.29,776.04,2.18,58.14,447,309,171.25,308,29327,119163,1235,0.93,-0.4,0,-6.34,-1.71,-21.19,-23.79,-65.21,-3.27,-16.17,14.15,-4.09,-18.13,Right Fall while Standing
44:53.0,542,521,781.5,939,447,1.29,776.04,2.18,58.14,447,309,171.25,308,29327,149108,1544,0.96,-0.36,-0.01,-5.34,-0.56,-23.92,-20.83,-68.15,-3.75,-16.43,11.81,-4.43,-18.5,Right Fall while Standing
44:53.1,478,520,780,939,447,1.29,776.04,2.18,58.14,447,309,171.25,308,29327,179053,1853,0.99,-0.32,-0.01,-4.66,-0.6,-22.66,-18.29,-70.7,-4.16,-16.69,9.63,-4.73,-18.85,Right Fall while Standing
44:53.2,414,519,778.5,939,447,1.29,776.04,2.18,58.14,447,309,171.25,308,29327,208998,2162,1.01,-0.27,-0.06,-10.96,-0.53,-22.35,-15.49,-73.17,-5.22,-16.95,7.43,-5.63,-19.2,Right Fall while Standing
44:53.3,439,518,777,939,448,1.28,779.13,2.19,58.14,447,308,171.25,308,29327,238326,2470,1,-0.24,-0.06,-12.05,-2.65,-23.57,-14.1,-74.47,-6.37,-17.41,5.15,-6.68,-19.69,Right Fall while Standing
44:53.4,418,516,774,939,447,1.29,776.04,2.18,58.14,447,308,171.25,308,29327,267654,2778,0.99,-0.23,-0.05,-8.93,-0.82,-22.21,-13.8,-74.89,-7.21,-17.69,3.01,-7.47,-19.98,Right Fall while Standing
44:53.5,473,516,774,939,447,1.29,776.04,2.18,58.9,447,308,172.33,308,29697,0,0,1.01,-0.18,-0.05,-6.98,-0.66,-21.03,-10.45,-78.17,-7.85,-17.96,0.98,-7.95,-20.37,Right Fall while Standing
44:53.6,475,515,772.5,939,447,1.29,776.04,2.18,58.9,447,308,172.33,308,29697,29328,308,1,-0.15,-0.05,-6.84,-1.78,-22.04,-9.35,-79.15,-8.48,-18.34,-1.14,-8.51,-20.77,Right Fall while Standing
44:53.7,494,515,772.5,939,448,1.28,779.13,2.19,58.9,447,308,172.33,308,29697,58656,616,1.02,-0.12,-0.07,-3.16,-2.53,-17.52,-7.04,-80.84,-8.74,-18.79,-2.81,-8.67,-21.27,Right Fall while Standing
44:53.8,623,516,774,939,448,1.28,779.13,2.19,58.9,447,309,172.33,308,29697,88601,925,1.03,-0.09,-0.07,-2.03,0.36,-14.22,-5.32,-82.31,-8.89,-18.96,-4.17,-8.74,-21.49,Right Fall while Standing
44:53.9,440,515,772.5,939,448,1.28,779.13,2.19,58.9,447,309,172.33,308,29697,118546,1234,1.03,-0.04,-0.07,-6.83,0.25,-15.63,-2.56,-83.82,-9.51,-19.13,-5.65,-9.24,-21.72,Right Fall while Standing
44:54.0,492,515,772.5,939,447,1.29,776.04,2.18,58.9,447,309,172.33,308,29697,148491,1543,1.02,-0.03,-0.08,-6.21,-0.85,-17.31,-2.24,-83.8,-10.08,-19.42,-7.31,-9.77,-21.99,Right Fall while Standing
44:54.1,482,515,772.5,939,448,1.28,779.13,2.19,58.9,447,309,172.33,308,29697,178436,1852,1.01,-0.01,-0.08,-7.4,0.19,-15.14,-1.17,-84.11,-10.78,-19.6,-8.77,-10.39,-22.18,Right Fall while Standing
44:54.2,535,515,772.5,939,447,1.29,776.04,2.18,58.9,447,309,172.33,308,29697,208381,2161,1.01,0,-0.08,-5.3,1.01,-13.16,-0.41,-83.81,-11.25,-19.7,-10.01,-10.82,-22.27,Right Fall while Standing
44:54.3,522,515,772.5,939,447,1.29,776.04,2.18,58.9,447,309,172.33,308,29697,238326,2470,1.03,0.04,-0.07,-5.2,0.94,-12.69,1.8,-83.75,-11.72,-19.81,-11.21,-11.18,-22.37,Right Fall while Standing
44:54.4,534,515,772.5,939,448,1.28,779.13,2.19,58.9,447,309,172.33,308,29697,268271,2779,1.03,0.06,-0.06,-5.72,0.11,-12.49,2.63,-83.79,-12.24,-20,-12.39,-11.64,-22.55,Right Fall while Standing
44:54.5,678,517,775.5,939,448,1.28,779.13,2.19,61.14,447,309,172.69,308,29820,0,0,1.02,0.07,-0.06,0,0.2,-8.24,3.55,-82.94,-12.18,-20.18,-13.13,-11.55,-22.69,Right Fall while Standing
44:54.6,432,516,774,939,447,1.29,776.04,2.18,61.14,447,309,172.69,308,29820,29945,309,1.01,0.09,-0.09,-3.87,3.37,-9.11,4.48,-81.33,-12.51,-20.04,-13.96,-11.84,-22.49,Right Fall while Standing
44:54.7,425,515,772.5,939,448,1.28,779.13,2.19,61.14,447,309,172.69,308,29820,59890,618,1.06,0.1,-0.21,-13.02,-2.88,-6.6,4.68,-76.3,-13.76,-20.53,-14.54,-13.02,-22.76,Right Fall while Standing
44:54.8,414,514,771,939,447,1.29,776.04,2.18,61.14,447,309,172.69,308,29820,89835,927,1,0.11,-0.06,-5.08,2.24,0.54,5.54,-81.4,-14.22,-20.5,-14.41,-13.43,-22.94,Right Fall while Standing
44:54.9,448,513,769.5,939,448,1.28,779.13,2.19,61.14,447,309,172.69,308,29820,119780,1236,1.01,0.12,-0.04,0.73,-1.79,-3.84,6.3,-81.23,-14.09,-20.88,-14.71,-13.27,-23.3,Right Fall while Standing
44:55.0,454,513,769.5,939,447,1.29,776.04,2.18,61.14,447,309,172.69,308,29820,149725,1545,1.01,0.11,-0.05,-4.92,4.17,-6.6,5.43,-81.7,-14.53,-20.66,-15.3,-13.73,-23.1,Right Fall while Standing
44:55.1,504,513,769.5,939,448,1.28,779.13,2.19,61.14,447,309,172.69,308,29820,179670,1854,1.01,0.1,-0.07,-4.36,2.49,0.56,4.97,-81.61,-14.91,-20.61,-15.16,-14.11,-23.05,Right Fall while Standing
44:55.2,902,517,775.5,939,448,1.28,779.13,2.19,61.14,447,309,172.69,308,29820,209615,2163,1.03,0.1,-0.06,-5.11,1.6,4.39,5.17,-81.73,-15.37,-20.66,-14.64,-14.55,-23.1,Right Fall while Standing
44:55.3,499,516,774,939,448,1.28,779.13,2.19,61.14,447,309,172.69,308,29820,239560,2472,1.02,0.1,-0.05,-5.25,4.76,5.11,4.87,-82.39,-15.84,-20.38,-14.05,-15.01,-22.86,Right Fall while Standing
44:55.4,525,516,774,939,447,1.29,776.04,2.18,61.14,447,309,172.69,308,29820,269505,2781,1.02,0.11,-0.06,-1.29,3.52,4.33,5.33,-81.74,-15.91,-20.23,-13.54,-15.06,-22.69,Right Fall while Standing
44:55.5,493,516,774,939,448,1.28,779.13,2.19,61.14,447,309,173.05,309,29944,0,0,1.02,0.09,-0.04,-0.97,3.51,2.05,4.29,-82.95,-15.95,-20.08,-13.26,-15.14,-22.59,Right Fall while Standing
44:55.6,501,516,774,939,447,1.29,776.04,2.18,61.14,447,309,173.05,309,29944,29945,309,1.01,0.08,-0.03,-2.23,1.99,3.44,4.04,-83.44,-16.12,-20.08,-12.83,-15.31,-22.61,Right Fall while Standing
44:59.5,876,876,1314,876,449,1.28,782.23,2.19,0,0,311,0,0,0,62370,622,0.92,0.03,0.4,-15.59,0.55,-11.37,1.17,-64.98,-118.21,4.19,-86.22,-115.82,2.8,Forward Fall while Standing
44:59.6,575,725,1087.5,876,448,1.28,779.13,2.19,0,0,311,0,0,0,93555,933,0.92,0.06,0.37,-26.26,-2.65,-13.19,2.56,-64.88,-123.93,3.61,-89.1,-119.06,0.88,Forward Fall while Standing
44:59.7,588,679,1018.5,876,448,1.28,779.13,2.19,0,0,311,0,0,0,124740,1244,0.93,0.04,0.4,-46.55,-6.1,-23.75,1.73,-64.55,-132.45,2.49,-93.44,-124.99,-1.52,Forward Fall while Standing
44:59.8,559,649,973.5,876,447,1.29,776.04,2.18,0,0,311,0,0,0,155925,1555,0.92,0.03,0.4,-47.97,-7.77,-21.56,1.49,-64.99,-141.23,1.07,-97.39,-131.07,-4.18,Forward Fall while Standing
44:59.8,542,628,942,876,448,1.28,779.13,2.19,0,0,312,0,0,0,187733,1867,0.92,0.02,0.41,-28.09,-3.39,-14.72,1.06,-64.82,-146.34,0.45,-100.07,-133.44,-6,Forward Fall while Standing
44:59.9,504,607,910.5,876,447,1.29,776.04,2.18,0,0,312,0,0,0,219541,2179,0.9,0.04,0.38,-9.94,-3.37,-3.1,1.73,-64.97,-148.19,-0.17,-100.64,-132.54,-7.79,Forward Fall while Standing
45:00.0,504,592,888,876,447,1.29,776.04,2.18,0,0,312,0,0,0,251349,2491,0.92,0.05,0.37,3.39,-25.16,8.75,2.03,-65.67,-147.57,-4.8,-99.03,-129.24,-13.49,Forward Fall while Standing
45:00.1,516,583,874.5,876,448,1.28,779.13,2.19,0,0,313,0,0,0,283782,2804,0.94,0.04,0.3,-7.18,-43.57,4.98,1.99,-70.05,-148.87,-12.69,-98.13,-127.89,-22.35,Forward Fall while Standing
45:00.2,489,572,858,876,448,1.28,779.13,2.19,63.29,447,313,177.82,311,31620,0,0,0.96,0.02,0.25,3.49,-53.84,1.7,0.97,-74.31,-148.22,-22.59,-97.82,-124.68,-33.09,Forward Fall while Standing
45:00.3,492,564,846,876,448,1.28,779.13,2.19,63.29,447,313,177.82,311,31620,32433,313,0.98,0.03,0.18,15.25,-48.41,-4.55,1.5,-77.82,-145.42,-31.5,-98.66,-119.41,-42.72,Forward Fall while Standing
45:00.4,520,560,840,876,447,1.29,776.04,2.18,63.29,447,313,177.82,311,31620,64866,626,1.05,0.01,0.11,-6.69,-2.84,-4.87,0.73,-82.96,-146.65,-32.02,-99.55,-118.21,-44.03,Forward Fall while Standing
45:00.5,529,557,835.5,876,447,1.29,776.04,2.18,63.29,447,312,177.82,311,31620,96674,938,1.03,0,0.05,-2.02,-8.91,-0.35,0.06,-87.03,-147.02,-33.66,-99.62,-116.21,-46.49,Forward Fall while Standing
45:00.6,452,549,823.5,876,447,1.29,776.04,2.18,63.29,447,312,177.82,311,31620,128482,1250,1.01,0.02,0.05,13.42,-36.3,-6.32,1.28,-85.71,-144.54,-40.37,-100.78,-111.43,-53.86,Forward Fall while Standing
45:00.7,484,545,817.5,876,448,1.28,779.13,2.19,63.29,447,312,177.82,311,31620,160290,1562,1.01,0.05,0,-7.73,-26.52,-6.64,2.63,-87.08,-145.98,-45.33,-102.03,-110.56,-59.38,Forward Fall while Standing
45:00.8,464,539,808.5,876,447,1.29,776.04,2.18,63.29,447,312,177.82,311,31620,192098,1874,1.03,0.06,-0.03,-4.48,-38.65,-13.56,3.68,-88.32,-146.81,-52.52,-104.55,-109.09,-67.01,Forward Fall while Standing
45:00.9,469,535,802.5,876,447,1.29,776.04,2.18,63.29,447,312,177.82,311,31620,223906,2186,1.03,0.04,-0.13,-8.12,-43.26,5.19,2.8,-94.86,-148.34,-60.65,-103.57,-108.35,-75.54,Forward Fall while Standing
45:01.0,509,533,799.5,876,447,1.29,776.04,2.18,63.29,447,312,177.82,311,31620,255714,2498,1.03,0.04,-0.18,-4.49,-51.04,2.25,3,-97.6,-149.18,-70.2,-103.15,-106.95,-85.33,Forward Fall while Standing
45:01.1,511,532,798,876,447,1.29,776.04,2.18,63.29,447,312,177.82,311,31620,287522,2810,1,0.04,-0.22,-8.93,-25.33,-0.18,3.2,-100.02,-150.86,-74.96,-103.18,-106.39,-90.29,Forward Fall while Standing
45:01.2,528,532,798,876,448,1.28,779.13,2.19,58.9,447,312,178.7,312,31932,0,0,1.06,0.03,-0.31,-5.9,-15.16,-5.48,2,-104.8,-151.97,-77.82,-104.22,-105.32,-93.39,Forward Fall while Standing
45:01.3,494,530,795,876,448,1.28,779.13,2.19,58.9,447,312,178.7,312,31932,31808,312,0.97,0.07,-0.32,8.99,-32.93,-4.84,6.46,-104.47,-150.28,-84.05,-105.13,-101.41,-99.71,Forward Fall while Standing
45:01.4,476,527,790.5,876,447,1.29,776.04,2.18,58.9,447,312,178.7,312,31932,63616,624,0.95,0.03,-0.32,16.93,-1.68,-3.74,3.1,-106.86,-147.09,-84.36,-105.84,-96.21,-100.16,Forward Fall while Standing
45:01.5,468,524,786,876,448,1.28,779.13,2.19,58.9,447,311,178.7,312,31932,94801,935,1,0.05,-0.32,0.21,-0.39,-1.71,4.37,-105.07,-147.05,-84.44,-106.16,-94.15,-100.33,Forward Fall while Standing
45:01.6,822,537,805.5,876,448,1.28,779.13,2.19,58.9,447,311,178.7,312,31932,125986,1246,1,0.04,-0.38,2.53,-25.04,-5.95,3.77,-108.53,-146.58,-89.14,-107.28,-91.73,-105.11,Forward Fall while Standing
45:01.7,455,534,801,876,448,1.28,779.13,2.19,58.9,447,311,178.7,312,31932,157171,1557,0.92,0.03,-0.39,-4.4,-19.68,-4.09,3.46,-110.93,-147.4,-92.82,-108.04,-90.63,-108.83,Forward Fall while Standing
45:01.8,518,533,799.5,876,447,1.29,776.04,2.18,58.9,447,311,178.7,312,31932,188356,1868,0.98,0,-0.44,-7.85,-35.43,6.6,0.49,-113.8,-148.88,-99.52,-106.79,-90.26,-115.49,Forward Fall while Standing
45:01.9,494,532,798,876,447,1.29,776.04,2.18,58.9,447,312,178.7,312,31932,220164,2180,0.93,0.02,-0.47,-14.2,-29.42,6.92,2.93,-115.64,-151.55,-105.05,-105.49,-91.02,-120.91,Forward Fall while Standing
45:02.0,508,531,796.5,876,447,1.29,776.04,2.18,58.9,447,313,178.7,312,31932,252597,2493,0.92,0,-0.52,-17.77,-20.84,12.55,-0.71,-119.4,-154.95,-109.03,-103.1,-92.54,-124.78,Forward Fall while Standing
45:02.1,510,530,795,876,447,1.29,776.04,2.18,58.9,447,315,178.7,312,31932,220750,2808,0.9,0,-0.58,-17.87,-58.3,14.15,-0.18,-122.9,-158.4,-120.28,-100.37,-94.07,-135.77,Forward Fall while Standing
45:02.2,524,530,795,876,447,1.29,776.04,2.18,59.66,447,316,137.67,312,18952,0,0,0.87,-0.03,-0.59,-5.41,-6.75,5.76,-5.57,-123.04,-159.44,-121.58,-99.25,-93.32,-136.79,Forward Fall while Standing
45:02.3,566,531,796.5,876,447,1.29,776.04,2.18,59.66,447,318,137.67,312,18952,4294937348,318,0.83,-0.06,-0.62,-8.66,-17.43,9.73,-15.76,-124.04,-161.06,-124.84,-97.43,-93.36,-139.73,Forward Fall while Standing
45:02.4,606,533,799.5,876,448,1.28,779.13,2.19,59.66,447,320,137.67,312,18952,4294908676,638,0.86,-0.04,-0.63,-17.48,-5.97,4.05,-9.13,-124.72,-164.38,-125.98,-96.67,-94.93,-140.54,Forward Fall while Standing
45:02.5,649,537,805.5,876,448,1.28,779.13,2.19,59.66,447,327,137.67,312,18952,4294884533,965,0.84,-0.05,-0.63,-1.51,-4.2,3.76,-12.42,-124.56,-164.67,-126.77,-95.95,-93.56,-141.01,Forward Fall while Standing
45:02.6,652,541,811.5,876,448,1.28,779.13,2.19,59.66,447,361,137.67,312,18952,4294883782,1326,0.84,-0.04,-0.65,-9.45,-7.45,-4.03,-12.61,-125.59,-166.45,-128.18,-96.71,-93.69,-142.08,Forward Fall while Standing
45:02.7,749,547,820.5,876,444,1.3,766.84,2.17,59.66,447,959,137.67,312,18952,4294885959,2285,0.83,-0.05,-0.65,-5.71,-3.11,-4.55,-16.25,-125.52,-167.55,-128.78,-97.58,-93.21,-142.33,Forward Fall while Standing
45:02.8,821,554,831,876,444,1.3,766.84,2.17,59.66,447,933,137.67,312,18952,4294904480,3218,0.84,-0.03,-0.65,-3.51,-5.72,-0.65,-9.1,-126.1,-168.22,-129.87,-97.71,-92.19,-143.08,Forward Fall while Standing
45:02.9,821,562,843,876,444,1.3,766.84,2.17,59.66,447,936,137.67,312,18952,4294928608,4154,0.82,-0.05,-0.66,-7.96,-1.77,-2.06,-17.5,-126.99,-169.75,-130.21,-98.1,-92.19,-143.09,Forward Fall while Standing
45:03.0,821,569,853.5,876,445,1.3,769.9,2.17,59.66,447,937,137.67,312,18952,4294954609,5091,0.83,-0.04,-0.68,-4.4,-3.14,-1.72,-14.5,-127.63,-170.6,-130.82,-98.44,-91.47,-143.38,Forward Fall while Standing
45:03.1,821,575,862.5,876,444,1.3,766.84,2.17,59.66,447,968,137.67,312,18952,6833,6059,0.83,-0.04,-0.63,-13.5,8.6,-6.07,-10.57,-125.73,-173.16,-129.19,-99.59,-92.37,-141.42,Forward Fall while Standing
45:03.2,822,582,873,876,445,1.3,769.9,2.17,45.2,445,979,20724.26,703,429494944,0,0,0.83,-0.04,-0.64,-4.16,-2.78,-9.94,-12.25,-126.2,-173.95,-129.71,-101.47,-91.54,-141.63,Forward Fall while Standing
45:03.3,823,588,882,876,444,1.3,766.84,2.17,45.2,445,988,20724.26,703,429494944,4294960400,988,0.82,-0.04,-0.66,-1.03,-0.81,-7.33,-12.61,-126.83,-174.15,-129.87,-102.88,-90.15,-141.49,Forward Fall while Standing
45:03.4,823,594,891,876,444,1.3,766.84,2.17,45.2,445,992,20724.26,703,429494944,4294961424,1980,0.82,-0.02,-0.65,-4.83,-0.55,-6.06,-6.15,-127.52,-175.07,-129.97,-104.04,-89.38,-141.31,Forward Fall while Standing
45:03.5,824,599,898.5,876,444,1.3,766.84,2.17,45.2,445,993,20724.26,703,429494944,4294964433,2973,0.83,-0.02,-0.66,-6.46,-1.08,-5.3,-7.4,-127.25,-176.31,-130.18,-105.06,-88.95,-141.24,Forward Fall while Standing
45:03.6,824,604,906,876,444,1.3,766.84,2.17,45.2,445,986,20724.26,703,429494944,4294953589,3959,0.83,-0.02,-0.65,-5.74,-3.45,-5.22,-6.15,-127.33,-177.4,-130.83,-106.05,-88.37,-141.6,Forward Fall while Standing
45:03.7,823,609,913.5,876,444,1.3,766.84,2.17,45.2,445,978,20724.26,703,429494944,4294927033,4937,0.84,-0.03,-0.64,-8.61,9.47,-2.3,-7.65,-126.16,-179.05,-129.03,-106.49,-88.37,-139.52,Forward Fall while Standing
45:03.9,824,614,921,876,444,1.3,766.84,2.17,45.2,445,975,20724.26,703,429494944,4294894618,5912,0.81,0,-0.63,-1.54,3.68,-4.04,-0.68,-127.59,-179.34,-128.33,-107.26,-86.9,-138.59,Forward Fall while Standing
45:04.0,823,618,927,876,444,1.3,766.84,2.17,45.2,445,963,20724.26,703,429494944,4294904483,6875,0.85,-0.02,-0.63,-12.29,-11.97,-5.31,-6.38,-125.72,-181.69,-130.61,-108.28,-87.59,-140.58,Forward Fall while Standing
45:04.1,824,623,934.5,876,444,1.3,766.84,2.17,45.2,445,964,20724.26,703,429494944,4294916275,7839,0.87,-0.01,-0.64,-7.41,10.35,-0.06,-2.44,-126.19,-183.12,-128.61,-108.29,-87.29,-138.33,Forward Fall while Standing
45:04.2,824,627,940.5,876,444,1.3,766.84,2.17,45.2,445,962,20724.26,703,429494944,4294924215,8801,0.84,-0.02,-0.62,-4.49,16.32,1.3,-5.14,-125.44,-183.98,-125.48,-108.04,-86.49,-135,Forward Fall while Standing
45:04.3,824,631,946.5,876,445,1.3,769.9,2.17,24.82,444,962,20724.22,976,429493216,0,0,0.83,-0.02,-0.63,-3.62,-14.2,-5.52,-4.55,-126.34,-184.68,-128.22,-109.1,-85.54,-137.51,Forward Fall while Standing
45:04.4,825,635,952.5,876,444,1.3,766.84,2.17,24.82,444,960,20724.22,976,429493216,4096,960,0.88,-0.02,-0.64,-18.25,-2.58,-9.8,-3.73,-125.23,-188.26,-128.72,-111.02,-87.41,-137.76,Forward Fall while Standing
45:04.5,825,639,958.5,876,444,1.3,766.84,2.17,24.82,444,958,20724.22,976,429493216,4356,1918,0.85,-0.02,-0.63,-5.56,8.02,3.22,-5.29,-125.93,-189.34,-127.17,-110.4,-86.82,-136,Forward Fall while Standing
45:04.6,824,642,963,876,444,1.3,766.84,2.17,24.82,444,955,20724.22,976,429493216,4294966173,2873,0.82,0,-0.63,-4.16,-7.23,-1.68,-1.42,-127.04,-190.13,-128.56,-110.72,-85.89,-137.18,Forward Fall while Standing
45:04.7,825,646,969,876,444,1.3,766.84,2.17,24.82,444,951,20724.22,976,429493216,4294953070,3824,0.85,-0.01,-0.62,-8.86,-11.58,-3.81,-2.61,-125.42,-191.85,-130.8,-111.46,-85.91,-139.15,Forward Fall while Standing
45:04.8,825,649,973.5,876,444,1.3,766.84,2.17,24.82,444,953,20724.22,976,429493216,4294943775,4777,0.85,-0.02,-0.64,-2.03,-1.04,-3.25,-4.76,-126.18,-192.25,-131.01,-112.1,-84.68,-139.09,Forward Fall while Standing
45:04.9,825,652,978,876,444,1.3,766.84,2.17,24.82,444,954,20724.22,976,429493216,4294936387,5731,0.85,0,-0.66,-5.15,17.35,-5.91,0.57,-127.51,-193.25,-127.63,-113.25,-83.96,-135.54,Forward Fall while Standing
45:05.0,825,655,982.5,876,444,1.3,766.84,2.17,24.82,444,955,20724.22,976,429493216,4294930908,6686,0.82,0,-0.63,-4.16,-7.23,-1.68,-1.42,-127.04,-190.13,-128.56,-110.72,-85.89,-137.18,Forward Fall while Standing
45:05.1,825,658,987,876,444,1.3,766.84,2.17,24.82,444,959,20724.22,976,429493216,4294933085,7645,0.85,-0.01,-0.62,-8.86,-11.58,-3.81,-2.61,-125.42,-191.85,-130.8,-111.46,-85.91,-139.15,Forward Fall while Standing
45:05.2,826,661,991.5,876,444,1.3,766.84,2.17,24.82,444,962,20724.22,976,429493216,4294941025,8607,0.85,-0.02,-0.64,-2.03,-1.04,-3.25,-4.76,-126.18,-192.25,-131.01,-112.1,-84.68,-139.09,Forward Fall while Standing
45:05.3,825,664,996,876,444,1.3,766.84,2.17,22.98,444,961,20724.25,956,429494688,0,0,0.85,0,-0.66,-5.15,17.35,-5.91,0.57,-127.51,-193.25,-127.63,-113.25,-83.96,-135.54,Forward Fall while Standing
45:05.4,825,666,999,876,445,1.3,769.9,2.17,22.98,444,960,20724.25,956,429494688,4096,960,0.85,0,-0.66,-5.15,17.35,-5.91,0.57,-127.51,-193.25,-127.63,-113.25,-83.96,-135.54,Forward Fall while Standing
45:05.5,826,669,1003.5,876,444,1.3,766.84,2.17,22.98,444,958,20724.25,956,429494688,4356,1918,0.94,0,-0.58,-0.45,33.33,-5.02,0.58,-121.56,-193.34,-121.23,-114.21,-82.35,-128.99,Forward Fall while Standing
45:05.6,825,672,1008,876,444,1.3,766.84,2.17,22.98,444,954,20724.25,956,429494688,4294964264,2872,0.9,0,-0.51,-0.7,44.98,-1.33,0.44,-119.64,-193.48,-112.54,-114.47,-80.83,-120.3,Forward Fall while Standing
45:05.7,826,674,1011,876,444,1.3,766.84,2.17,22.98,444,950,20724.25,956,429494688,4294949260,3822,0.9,0,-0.51,-0.7,44.98,-1.33,0.44,-119.64,-193.48,-112.54,-114.47,-80.83,-120.3,Forward Fall while Standing
45:05.8,825,676,1014,876,444,1.3,766.84,2.17,22.98,444,946,20724.25,956,429494688,4294926672,4768,0.92,-0.02,-0.44,-11.13,45.68,4.7,-2.26,-114.5,-195.6,-103.82,-113.57,-81.34,-111.63,Forward Fall while Standing
45:05.9,825,679,1018.5,876,444,1.3,766.84,2.17,22.98,444,950,20724.25,956,429494688,4294911668,5718,0.97,-0.02,-0.37,-9.97,46.38,6.03,-2.23,-109.49,-197.54,-94.82,-112.4,-81.65,-102.77,Forward Fall while Standing
45:06.0,825,681,1021.5,876,444,1.3,766.84,2.17,22.98,444,950,20724.25,956,429494688,4294896664,6668,0.97,-0.02,-0.37,-9.97,46.38,6.03,-2.23,-109.49,-197.54,-94.82,-112.4,-81.65,-102.77,Forward Fall while Standing
45:06.1,826,683,1024.5,876,444,1.3,766.84,2.17,22.98,444,952,20724.25,956,429494688,4294885464,7620,1.02,-0.05,-0.29,-17.41,60.57,1.82,-3.65,-103.14,-200.88,-83.19,-112.05,-83.37,-91.38,Forward Fall while Standing
45:06.2,825,685,1027.5,876,444,1.3,766.84,2.17,22.98,444,958,20724.25,956,429494688,4294885724,8578,1.02,-0.05,-0.29,-17.41,60.57,1.82,-3.65,-103.14,-200.88,-83.19,-112.05,-83.37,-91.38,Forward Fall while Standing
45:06.3,825,687,1030.5,876,444,1.3,766.84,2.17,24.82,444,958,20724.11,953,429488608,0,0,1.02,-0.05,-0.18,-15.53,71.03,-2.93,-3.66,-97.16,-203.88,-69.48,-112.62,-84.71,-78.06,Forward Fall while Standing
45:06.4,826,689,1033.5,876,445,1.3,769.9,2.17,24.82,444,958,20724.11,953,429488608,260,958,1.04,-0.06,-0.09,-9.64,44.11,8,-3.77,-91.78,-205.73,-61.01,-111.08,-84.91,-70.04,Forward Fall while Standing
45:06.5,825,691,1036.5,876,444,1.3,766.84,2.17,24.82,444,956,20724.11,953,429488608,4294963988,1914,1.05,-0.04,-0.01,-0.96,39.79,-8.43,-2.22,-88.25,-205.91,-53.42,-112.69,-83.43,-62.95,Forward Fall while Standing
45:06.6,826,693,1039.5,876,444,1.3,766.84,2.17,24.82,444,950,20724.11,953,429488608,4294948984,2864,1.05,-0.04,-0.01,-0.96,39.79,-8.43,-2.22,-88.25,-205.91,-53.42,-112.69,-83.43,-62.95,Forward Fall while Standing
45:06.7,826,695,1042.5,876,444,1.3,766.84,2.17,24.82,444,946,20724.11,953,429488608,4294926396,3810,1.02,-0.06,0.08,-1.32,51.9,1.18,-3.21,-81.92,-206.16,-43.55,-112.47,-82.07,-53.67,Forward Fall while Standing
45:06.8,826,696,1044,876,444,1.3,766.84,2.17,24.82,444,943,20724.11,953,429488608,4294898141,4753,1,-0.03,0.18,2.24,49.74,0.52,-1.22,-78.62,-205.74,-34.15,-112.37,-80.04,-44.96,Forward Fall while Standing
45:06.9,826,698,1047,876,444,1.3,766.84,2.17,24.82,444,948,20724.11,953,429488608,4294879341,5701,1,-0.03,0.18,2.24,49.74,0.52,-1.22,-78.62,-205.74,-34.15,-112.37,-80.04,-44.96,Forward Fall while Standing
45:07.0,826,700,1050,876,444,1.3,766.84,2.17,24.82,444,948,20724.11,953,429488608,4294860541,6649,0.97,-0.04,0.24,2.35,43.19,-5.88,-1.87,-73.94,-205.29,-26.03,-113.47,-78.05,-37.58,Forward Fall while Standing
45:07.1,826,702,1053,876,444,1.3,766.84,2.17,24.82,444,955,20724.11,953,429488608,4294855062,7604,0.95,-0.02,0.29,-1.41,40.45,-4.44,-1.02,-71.74,-205.56,-18.39,-114.31,-76.77,-30.77,Forward Fall while Standing
45:07.2,826,703,1054.5,876,444,1.3,766.84,2.17,24.82,444,958,20724.11,953,429488608,4294855322,8562,0.93,-0.01,0.35,-2.17,30.29,-5.74,-0.61,-68.62,-205.97,-12.6,-115.41,-75.65,-25.86,Forward Fall while Standing
45:07.3,826,705,1057.5,876,445,1.3,769.9,2.17,26.55,444,956,20724.02,951,429485184,0,0,0.93,-0.01,0.35,-2.17,30.29,-5.74,-0.61,-68.62,-205.97,-12.6,-115.41,-75.65,-25.86,Forward Fall while Standing
45:07.4,826,706,1059,876,444,1.3,766.84,2.17,26.55,444,956,20724.02,951,429485184,4294963728,956,0.91,-0.06,0.41,-6.83,17.36,-7.6,-2.51,-62.89,-207.27,-9.32,-116.84,-75.45,-23.38,Forward Fall while Standing
45:07.5,826,708,1062,876,444,1.3,766.84,2.17,26.55,444,950,20724.02,951,429485184,4294948724,1906,0.9,-0.01,0.41,-7.67,8.49,-0.73,-0.24,-65.32,-208.71,-7.72,-116.98,-75.37,-22.65,Forward Fall while Standing
45:07.6,826,709,1063.5,876,444,1.3,766.84,2.17,26.55,444,946,20724.02,951,429485184,4294926136,2852,0.88,-0.02,0.49,-16.83,23.96,-14.65,-0.81,-60.04,-211.88,-3.21,-119.74,-76.98,-18.98,Forward Fall while Standing
45:07.7,826,710,1065,876,444,1.3,766.84,2.17,26.55,444,947,20724.02,951,429485184,4294905441,3799,0.9,-0.01,0.47,-4.46,-6.46,-17.31,-0.32,-62.05,-212.73,-4.45,-123.06,-76.28,-21.06,Forward Fall while Standing
45:07.8,826,712,1068,876,444,1.3,766.84,2.17,26.55,444,948,20724.02,951,429485184,4294886641,4747,0.9,-0.01,0.47,-4.46,-6.46,-17.31,-0.32,-62.05,-212.73,-4.45,-123.06,-76.28,-21.06,Forward Fall while Standing
45:07.9,826,713,1069.5,876,444,1.3,766.84,2.17,26.55,444,945,20724.02,951,429485184,4294862162,5692,0.87,0.01,0.48,-15.87,-3.88,-10.64,0.46,-60.42,-215.75,-5.19,-125.08,-77.7,-22.57,Forward Fall while Standing
45:08.0,826,714,1071,876,444,1.3,766.84,2.17,26.55,444,957,20724.02,951,429485184,4294860507,6649,0.87,0.01,0.48,-15.87,-3.88,-10.64,0.46,-60.42,-215.75,-5.19,-125.08,-77.7,-22.57,Forward Fall while Standing
45:08.1,825,716,1074,876,444,1.3,766.84,2.17,26.55,444,956,20724.02,951,429485184,4294856939,7605,0.88,0.01,0.47,-12.87,-8.13,-6.36,0.31,-61.32,-218.18,-6.73,-126.28,-78.53,-24.85,Forward Fall while Standing
45:08.2,826,717,1075.5,876,444,1.3,766.84,2.17,26.55,444,952,20724.02,951,429485184,4294845739,8557,0.89,0.03,0.47,-12.54,-5.39,-9.22,1.2,-60.72,-220.53,-7.73,-128.01,-79.23,-26.55,Forward Fall while Standing
45:08.3,826,718,1077,876,444,1.3,766.84,2.17,22.98,444,947,20723.96,950,429482496,0,0,0.9,-0.01,0.43,-28.35,-20.1,-3.98,-0.31,-64.09,-225.86,-11.51,-128.76,-82.87,-31.01,Forward Fall while Standing
45:08.4,826,719,1078.5,876,444,1.3,766.84,2.17,22.98,444,946,20723.96,950,429482496,4294944708,946,0.93,-0.01,0.43,-20.84,-16.68,-11.42,-0.25,-65.06,-229.88,-14.73,-130.96,-85.16,-34.84,Forward Fall while Standing
45:08.5,825,721,1081.5,876,444,1.3,766.84,2.17,22.98,444,944,20723.96,950,429482496,4294918340,1890,0.93,0,0.38,-24.41,-5.39,-16.01,-0.05,-67.66,-234.59,-15.77,-134.05,-88.08,-36.52,Forward Fall while Standing
45:08.6,825,722,1083,876,444,1.3,766.84,2.17,22.98,444,946,20723.96,950,429482496,4294895752,2836,0.93,0.03,0.36,-28.26,-19.34,-12.44,1.23,-67.24,-240.02,-19.49,-136.44,-91.61,-40.77,Forward Fall while Standing
45:08.7,826,723,1084.5,876,444,1.3,766.84,2.17,22.98,444,949,20723.96,950,429482496,4294878849,378,0.95,0.04,0.38,-15.74,-6.23,-8.36,1.77,-66.09,-243.01,-20.67,-138.03,-92.67,-42.44,Forward Fall while Standing
45:16.8,1001,1001,1501.5,1001,442,1.31,760.76,2.16,0,0,298,0,0,0,47732,598,1.02,0,0.03,-2.96,-7.61,-3.89,-0.74,-86.64,-0.64,-1.83,-0.75,-0.65,-5.23,Sitting
45:16.9,1001,1001,1501.5,1001,443,1.31,763.79,2.17,0,0,297,0,0,0,70405,895,1,0.02,0.01,-2.99,2.44,-1.46,0.82,-86.92,-0.88,-1.79,-0.82,-0.81,-5.2,Sitting
45:17.0,1001,1001,1501.5,1001,445,1.3,769.9,2.17,0,0,297,0,0,0,93078,1192,1.04,0.02,0.02,-3.6,10.27,-1.4,0.66,-86.65,-1.18,-0.98,-0.88,-1.11,-4.41,Sitting
45:17.1,1001,1001,1501.5,1001,446,1.29,772.96,2.18,0,0,297,0,0,0,115751,1489,1.01,0.02,-0.02,8,4.03,-3.5,0.47,-87.06,-0.34,-0.78,-1.14,-0.31,-4.23,Sitting
45:17.2,1001,1001,1501.5,1001,447,1.29,776.04,2.18,0,0,298,0,0,0,139019,1787,0.98,0.02,-0.02,-1.68,0.13,2.27,0.77,-86.74,-0.45,-0.97,-0.84,-0.4,-4.4,Sitting
45:17.3,1001,1001,1501.5,1001,448,1.28,779.13,2.19,0,0,298,0,0,0,162287,2085,1.05,0.03,0,-8.31,-7.5,1.86,1.06,-86.75,-1.21,-1.9,-0.58,-1.12,-5.29,Sitting
45:17.4,1001,1001,1501.5,1001,448,1.28,779.13,2.19,0,0,299,0,0,0,186152,2384,1.04,0,0.04,-0.56,3.19,-8.06,-0.46,-86.43,-1.21,-1.78,-1.29,-1.18,-5.17,Sitting
45:17.5,1001,1001,1501.5,1001,448,1.28,779.13,2.19,0,0,300,0,0,0,210616,2684,1,0.01,0.03,11.31,8.72,-0.29,0.05,-86.71,-0.03,-1.12,-1.24,-0.03,-4.54,Sitting
45:17.6,996,1000,1500,1001,449,1.28,782.23,2.19,45.24,445,300,153.32,298,23507,0,0,1.03,0.02,0.02,15.6,11,0.08,0.68,-86.82,1.56,-0.23,-1.16,1.53,-3.69,Sitting
45:17.7,826,983,1474.5,1001,448,1.28,779.13,2.19,45.24,445,301,153.32,298,23507,25065,301,0.96,0.01,0.12,17.61,-4.68,5.18,0.1,-81.29,3.35,-0.88,-0.57,3.22,-4.1,Sitting
45:17.8,950,980,1470,1001,448,1.28,779.13,2.19,45.24,445,301,153.32,298,23507,50130,602,0.99,0.04,0.02,2.23,2.77,0.24,1.59,-85.98,3.62,-0.8,-0.47,3.54,-4.21,Sitting
45:17.9,418,933,1399.5,1001,448,1.28,779.13,2.19,45.24,445,302,153.32,298,23507,75798,904,1.02,0.03,0.02,-5.92,8.84,3.89,0.95,-86.56,3.09,-0.13,-0.01,3.01,-3.58,Sitting
45:18.0,343,887,1330.5,1001,448,1.28,779.13,2.19,45.24,445,302,153.32,298,23507,101466,1206,1.02,-0.01,0.08,10.97,3.15,7.06,-0.91,-84.1,4.24,-0.01,0.77,4.03,-3.38,Sitting
45:18.1,237,841,1261.5,1001,447,1.29,776.04,2.18,45.24,445,302,153.32,298,23507,127134,1508,1.01,0,0.05,11.07,2.5,10.4,-0.58,-85.33,5.4,0.04,1.89,5.16,-3.38,Sitting
45:18.2,196,798,1197,1001,447,1.29,776.04,2.18,45.24,445,303,153.32,298,23507,153407,1811,1.01,-0.02,0.09,18.65,11.09,8.54,-1.52,-83.34,7.3,0.94,2.81,6.95,-2.43,Sitting
45:18.3,226,762,1143,1001,448,1.28,779.13,2.19,45.24,445,303,153.32,298,23507,179680,2114,0.99,-0.02,0.07,23.37,7.94,4.39,-1.69,-83.96,9.67,1.53,3.33,9.21,-1.89,Sitting
45:18.4,569,751,1126.5,1001,447,1.29,776.04,2.18,45.24,445,303,153.32,298,23507,205953,2417,1,-0.03,0.05,11.36,6.56,-2.61,-2.19,-85.19,10.86,1.98,3.14,10.34,-1.5,Sitting
45:18.5,205,720,1080,1001,447,1.29,776.04,2.18,45.24,445,304,153.32,298,23507,232833,2721,0.99,-0.05,0.06,-4.37,-1.64,-7.2,-3.5,-83.94,10.48,1.62,2.51,9.92,-1.8,Sitting
45:18.6,279,697,1045.5,1001,447,1.29,776.04,2.18,60.4,447,304,161.16,302,25970,0,0,0.98,-0.03,0.08,-9.13,3.75,1.8,-2.62,-83.41,9.64,1.79,2.76,9.15,-1.62,Sitting
45:18.7,255,675,1012.5,1001,447,1.29,776.04,2.18,60.4,447,304,161.16,302,25970,26880,304,1,-0.03,0.09,-4.32,0.63,0.21,-2.33,-82.93,9.27,1.66,2.86,8.8,-1.73,Sitting
45:18.8,265,655,982.5,1001,448,1.28,779.13,2.19,60.4,447,304,161.16,302,25970,53760,608,1.02,-0.05,0.09,-4.39,-2.58,-10.66,-3.17,-82.76,8.89,1.21,1.9,8.41,-2.15,Sitting
45:18.9,276,638,957,1001,447,1.29,776.04,2.18,60.4,447,304,161.16,302,25970,80640,912,0.97,-0.03,0.06,-3.75,-2.51,-5.72,-2.61,-84.51,8.58,0.76,1.41,8.13,-2.65,Sitting
45:19.0,426,629,943.5,1001,447,1.29,776.04,2.18,60.4,447,304,161.16,302,25970,107520,1216,1.02,-0.01,0.06,-12.47,2.86,2.39,-0.91,-85.2,7.39,0.85,1.73,7.05,-2.6,Sitting
45:19.1,258,613,919.5,1001,447,1.29,776.04,2.18,60.4,447,304,161.16,302,25970,134400,1520,1.04,0,0.08,-10.14,-5.53,-10.11,-0.41,-84,6.44,0.1,0.8,6.16,-3.26,Sitting
45:19.2,330,602,903,1001,448,1.28,779.13,2.19,60.4,447,304,161.16,302,25970,161280,1824,1.09,0,0.08,-14.16,-3.44,-10.04,-0.81,-83.98,5.08,-0.44,-0.12,4.84,-3.78,Sitting
45:19.3,331,592,888,1001,447,1.29,776.04,2.18,60.4,447,305,161.16,302,25970,188769,2129,0.98,0.03,0.07,-4.34,-0.29,-4.34,0.98,-84.06,4.7,-0.67,-0.48,4.55,-4.01,Sitting
45:19.4,372,583,874.5,1001,447,1.29,776.04,2.18,60.4,447,304,161.16,302,25970,215649,2433,1.02,0,0.05,-4.57,6.62,-9.42,-0.5,-85.39,4.3,-0.21,-1.34,4.11,-3.62,Sitting
45:19.5,419,578,867,1001,448,1.28,779.13,2.19,60.4,447,305,161.16,302,25970,243138,2738,0.98,0.02,0.04,16.07,-2.08,1.38,0.34,-85.91,5.94,-0.61,-1.12,5.72,-4.02,Sitting
45:19.6,776,584,876,1001,448,1.28,779.13,2.19,59.66,447,304,164.32,304,27000,0,0,1.01,0.04,0.04,9.37,1.75,-0.86,1.82,-85.17,6.92,-0.64,-1.13,6.71,-4.02,Sitting
45:19.7,401,578,867,1001,447,1.29,776.04,2.18,59.66,447,304,164.32,304,27000,26880,304,1.09,0.04,0.03,-7.97,0.26,10.58,1.73,-85.65,6.18,-0.81,-0.01,6.01,-4.2,Sitting
45:19.8,475,575,862.5,1001,448,1.28,779.13,2.19,59.66,447,304,164.32,304,27000,53760,608,1.01,0.07,0.07,11.63,5.98,21.97,3.51,-82.6,7.38,-0.42,2.22,7.22,-3.71,Sitting
45:19.9,440,571,856.5,1001,447,1.29,776.04,2.18,59.66,447,304,164.32,304,27000,80640,912,0.96,0,0.14,23.98,21.85,1.56,-0.61,-80.38,9.81,1.55,2.46,9.39,-1.73,Sitting
45:20.0,469,568,852,1001,448,1.28,779.13,2.19,59.66,447,304,164.32,304,27000,107520,1216,0.9,-0.06,0.09,64.33,22.11,-1.74,-4.57,-81.4,16.3,3.56,2.36,15.46,0.16,Sitting
45:20.1,540,567,850.5,1001,448,1.28,779.13,2.19,59.66,447,303,164.32,304,27000,133793,1519,1.15,-0.06,0.14,44.25,-0.97,-0.15,-3.48,-80.95,20.73,3.26,2.43,19.77,-0.11,Sitting
45:20.2,633,569,853.5,1001,448,1.28,779.13,2.19,59.66,447,303,164.32,304,27000,160066,1822,0.96,-0.04,0.14,2.89,-15.66,5.53,-2.99,-79.88,21.08,1.5,3.06,20.12,-1.76,Sitting
45:20.3,440,565,847.5,1001,448,1.28,779.13,2.19,59.66,447,302,164.32,304,27000,185734,2124,1.04,-0.04,0.12,-9.79,5.11,-2.05,-2.87,-81.56,20.16,1.81,2.93,19.23,-1.53,Sitting
45:20.4,463,562,843,1001,449,1.28,782.23,2.19,59.66,447,301,164.32,304,27000,210799,2425,1.01,-0.03,0.14,9.97,-2.5,-7.15,-2.27,-80.34,21.2,1.36,2.3,20.26,-1.91,Sitting
45:20.5,461,560,840,1001,447,1.29,776.04,2.18,59.66,447,300,164.32,304,27000,235263,2725,0.99,-0.04,0.09,2.79,1.05,-15.42,-2.84,-82.67,21.53,1.27,0.85,20.55,-2.09,Sitting
45:20.6,486,558,837,1001,448,1.28,779.13,2.19,62.59,447,300,161.16,302,25971,0,0,0.91,0,0.08,-5.85,3.81,-5.76,-0.66,-83.62,21.01,1.45,0.36,20.14,-1.96,Sitting
45:20.7,487,556,834,1001,448,1.28,779.13,2.19,62.59,447,299,161.16,302,25971,23865,299,1.1,0.04,0.03,-17.56,8.82,8.37,1.72,-85.53,19.32,2.12,1.27,18.62,-1.38,Sitting
45:20.8,424,553,829.5,1001,447,1.29,776.04,2.18,62.59,447,298,161.16,302,25971,47133,597,0.93,0.05,0.16,-13.85,2.64,20.82,2.26,-78.4,18.01,2.18,3.41,17.38,-1.04,Sitting
45:20.9,370,548,822,1001,448,1.28,779.13,2.19,62.59,447,298,161.16,302,25971,70401,895,0.97,0.04,0.13,7.91,5.57,-0.04,1.74,-80.6,18.85,2.54,3.48,18.17,-0.78,Sitting
45:21.0,367,544,816,1001,447,1.29,776.04,2.18,62.59,447,297,161.16,302,25971,93074,1192,1.02,0.05,0.1,39.85,-16.82,5.65,1.98,-82.48,22.81,0.7,4.11,21.98,-2.63,Sitting
45:21.1,356,540,810,1001,447,1.29,776.04,2.18,62.59,447,297,161.16,302,25971,115747,1489,1.04,0.07,0.09,13.97,0.89,7.87,3.48,-82.04,24.25,0.59,4.97,23.42,-2.72,Sitting
45:21.2,406,537,805.5,1001,447,1.29,776.04,2.18,62.59,447,297,161.16,302,25971,138420,1786,0.98,0.02,0.1,23.24,4.08,-15.75,0.68,-82.41,26.63,0.8,3.48,25.59,-2.53,Sitting
45:21.3,440,535,802.5,1001,448,1.28,779.13,2.19,62.59,447,296,161.16,302,25971,160500,2082,1.09,0,0.03,19.28,3.27,-18.06,-0.44,-86.58,28.6,0.92,1.77,27.44,-2.58,Sitting
45:21.4,570,535,802.5,1001,448,1.28,779.13,2.19,62.59,447,296,161.16,302,25971,182580,2378,0.85,-0.06,0.13,20.47,10.4,-5.33,-4.74,-78.78,30.7,1.76,1.31,29.28,-1.46,Sitting
45:21.5,645,538,807,1001,448,1.28,779.13,2.19,62.59,447,296,161.16,302,25971,204660,2674,0.9,0.03,0.1,5.91,13.23,20.2,1.47,-81.75,31.35,2.88,3.41,30.15,-0.5,Sitting
45:21.6,614,539,808.5,1001,448,1.28,779.13,2.19,61.14,447,296,150.58,297,22673,0,0,0.96,0.03,0.08,24.41,5.44,10.53,1.24,-83.35,33.79,3.22,4.52,32.49,-0.24,Sitting
45:21.7,694,542,813,1001,448,1.28,779.13,2.19,61.14,447,296,150.58,297,22673,22080,296,1.03,0.02,0.01,29.36,13.37,11.18,0.36,-87.38,36.73,4.34,5.69,35.27,0.67,Sitting
45:21.8,870,549,823.5,1001,449,1.28,782.23,2.19,61.14,447,296,150.58,297,22673,44160,592,1.05,0.01,0.12,20.78,-13.11,18.69,-0.3,-82.15,38.86,2.83,7.64,37.29,-0.57,Sitting
45:21.9,905,556,834,1001,449,1.28,782.23,2.19,61.14,447,296,150.58,297,22673,66240,888,1.01,-0.01,0.17,21.24,-9.08,6.94,-1.12,-79.1,41.02,1.73,8.41,39.33,-1.5,Sitting
45:22.0,929,563,844.5,1001,447,1.29,776.04,2.18,61.14,447,296,150.58,297,22673,88320,1184,1.05,-0.01,0.1,6.56,24.03,4.39,-0.96,-83.14,41.72,3.91,8.92,40.02,0.43,Sitting
45:22.1,999,571,856.5,1001,448,1.28,779.13,2.19,61.14,447,296,150.58,297,22673,110400,1480,0.98,-0.06,0.17,17.02,14.39,4.02,-3.96,-78.04,43.48,5.15,9.4,41.58,1.82,Sitting
45:22.2,752,574,861,1001,447,1.29,776.04,2.18,61.14,447,295,150.58,297,22673,131889,1775,0.98,-0.06,0.12,22.42,3.05,0.87,-4.34,-80.67,45.76,5.25,9.57,43.75,1.82,Sitting
45:22.3,776,578,867,1001,447,1.29,776.04,2.18,61.14,447,296,150.58,297,22673,153969,2071,1.01,-0.05,0.14,18.85,11.31,9.82,-3.27,-80.37,47.68,6.18,10.62,45.64,2.71,Sitting
45:22.4,600,578,867,1001,446,1.29,772.96,2.18,61.14,447,295,150.58,297,22673,175458,2366,1.01,-0.03,0.19,12.59,1.94,13.21,-2.5,-77.54,48.99,6.17,12.02,46.93,2.82,Sitting
45:22.5,494,577,865.5,1001,446,1.29,772.96,2.18,61.14,447,295,150.58,297,22673,196947,2661,0.99,-0.04,0.2,13.43,3.99,2.5,-2.99,-76.92,50.39,6.37,12.34,48.26,3.04,Sitting
45:22.6,461,575,862.5,1001,446,1.29,772.96,2.18,58.91,447,295,147.79,295,21842,0,0,0.98,-0.07,0.22,16.29,9.16,-2.72,-4.68,-74.89,52.04,7.07,12.16,49.78,3.79,Sitting
45:22.7,436,572,858,1001,446,1.29,772.96,2.18,58.91,447,295,147.79,295,21842,21489,295,0.96,-0.06,0.16,10.37,2.77,6.05,-4.27,-78.12,53.13,7.15,12.83,50.83,3.74,Sitting
45:22.8,412,570,855,1001,446,1.29,772.96,2.18,58.91,447,295,147.79,295,21842,42978,590,0.97,-0.05,0.22,-6.34,-5.02,5.96,-3.74,-75.46,52.55,6.45,13.5,50.3,3.18,Sitting
45:22.9,366,566,849,1001,446,1.29,772.96,2.18,58.91,447,295,147.79,295,21842,64467,885,1.01,-0.08,0.25,-0.4,8.73,-2.76,-4.83,-74.01,52.57,7.12,13.31,50.27,3.87,Sitting
45:23.0,292,562,843,1001,446,1.29,772.96,2.18,58.91,447,295,147.79,295,21842,85956,1180,0.96,-0.08,0.22,3.69,10.72,-2.5,-5.43,-74.81,52.99,7.99,13.13,50.66,4.68,Sitting
45:23.1,233,557,835.5,1001,446,1.29,772.96,2.18,58.91,447,295,147.79,295,21842,107445,1475,0.95,-0.07,0.22,-4.95,2.12,3.81,-4.6,-74.8,52.56,8,13.59,50.27,4.69,Sitting
45:23.2,264,552,828,1001,446,1.29,772.96,2.18,58.91,447,295,147.79,295,21842,128934,1770,1,-0.06,0.24,-3.43,-6.72,-1.56,-3.9,-74.35,52.27,7.14,13.52,50.02,3.88,Sitting
45:23.4,343,549,823.5,1001,446,1.29,772.96,2.18,58.91,447,296,147.79,295,21842,151014,2066,0.99,-0.07,0.21,-0.06,1.98,-5.58,-4.43,-75.6,52.32,7.14,13.04,50.05,3.83,Sitting
45:23.4,527,549,823.5,1001,446,1.29,772.96,2.18,58.91,447,296,147.79,295,21842,173094,2362,0.97,-0.07,0.22,-4.3,0.93,-1.69,-4.87,-74.97,51.95,7.03,12.95,49.68,3.75,Sitting
45:23.5,411,547,820.5,1001,446,1.29,772.96,2.18,58.91,447,296,147.79,295,21842,195174,2658,0.99,-0.08,0.24,-6.05,1.63,1.03,-4.88,-74.19,51.4,6.99,13.13,49.15,3.75,Sitting
45:23.6,476,546,819,1001,446,1.29,772.96,2.18,48.04,446,296,147.39,295,21724,0,0,0.98,-0.07,0.22,-3.68,5.95,-5.17,-4.64,-75.32,51.09,7.39,12.7,48.86,4.08,Sitting
45:23.7,427,544,816,1001,446,1.29,772.96,2.18,48.04,446,297,147.39,295,21724,22673,297,0.97,-0.07,0.21,-0.21,3.13,-0.94,-4.89,-75.67,51.13,7.5,12.68,48.89,4.17,Sitting
45:23.8,446,543,814.5,1001,447,1.29,776.04,2.18,48.04,446,297,147.39,295,21724,45346,594,0.96,-0.06,0.23,-4.36,3.79,0.12,-4.25,-74.48,50.75,7.67,12.77,48.55,4.39,Sitting
45:23.9,446,541,811.5,1001,446,1.29,772.96,2.18,48.04,446,297,147.39,295,21724,68019,891,0.98,-0.06,0.22,-3.84,0.76,-0.04,-4.15,-75.22,50.42,7.55,12.85,48.24,4.24,Sitting
45:24.0,509,541,811.5,1001,446,1.29,772.96,2.18,48.04,446,298,147.39,295,21724,91287,1189,0.97,-0.06,0.23,-2.4,0.59,-2.19,-4.15,-74.49,50.24,7.41,12.71,48.07,4.13,Sitting
45:24.1,817,545,817.5,1001,447,1.29,776.04,2.18,48.04,446,298,147.39,295,21724,114555,1487,0.96,-0.06,0.25,-0.97,-2.47,-1.62,-4.02,-73.36,50.2,6.96,12.63,48.03,3.75,Sitting
45:24.1,605,545,817.5,1001,448,1.28,779.13,2.19,48.04,446,299,147.39,295,21724,138420,1786,0.98,-0.06,0.25,-5.73,-0.7,-3.68,-4.17,-73.71,49.68,6.69,12.34,47.53,3.48,Sitting
45:24.3,765,548,822,1001,447,1.29,776.04,2.18,48.04,446,300,147.39,295,21724,162884,2086,0.97,-0.07,0.23,-4.84,1.55,-1.59,-4.46,-74.53,49.26,6.65,12.26,47.11,3.4,Sitting
45:24.4,751,551,826.5,1001,447,1.29,776.04,2.18,48.04,446,300,147.39,295,21724,187348,2386,0.98,-0.07,0.23,-3.76,-0.73,1.44,-4.59,-74.8,48.94,6.37,12.48,46.8,3.13,Sitting
45:24.5,795,554,831,1001,447,1.29,776.04,2.18,48.04,446,300,147.39,295,21724,211812,2686,0.97,-0.06,0.23,-2.07,2.68,0.8,-4.2,-74.3,48.79,6.44,12.64,46.67,3.21,Sitting
45:24.6,778,557,835.5,1001,447,1.29,776.04,2.18,54.97,446,300,153.71,298,23626,0,0,0.98,-0.06,0.23,1.53,-1.79,-0.69,-3.74,-74.66,48.99,6.07,12.65,46.88,2.84,Sitting
45:24.6,752,559,838.5,1001,447,1.29,776.04,2.18,54.97,446,300,153.71,298,23626,24464,300,0.98,-0.05,0.22,-4.87,0.08,-1.98,-3.5,-75.54,48.57,5.88,12.53,46.48,2.62,Sitting
45:24.7,811,562,843,1001,447,1.29,776.04,2.18,54.97,446,301,153.71,298,23626,49529,601,0.97,-0.07,0.25,-7.25,0,-0.56,-4.54,-73.36,47.9,5.68,12.56,45.81,2.52,Sitting
45:24.8,924,567,850.5,1001,448,1.28,779.13,2.19,54.97,446,301,153.71,298,23626,74594,902,0.98,-0.07,0.24,-1.68,5.17,-2.46,-4.36,-74.29,47.79,6,12.39,45.71,2.79,Sitting
45:24.9,992,572,858,1001,447,1.29,776.04,2.18,54.97,446,301,153.71,298,23626,99659,1203,0.97,-0.08,0.23,-2.53,-0.47,-4.02,-4.91,-74.42,47.6,5.76,12.07,45.5,2.55,Sitting
45:25.0,986,577,865.5,1001,447,1.29,776.04,2.18,54.97,446,301,153.71,298,23626,124724,1504,0.97,-0.08,0.23,-6.73,-0.43,-1.32,-4.96,-74.33,46.99,5.52,12.02,44.91,2.32,Sitting
45:25.1,996,582,873,1001,447,1.29,776.04,2.18,54.97,446,301,153.71,298,23626,149789,1805,0.97,-0.08,0.22,-7.85,2.21,-0.96,-5.16,-74.74,46.25,5.54,12,44.19,2.33,Sitting
45:25.2,1000,587,880.5,1001,447,1.29,776.04,2.18,54.97,446,301,153.71,298,23626,174854,2106,0.97,-0.08,0.23,-2.39,1.11,-0.75,-5.15,-74.24,46.07,5.45,12.01,44.02,2.26,Sitting
45:25.3,1001,591,886.5,1001,447,1.29,776.04,2.18,54.97,446,302,153.71,298,23626,200522,2408,0.98,-0.08,0.23,-0.85,1.31,0.05,-5.25,-74.3,46.04,5.38,12.09,43.99,2.19,Sitting
45:25.4,1001,596,894,1001,448,1.28,779.13,2.19,54.97,446,302,153.71,298,23626,226190,2710,0.98,-0.08,0.22,-1.31,2.95,-0.78,-4.89,-75.13,45.97,5.47,12.09,43.93,2.25,Sitting
45:25.5,1001,601,901.5,1001,447,1.29,776.04,2.18,58.14,447,302,158.7,301,25184,0,0,0.98,-0.08,0.25,-3.07,-0.73,-0.27,-4.88,-73.69,45.72,5.21,12.14,43.7,2.05,Sitting
45:25.6,1001,605,907.5,1001,447,1.29,776.04,2.18,58.14,447,302,158.7,301,25184,25668,302,0.97,-0.07,0.24,-1.66,6.25,-0.89,-4.86,-73.97,45.61,5.63,12.13,43.59,2.44,Sitting
45:25.7,1001,609,913.5,1001,447,1.29,776.04,2.18,58.14,447,302,158.7,301,25184,51336,604,0.97,-0.07,0.23,-1.27,8.12,-1.84,-4.89,-74.48,45.54,6.24,12.03,43.52,3.01,Sitting
45:25.8,1001,614,921,1001,448,1.28,779.13,2.19,58.14,447,302,158.7,301,25184,77004,906,0.97,-0.08,0.23,1.62,-4.79,-2.07,-4.91,-74.35,45.76,5.56,11.9,43.73,2.36,Sitting
45:25.9,1001,618,927,1001,447,1.29,776.04,2.18,58.14,447,302,158.7,301,25184,102672,1208,0.96,-0.08,0.25,-5.44,1.05,-1.59,-5.23,-73.02,45.28,5.47,11.82,43.26,2.33,Sitting
45:26.0,1001,622,933,1001,447,1.29,776.04,2.18,58.14,447,302,158.7,301,25184,128340,1510,0.97,-0.08,0.26,1.24,2.22,-1.77,-5.28,-72.97,45.46,5.49,11.72,43.43,2.35,Sitting
45:26.1,1001,626,939,1001,447,1.29,776.04,2.18,58.14,447,302,158.7,301,25184,154008,1812,0.96,-0.07,0.23,-0.31,1.98,-1.51,-4.49,-74.35,45.48,5.49,11.65,43.48,2.29,Sitting
45:26.2,1001,630,945,1001,447,1.29,776.04,2.18,58.14,447,302,158.7,301,25184,179676,2114,0.98,-0.07,0.25,-1.34,1.36,-1.65,-4.68,-73.77,45.4,5.42,11.57,43.4,2.26,Sitting
45:26.3,1001,634,951,1001,447,1.29,776.04,2.18,58.14,447,302,158.7,301,25184,205344,2416,0.97,-0.06,0.24,-0.04,-0.3,-1.36,-4.13,-74.18,45.46,5.19,11.51,43.47,2.02,Sitting
45:26.4,691,634,951,1001,447,1.29,776.04,2.18,58.14,447,302,158.7,301,25184,231012,2718,0.98,-0.06,0.22,-0.53,-0.16,-2.1,-3.78,-75.3,45.46,4.98,11.38,43.49,1.77,Sitting
45:26.5,275,630,945,1001,445,1.3,769.9,2.17,55.79,446,301,160.02,301,25606,0,0,0.97,-0.08,0.23,1.53,-1.37,-1.63,-4.91,-74.37,45.66,4.65,11.3,43.64,1.49,Sitting
45:26.6,0,624,936,1001,445,1.3,769.9,2.17,55.79,446,301,160.02,301,25606,25065,301,0.98,-0.06,0.22,-0.79,1.47,0.99,-4.26,-75.14,45.64,4.59,11.47,43.65,1.41,Sitting
45:26.7,0,614,921,1001,446,1.29,772.96,2.18,55.79,446,301,160.02,301,25606,50130,602,0.98,-0.06,0.23,1.59,-0.46,-1.01,-4.17,-74.78,45.85,4.35,11.45,43.85,1.19,Sitting
45:26.8,0,604,906,1001,446,1.29,772.96,2.18,55.79,446,301,160.02,301,25606,75195,903,0.97,-0.07,0.23,2.44,-0.06,1.35,-4.74,-74.32,46.15,4.15,11.67,44.11,1.01,Sitting
45:26.9,0,594,891,1001,446,1.29,772.96,2.18,55.79,446,301,160.02,301,25606,100260,1204,0.96,-0.08,0.24,4.51,1.25,2.64,-5.03,-73.56,46.66,4.07,12.01,44.59,0.97,Sitting
45:27.0,0,584,876,1001,447,1.29,776.04,2.18,55.79,446,301,160.02,301,25606,125325,1505,0.98,-0.07,0.23,1.31,3.02,3.62,-4.39,-74.72,46.84,4.17,12.44,44.79,1.02,Sitting
45:27.1,0,574,861,1001,446,1.29,772.96,2.18,55.79,446,301,160.02,301,25606,150390,1806,0.96,-0.07,0.23,5.08,-4.79,-0.35,-4.81,-74.36,47.4,3.5,12.48,45.31,0.39,Sitting
45:27.2,0,564,846,1001,446,1.29,772.96,2.18,55.79,446,301,160.02,301,25606,175455,2107,0.97,-0.07,0.22,-1.69,-1.7,1.28,-4.48,-75.12,47.28,3.13,12.69,45.21,0,Sitting
45:27.3,0,554,831,1001,445,1.3,769.9,2.17,55.79,446,301,160.02,301,25606,200520,2408,0.98,-0.08,0.23,-0.34,2.91,0.98,-5.21,-74.49,47.3,3.22,12.87,45.2,0.11,Sitting
45:27.4,0,544,816,1001,446,1.29,772.96,2.18,55.79,446,300,160.02,301,25606,224984,2708,0.96,-0.08,0.21,2.73,3.56,0.34,-5.47,-75.09,47.63,3.38,12.98,45.51,0.24,Sitting
45:27.5,0,534,801,1001,445,1.3,769.9,2.17,46.15,445,300,157.94,300,24943,0,0,0.97,-0.07,0.21,-0.38,-5.31,-1.22,-4.9,-75.43,47.65,2.66,12.94,45.55,-0.46,Sitting
45:27.6,0,526,789,1001,446,1.29,772.96,2.18,46.15,445,300,157.94,300,24943,24464,300,1,-0.08,0.23,-1.81,-0.92,-0.57,-4.89,-75.03,47.52,2.37,12.96,45.43,-0.73,Sitting
45:27.7,0,516,774,1001,445,1.3,769.9,2.17,46.15,445,300,157.94,300,24943,48928,600,0.97,-0.1,0.23,-0.89,-2.89,-0.13,-6.48,-73.96,47.49,1.89,13.02,45.33,-1.15,Sitting
45:27.8,0,512,768,1001,445,1.3,769.9,2.17,46.15,445,300,157.94,300,24943,73392,900,0.99,-0.08,0.21,-5.75,4.4,1.21,-5.08,-75.83,46.97,2.13,13.22,44.89,-0.99,Sitting
45:27.9,0,509,763.5,1001,446,1.29,772.96,2.18,46.15,445,300,157.94,300,24943,97856,1200,0.99,-0.08,0.21,-0.26,3.06,-0.02,-5.22,-75.38,47,2.23,13.3,44.91,-0.87,Sitting
45:28.0,0,506,759,1001,447,1.29,776.04,2.18,46.15,445,300,157.94,300,24943,122320,1500,0.97,-0.09,0.2,2.39,2.94,-1.61,-5.52,-75.55,47.3,2.32,13.22,45.18,-0.79,Sitting
45:28.1,0,504,756,1001,446,1.29,772.96,2.18,46.15,445,300,157.94,300,24943,146784,1800,0.96,-0.1,0.21,-1.32,1.48,1.2,-6.46,-74.85,47.22,2.27,13.42,45.07,-0.81,Sitting
45:28.2,0,502,753,1001,446,1.29,772.96,2.18,46.15,445,300,157.94,300,24943,171248,2100,0.96,-0.1,0.23,1.97,-1,2.37,-6.42,-73.97,47.47,1.98,13.73,45.31,-1.06,Sitting
45:28.3,44,497,745.5,1001,446,1.29,772.96,2.18,46.15,445,300,157.94,300,24943,195712,2400,0.99,-0.08,0.22,-0.98,0.15,2.99,-5.21,-75.27,47.43,1.79,14.1,45.32,-1.29,Sitting
45:28.4,514,500,750,1001,446,1.29,772.96,2.18,46.15,445,300,157.94,300,24943,220176,2700,0.98,-0.1,0.21,-0.4,-0.75,1.32,-6.08,-74.93,47.44,1.52,14.32,45.3,-1.54,Sitting
45:28.5,211,499,748.5,1001,446,1.29,772.96,2.18,47.11,445,300,156.41,300,24463,0,0,0.97,-0.11,0.22,-0.48,3.11,1.34,-7.03,-74.28,47.45,1.63,14.53,45.27,-1.41,Sitting
45:28.6,364,500,750,1001,446,1.29,772.96,2.18,47.11,445,300,156.41,300,24463,24464,300,0.99,-0.12,0.22,-0.05,0.78,0.31,-7.1,-74.42,47.5,1.51,14.63,45.32,-1.53,Sitting
45:28.7,528,503,754.5,1001,446,1.29,772.96,2.18,47.11,445,300,156.41,300,24463,48928,600,0.98,-0.12,0.23,2.52,-1.85,-1.41,-7.55,-73.7,47.81,1.12,14.57,45.6,-1.87,Sitting
45:28.8,997,510,765,997,448,1.28,779.13,2.19,47.11,445,300,156.41,300,24463,73392,900,0.96,-0.11,0.2,-1.28,-1.02,0.82,-6.89,-75.22,47.74,0.82,14.73,45.55,-2.22,Sitting
45:28.9,1001,516,774,1001,447,1.29,776.04,2.18,47.11,445,301,156.41,300,24463,98457,1201,0.99,-0.1,0.22,-0.4,-0.2,-0.65,-6.44,-74.7,47.75,0.6,14.74,45.59,-2.41,Sitting
45:29.0,1001,523,784.5,1001,447,1.29,776.04,2.18,47.11,445,301,156.41,300,24463,123522,1502,0.98,-0.12,0.19,-2.12,3.95,-4.21,-7.42,-75.39,47.6,0.8,14.4,45.4,-2.25,Sitting
45:29.1,1001,530,795,1001,447,1.29,776.04,2.18,47.11,445,301,156.41,300,24463,148587,1803,0.98,-0.12,0.17,-3.48,0.11,-4.66,-7.53,-76.23,47.31,0.61,14.02,45.11,-2.46,Sitting
45:29.2,1001,537,805.5,1001,447,1.29,776.04,2.18,47.11,445,302,156.41,300,24463,174255,2105,0.98,-0.1,0.2,-7.24,-1.79,-2.77,-6.47,-75.23,46.64,0.23,13.82,44.52,-2.78,Sitting
45:29.3,1001,543,814.5,1001,448,1.28,779.13,2.19,47.11,445,302,156.41,300,24463,199923,2407,1,-0.09,0.22,-5.77,-2.66,-7.47,-5.9,-74.88,46.11,-0.24,13.14,44.03,-3.22,Sitting
45:29.4,1001,549,823.5,1001,447,1.29,776.04,2.18,47.11,445,302,156.41,300,24463,225591,2709,0.98,-0.1,0.21,-3.94,4.36,-4.13,-6.3,-75.1,45.78,0,12.81,43.69,-3,Sitting
45:29.5,1001,551,826.5,1001,448,1.28,779.13,2.19,57.36,447,302,158.51,301,25124,0,0,0.98,-0.07,0.2,-3.5,3.15,-2.63,-4.78,-76.32,45.49,0.11,12.63,43.48,-2.94,Sitting
45:29.6,1001,557,835.5,1001,448,1.28,779.13,2.19,57.36,447,302,158.51,301,25124,25668,302,0.98,-0.06,0.2,3.27,-4.31,-4.41,-4.27,-76.23,45.87,-0.53,12.26,43.87,-3.55,Sitting
45:29.7,1001,562,843,1001,447,1.29,776.04,2.18,57.36,447,303,158.51,301,25124,51941,605,0.99,-0.07,0.21,1.43,-3.25,-4.74,-4.49,-75.7,46.07,-1.05,11.87,44.05,-4.03,Sitting
45:29.8,1001,568,852,1001,447,1.29,776.04,2.18,57.36,447,303,158.51,301,25124,78214,908,1,-0.06,0.2,-2.37,3.79,-3.47,-3.71,-76.8,45.89,-0.87,11.6,43.91,-3.9,Sitting
45:29.9,999,573,859.5,1001,447,1.29,776.04,2.18,57.36,447,303,158.51,301,25124,104487,1211,0.97,-0.06,0.18,-1.64,2.01,-4.83,-4.21,-77.02,45.78,-0.87,11.2,43.78,-3.91,Sitting
45:30.0,897,577,865.5,1001,447,1.29,776.04,2.18,57.36,447,303,158.51,301,25124,130760,1514,0.98,-0.05,0.18,-8.02,-2.49,-2.69,-3.27,-77.79,45.04,-1.31,11.01,43.1,-4.37,Sitting
45:30.1,658,577,865.5,1001,447,1.29,776.04,2.18,57.36,447,303,158.51,301,25124,157033,1817,1.01,-0.05,0.2,-6.34,-2.9,-2.02,-3.5,-76.64,44.46,-1.8,10.89,42.54,-4.8,Sitting
45:30.2,421,577,865.5,1001,446,1.29,772.96,2.18,57.36,447,303,158.51,301,25124,183306,2120,0.98,-0.08,0.2,-4.26,-5.02,-3,-5.05,-75.91,44.09,-2.51,10.67,42.12,-5.44,Sitting
45:30.3,166,574,861,1001,446,1.29,772.96,2.18,57.36,447,303,158.51,301,25124,209579,2423,1.01,-0.07,0.18,-4.67,3.95,-0.51,-4.76,-77.44,43.68,-2.31,10.69,41.74,-5.32,Sitting
45:30.4,81,570,855,1001,445,1.3,769.9,2.17,57.36,447,303,158.51,301,25124,235852,2726,0.99,-0.04,0.23,-2.58,1.12,-7.66,-2.61,-75.42,43.47,-2.4,10.01,41.63,-5.32,Sitting
45:30.5,0,565,847.5,1001,445,1.3,769.9,2.17,52.49,446,303,161.9,302,26211,0,0,0.97,-0.08,0.16,6.89,-3.14,-12.9,-5.4,-77.66,44.21,-2.91,8.81,42.23,-5.9,Sitting
45:30.6,0,560,840,1001,445,1.3,769.9,2.17,52.49,446,303,161.9,302,26211,26273,303,1.06,-0.01,0.21,-8.71,5.65,3.41,-1.1,-77.22,43.41,-2.55,9.22,41.63,-5.53,Sitting
45:30.7,0,556,834,1001,446,1.29,772.96,2.18,52.49,446,303,161.9,302,26211,52546,606,0.96,0.01,0.14,-5.46,-2.51,-3.63,-0.07,-80.11,42.93,-2.99,8.95,41.21,-6.07,Sitting
45:30.8,0,553,829.5,1001,445,1.3,769.9,2.17,52.49,446,303,161.9,302,26211,78819,909,0.93,0.01,0.14,-12.71,-5.62,-3.67,-0.08,-79.9,41.71,-3.75,8.66,40.04,-6.8,Sitting
45:30.9,0,549,823.5,1001,445,1.3,769.9,2.17,52.49,446,303,161.9,302,26211,105092,1212,0.92,-0.06,0.18,-0.08,9.6,-3.78,-4.43,-76.84,41.76,-3,8.36,39.91,-5.95,Sitting
45:31.0,0,545,817.5,1001,445,1.3,769.9,2.17,52.49,446,303,161.9,302,26211,131365,1515,0.94,-0.05,0.11,-7.76,10.73,7.52,-3.34,-81.04,41.04,-2.13,9.19,39.26,-5.28,Sitting
45:31.1,0,541,811.5,1001,446,1.29,772.96,2.18,52.49,446,303,161.9,302,26211,157638,1818,1.04,0.01,0.19,-6.8,2.97,10.5,-0.18,-77.94,40.41,-2.03,10.32,38.79,-5.07,Sitting
45:31.2,0,537,805.5,1001,445,1.3,769.9,2.17,52.49,446,304,161.9,302,26211,184518,2122,1.05,-0.02,0.19,1.87,-15.51,-11.66,-1.6,-78.16,40.65,-3.76,9.25,38.96,-6.74,Sitting
45:31.3,0,531,796.5,1001,445,1.3,769.9,2.17,52.49,446,304,161.9,302,26211,211398,2426,0.97,-0.18,0.31,3.25,3.41,-10.31,-10.76,-67.94,41.03,-3.62,8.3,38.96,-6.2,Sitting
45:31.4,0,525,787.5,1001,446,1.29,772.96,2.18,52.49,446,303,161.9,302,26211,237671,2729,0.99,-0.08,0.19,0.09,11.83,7.92,-5.25,-76.51,41.1,-2.63,9.18,39.24,-5.59,Sitting
45:31.5,0,519,778.5,1001,445,1.3,769.9,2.17,41.04,445,303,162.46,303,26393,0,0,1.01,-0.06,0.18,7.82,5.31,14.16,-3.82,-78.08,41.91,-2.31,10.63,40.08,-5.34,Sitting
45:31.6,0,512,768,1001,445,1.3,769.9,2.17,41.04,445,302,162.46,303,26393,25668,302,1.01,-0.08,0.18,15,1,9.11,-4.91,-77.29,43.45,-2.41,11.61,41.52,-5.4,Sitting
45:31.7,0,503,754.5,1001,445,1.3,769.9,2.17,41.04,445,302,162.46,303,26393,51336,604,0.98,-0.09,0.17,17.89,-5.11,7.81,-5.65,-77.1,45.3,-3.12,12.47,43.26,-6.08,Sitting
45:31.8,0,494,741,1001,446,1.29,772.96,2.18,41.04,445,302,162.46,303,26393,77004,906,0.98,-0.11,0.21,17.5,-3.61,4,-6.64,-75.05,47.08,-3.67,12.95,44.94,-6.53,Sitting
45:31.9,0,485,727.5,1001,446,1.29,772.96,2.18,41.04,445,302,162.46,303,26393,102672,1208,0.99,-0.09,0.21,12.5,5.29,5.15,-5.91,-75.41,48.38,-3.35,13.54,46.21,-6.23,Sitting
45:32.0,0,475,712.5,1001,445,1.3,769.9,2.17,41.04,445,302,162.46,303,26393,128340,1510,0.99,-0.09,0.18,3.35,9.25,-0.04,-5.73,-76.9,48.77,-2.62,13.61,46.59,-5.59,Sitting
45:32.1,0,467,700.5,1001,445,1.3,769.9,2.17,41.04,445,302,162.46,303,26393,154008,1812,1,-0.11,0.21,8.97,-6.05,-0.59,-6.67,-75.29,49.72,-3.43,13.63,47.46,-6.3,Sitting
45:32.2,0,459,688.5,1001,447,1.29,776.04,2.18,41.04,445,302,162.46,303,26393,179676,2114,0.99,-0.08,0.21,0.11,4.18,-2.4,-4.9,-75.65,49.79,-3.21,13.47,47.6,-6.11,Sitting
45:32.3,0,453,679.5,1001,445,1.3,769.9,2.17,41.04,445,302,162.46,303,26393,205344,2416,0.97,-0.05,0.24,-2.9,9.2,-1.97,-3.35,-74.33,49.55,-2.49,13.35,47.44,-5.37,Sitting
45:32.4,94,449,673.5,1001,445,1.3,769.9,2.17,41.04,445,302,162.46,303,26393,231012,2718,1,-0.09,0.24,4.98,-1.06,-6.66,-5.38,-73.93,50.1,-2.8,12.77,47.88,-5.64,Sitting
45:32.5,229,447,670.5,1001,446,1.29,772.96,2.18,43.15,445,303,160.4,302,25727,0,0,0.97,-0.07,0.19,-5.9,6.34,-0.5,-4.42,-76.4,49.57,-2.37,12.8,47.41,-5.33,Sitting
45:32.6,307,446,669,1001,446,1.29,772.96,2.18,43.15,445,303,160.4,302,25727,26273,303,0.98,-0.06,0.21,-1.03,0.44,-1.78,-3.85,-75.68,49.53,-2.52,12.7,47.39,-5.45,Sitting
45:32.7,307,445,667.5,1001,446,1.29,772.96,2.18,43.15,445,304,160.4,302,25727,53153,607,0.99,-0.07,0.22,2.44,1.1,-4.4,-4.45,-75.04,49.82,-2.61,12.34,47.65,-5.51,Sitting
45:32.8,174,443,664.5,1001,445,1.3,769.9,2.17,43.15,445,304,160.4,302,25727,80033,911,0.97,-0.06,0.23,-3.22,2.04,-2.22,-4.11,-74.78,49.56,-2.61,12.2,47.41,-5.49,Sitting
45:32.9,65,440,660,1001,446,1.29,772.96,2.18,43.15,445,304,160.4,302,25727,106913,1215,0.97,-0.05,0.2,-2.86,0.93,-2.42,-3.71,-76.27,49.33,-2.71,12.04,47.21,-5.66,Sitting
45:33.0,105,439,658.5,1001,445,1.3,769.9,2.17,43.15,445,305,160.4,302,25727,134402,1520,0.98,-0.06,0.22,-1.69,3.38,-4.31,-3.76,-75.24,49.21,-2.58,11.69,47.09,-5.48,Sitting
45:33.1,152,438,657,1001,445,1.3,769.9,2.17,43.15,445,305,160.4,302,25727,161891,1825,0.99,-0.05,0.22,-3.12,0.38,-3.11,-3.42,-75.67,48.96,-2.74,11.46,46.86,-5.65,Sitting
45:37.5,1001,1001,1501.5,1001,447,1.29,776.04,2.18,0,0,311,0,0,0,62370,622,0.95,0.07,0.29,-1.17,4.13,-3.81,3.3,-71.13,0.08,0.24,-1.01,0.21,-2.61,Left Fall while Sitting
45:37.6,1001,1001,1501.5,1001,447,1.29,776.04,2.18,0,0,311,0,0,0,93555,933,0.97,0.09,0.31,-0.15,2.67,-7.03,4.2,-70.39,0.12,0.31,-1.62,0.28,-2.52,Left Fall while Sitting
45:37.7,651,884,1326,1001,446,1.29,772.96,2.18,0,0,310,0,0,0,124119,1243,0.96,0.08,0.3,2.44,2.39,-8.31,3.86,-70.63,0.41,0.35,-2.35,0.55,-2.49,Left Fall while Sitting
45:37.8,164,704,1056,1001,446,1.29,772.96,2.18,0,0,309,0,0,0,154064,1552,0.94,0.09,0.3,4.3,3.72,-10.21,4.92,-69.95,0.88,0.51,-3.27,1.04,-2.3,Left Fall while Sitting
45:37.9,0,563,844.5,1001,446,1.29,772.96,2.18,0,0,310,0,0,0,184628,1862,0.96,0.12,0.32,1.56,2.85,-14.28,6.18,-68.95,1.09,0.6,-4.57,1.29,-2.18,Left Fall while Sitting
45:38.0,0,469,703.5,1001,445,1.3,769.9,2.17,0,0,312,0,0,0,216436,2174,0.93,0.14,0.29,-2.56,1.31,-11.21,7.5,-69.3,0.89,0.53,-5.58,1.16,-2.26,Left Fall while Sitting
45:38.1,0,402,603,1001,445,1.3,769.9,2.17,0,0,312,0,0,0,248244,2486,0.94,0.15,0.31,0.88,1.68,-9.31,8.26,-68.42,1.03,0.5,-6.41,1.32,-2.26,Left Fall while Sitting
45:38.2,0,352,528,1001,446,1.29,772.96,2.18,0,0,312,0,0,0,280052,2798,0.95,0.19,0.29,-3.46,2.08,-8.91,10.25,-68.38,0.75,0.51,-7.19,1.13,-2.25,Left Fall while Sitting
45:38.3,0,313,469.5,1001,446,1.29,772.96,2.18,49.87,446,312,176.6,311,31185,0,0,0.88,0.17,0.33,-0.16,1.19,-9.99,9.59,-65.81,0.79,0.43,-8.09,1.15,-2.22,Left Fall while Sitting
45:38.4,0,281,421.5,1001,446,1.29,772.96,2.18,49.87,446,313,176.6,311,31185,32433,313,0.94,0.19,0.3,2.08,2.08,-7.82,10.05,-67.99,1.05,0.44,-8.78,1.41,-2.3,Left Fall while Sitting
45:38.5,0,256,384,1001,446,1.29,772.96,2.18,49.87,446,314,176.6,311,31185,4294967253,627,0.94,0.22,0.31,5.76,6.2,-10.52,11.93,-66.12,1.68,0.85,-9.74,2.09,-1.83,Left Fall while Sitting
45:38.6,0,234,351,1001,446,1.29,772.96,2.18,49.87,446,316,176.6,311,31185,4294936037,943,0.88,0.25,0.34,2.83,4.05,-14.08,14.2,-62.63,2.02,1.06,-11.09,2.51,-1.49,Left Fall while Sitting
45:38.7,0,216,324,1001,446,1.29,772.96,2.18,49.87,446,317,176.6,311,31185,4294905454,1260,0.91,0.27,0.34,1.47,1.25,-20.02,14.64,-62.94,2.22,0.98,-12.99,2.72,-1.57,Left Fall while Sitting
45:38.8,0,201,301.5,1001,446,1.29,772.96,2.18,49.87,446,319,176.6,311,31185,4294876143,1579,0.9,0.28,0.29,-4.13,-2.47,-18.63,15.9,-64.31,1.87,0.54,-14.76,2.43,-2.05,Left Fall while Sitting
45:38.9,0,187,280.5,1001,446,1.29,772.96,2.18,49.87,446,320,176.6,311,31185,4294847471,1899,0.89,0.31,0.32,-8.85,-3.34,-24.44,17.54,-61.94,1.03,0,-17.14,1.69,-2.48,Left Fall while Sitting
45:39.0,0,176,264,1001,445,1.3,769.9,2.17,49.87,446,324,176.6,311,31185,4294821375,2223,0.87,0.33,0.28,-4.85,-7.46,-24.54,19.14,-62.22,0.6,-0.94,-19.52,1.34,-3.39,Left Fall while Sitting
45:39.1,0,165,247.5,1001,446,1.29,772.96,2.18,49.87,446,325,176.6,311,31185,4294795928,2548,0.85,0.38,0.26,-4.78,-7.21,-16.98,22.65,-59.99,0.18,-1.86,-21.14,1.08,-4.19,Left Fall while Sitting
45:39.2,0,156,234,1001,446,1.29,772.96,2.18,49.87,446,337,176.6,311,31185,4294778425,2885,0.83,0.41,0.3,0.2,-4.39,-20.58,24.07,-57.3,0.26,-2.51,-23.14,1.21,-4.7,Left Fall while Sitting
45:39.3,55,151,226.5,1001,447,1.29,776.04,2.18,48.04,446,368,20723.86,325,429478272,0,0,0.86,0.45,0.21,2.71,-6.56,-18.68,26.26,-58.63,0.58,-3.36,-24.91,1.61,-5.57,Left Fall while Sitting
45:39.4,46,145,217.5,1001,446,1.29,772.96,2.18,48.04,446,377,20723.86,325,429478272,11057,377,0.86,0.46,0.23,7.42,-1.61,-14.71,26.92,-57.35,1.38,-3.72,-26.3,2.4,-5.86,Left Fall while Sitting
45:39.5,813,177,265.5,1001,443,1.31,763.79,2.17,48.04,446,915,20723.86,325,429478272,4294963610,1292,0.87,0.47,0.24,7.43,-1.62,-14.72,26.93,-57.36,1.39,-3.73,-26.31,2.41,-5.87,Left Fall while Sitting
45:39.6,823,207,310.5,1001,443,1.31,763.79,2.17,48.04,446,937,20723.86,325,429478272,22315,2229,0.94,0.09,0.36,-0.53,0.11,-1.66,3.91,-64.35,-4.04,0.87,-12.61,-2.15,-67.61,Left Fall while Sitting
45:39.7,823,233,349.5,1001,443,1.31,763.79,2.17,48.04,446,969,20723.86,325,429478272,43772,3198,0.94,0.1,0.36,-0.62,0.44,-0.55,4.25,-63.99,-4.17,0.96,-12.73,-2.16,-67.45,Left Fall while Sitting
45:39.8,823,258,387,1001,444,1.3,766.84,2.17,48.04,446,969,20723.86,325,429478272,65229,4167,0.93,0.09,0.36,0.89,-0.39,0.21,3.82,-64.18,-4.01,0.89,-12.69,-1.88,-67.45,Left Fall while Sitting
45:39.9,823,280,420,1001,443,1.31,763.79,2.17,48.04,446,960,20723.86,325,429478272,69325,5127,0.94,0.09,0.37,-1.78,-0.18,-0.52,3.9,-64.02,-4.34,0.86,-12.79,-2.08,-67.41,Left Fall while Sitting
45:40.0,823,301,451.5,1001,443,1.31,763.79,2.17,48.04,446,972,20723.86,325,429478272,96605,6099,0.94,0.09,0.37,1.16,-0.68,-0.27,4.12,-63.84,-4.12,0.74,-12.84,-1.75,-67.46,Left Fall while Sitting
45:40.1,824,321,481.5,1001,443,1.31,763.79,2.17,48.04,446,986,20723.86,325,429478272,85761,7085,0.93,0.09,0.37,0.12,0.95,1.01,3.83,-64.09,-4.1,0.91,-12.65,-1.62,-67.23,Left Fall while Sitting
45:40.2,824,339,508.5,1001,443,1.31,763.79,2.17,48.04,446,991,20723.86,325,429478272,84802,8076,0.93,0.09,0.36,-0.9,0.13,-0.18,3.96,-63.93,-4.26,0.93,-12.69,-1.66,-67.14,Left Fall while Sitting
45:40.3,824,355,532.5,1001,443,1.31,763.79,2.17,20724.3,443,993,93.71,906,8780,0,0,0.93,0.09,0.37,0.22,-0.01,0.47,3.79,-63.83,-4.22,0.93,-12.6,-1.51,-67.08,Left Fall while Sitting
45:40.4,825,371,556.5,1001,443,1.31,763.79,2.17,20724.3,443,991,93.71,906,8780,4294966337,991,0.93,0.09,0.36,0.61,0.01,0.23,3.9,-64.17,-4.11,0.93,-12.56,-1.3,-67.02,Left Fall while Sitting
45:40.5,825,386,579,1001,443,1.31,763.79,2.17,20724.3,443,983,93.71,906,8780,4294949586,1974,0.94,0.1,0.37,-0.37,0.98,-0.35,4.22,-63.26,-4.18,1.11,-12.62,-1.25,-66.77,Left Fall while Sitting
45:40.6,824,399,598.5,1001,443,1.31,763.79,2.17,20724.3,443,986,93.71,906,8780,4294938742,2960,0.93,0.1,0.36,-3.97,4.42,-4.09,4.63,-63.24,-4.89,1.9,-13.36,-1.83,-65.92,Left Fall while Sitting
45:40.7,824,412,618,1001,443,1.31,763.79,2.17,20724.3,443,985,93.71,906,8780,4294925927,3945,0.93,0.12,0.39,0.7,2.27,-14.6,5.38,-61.02,-4.76,2.3,-15.97,-1.56,-65.43,Left Fall while Sitting
45:40.8,824,424,636,1001,443,1.31,763.79,2.17,20724.3,443,983,93.71,906,8780,4294909176,4928,0.9,0.12,0.39,5.74,-0.86,-13.54,5.3,-60.63,-3.73,2.15,-18.41,-0.41,-65.48,Left Fall while Sitting
45:40.9,824,436,654,1001,443,1.31,763.79,2.17,20724.3,443,974,93.71,906,8780,4294940348,5902,0.91,0.23,0.39,1.28,-1.38,-5.85,9.82,-55.89,-3.5,1.9,-19.47,0.02,-65.54,Left Fall while Sitting
45:41.0,825,446,669,1001,444,1.3,766.84,2.17,20724.3,443,968,93.71,906,8780,4294959868,6870,0.92,0.27,0.34,0.67,-17,-10.56,12.02,-56.78,-3.38,-1.13,-21.35,0.38,-68.33,Left Fall while Sitting
45:41.1,825,457,685.5,1001,443,1.31,763.79,2.17,20724.3,443,966,93.71,906,8780,8224,7836,0.9,0.2,0.33,0.99,-11.89,-11.34,9.38,-59.49,-3.19,-3.3,-23.43,0.74,-70.28,Left Fall while Sitting
45:41.2,825,466,699,1001,443,1.31,763.79,2.17,20724.3,443,962,93.71,906,8780,16164,8798,0.95,0.28,0.25,2.81,-15.23,-3.5,13.1,-60.78,-2.68,-6.08,-24.06,1.49,-72.81,Left Fall while Sitting
45:41.3,825,476,714,1001,443,1.31,763.79,2.17,20724.3,443,959,42.83,975,1833,0,0,0.95,0.29,0.2,-10.4,-19.55,-23.63,14.08,-62.91,-4.58,-9.63,-28.36,-0.12,-76.1,Left Fall while Sitting
45:41.4,825,484,726,1001,443,1.31,763.79,2.17,20724.3,443,956,42.83,975,1833,4294963728,956,0.96,0.34,0.16,3.56,-20.74,-14.7,17.16,-62.1,-3.91,-13.49,-31.1,0.88,-79.6,Left Fall while Sitting
45:41.5,825,493,739.5,1001,443,1.31,763.79,2.17,20724.3,443,955,42.83,975,1833,4294958249,1911,0.9,0.39,0.12,1.94,-8.91,-21.45,21.02,-60.04,-3.56,-15.13,-35.05,1.63,-80.81,Left Fall while Sitting
45:41.6,826,500,750,1001,443,1.31,763.79,2.17,20724.3,443,955,42.83,975,1833,4294952770,2866,0.9,0.48,0.1,-3.82,-10.79,-27.28,25.69,-57.29,-4.25,-17.1,-40.04,1.43,-82.28,Left Fall while Sitting
45:41.7,826,508,762,1001,443,1.31,763.79,2.17,20724.3,443,953,42.83,975,1833,4294943475,3819,0.86,0.51,0.07,0.95,-3.09,-14.29,28.89,-56.12,-4.08,-17.67,-42.67,2.15,-82.31,Left Fall while Sitting
45:41.8,826,515,772.5,1001,443,1.31,763.79,2.17,20724.3,443,954,42.83,975,1833,4294936087,4773,0.83,0.57,0.05,-7.92,-1.44,-13.86,32.98,-53.26,-5.53,-17.94,-45.21,1.34,-81.99,Left Fall while Sitting
45:41.9,826,522,783,1001,443,1.31,763.79,2.17,20724.3,443,955,42.83,975,1833,4294930608,5728,0.81,0.58,0.11,-5.59,4.59,-11.59,32.33,-49.75,-6.56,-17.09,-47.35,0.95,-80.51,Left Fall while Sitting
45:42.0,827,529,793.5,1001,443,1.31,763.79,2.17,20724.3,443,957,42.83,975,1833,4294928953,6685,0.74,0.59,0.09,0.64,-0.5,-18.44,35.54,-46.94,-6.45,-17.18,-50.71,1.76,-79.93,Left Fall while Sitting
45:42.1,827,535,802.5,1001,443,1.31,763.79,2.17,20724.3,443,957,42.83,975,1833,4294927298,7642,0.76,0.7,0.1,-1.92,5.99,-5.62,39.05,-43.39,-6.8,-16.08,-51.73,2.16,-78.13,Left Fall while Sitting
45:42.2,826,541,811.5,1001,443,1.31,763.79,2.17,20724.3,443,955,42.83,975,1833,4294921819,8597,0.68,0.67,0.15,-0.59,5.61,-7.76,38.7,-39.97,-6.91,-15.06,-53.15,2.78,-76.36,Left Fall while Sitting
45:42.3,826,547,820.5,1001,443,1.31,763.79,2.17,20724.3,443,955,20724.18,955,429491648,0,0,0.72,0.72,0.11,9.51,7.41,-3.42,40.97,-40.99,-5.18,-13.71,-53.77,5.24,-74.33,Left Fall while Sitting
45:42.4,826,553,829.5,1001,442,1.31,760.76,2.16,20724.3,443,951,20724.18,955,429491648,4294954193,951,0.77,0.7,0.09,-3.75,-1.03,-6.09,39.33,-44.01,-5.85,-13.9,-54.86,5.26,-73.91,Left Fall while Sitting
45:42.5,827,558,837,1001,442,1.31,760.76,2.16,20724.3,443,948,20724.18,955,429491648,4294935393,1899,0.68,0.73,0.09,-1.4,-3.87,-9.92,43.53,-39.86,-6.11,-14.61,-56.68,5.78,-73.92,Left Fall while Sitting
45:42.6,826,563,844.5,1001,442,1.31,760.76,2.16,20724.3,443,946,20724.18,955,429491648,4294912805,2845,0.69,0.71,0.11,-1.57,-2.6,-6.89,41.66,-39.68,-6.4,-15.08,-57.94,6.21,-73.7,Left Fall while Sitting
45:42.7,825,568,852,1001,443,1.31,763.79,2.17,20724.3,443,948,20724.18,955,429491648,4294894005,3793,0.64,0.74,0.07,0.7,-0.33,-5.73,45.99,-38.38,-6.27,-15.14,-58.97,7.13,-73.05,Left Fall while Sitting
45:42.8,826,573,859.5,1001,443,1.31,763.79,2.17,20724.3,443,949,20724.18,955,429491648,4294877102,4742,0.67,0.77,-0.02,-2.14,-2.76,-5.74,49.81,-41.54,-6.65,-15.63,-59.99,7.61,-72.9,Left Fall while Sitting
45:42.9,826,577,865.5,1001,443,1.31,763.79,2.17,20724.3,443,951,20724.18,955,429491648,4294863999,5693,0.62,0.77,0.09,4.12,1.05,-5.1,47.39,-35.91,-5.91,-15.45,-60.9,9.13,-71.98,Left Fall while Sitting
45:43.0,826,582,873,1001,443,1.31,763.79,2.17,20724.3,443,956,20724.18,955,429491648,4294860431,6649,0.6,0.78,0.1,-1.74,-1.81,-3.44,48.03,-34.13,-6.22,-15.77,-61.51,9.6,-71.54,Left Fall while Sitting
45:43.1,827,586,879,1001,442,1.31,760.76,2.16,20724.3,443,953,20724.18,955,429491648,4294851136,7602,0.63,0.84,0.01,1.12,-2.13,-4.87,52.86,-36.36,-6.02,-16.16,-62.41,10.67,-71.22,Left Fall while Sitting
45:43.2,827,590,885,1001,442,1.31,760.76,2.16,20724.3,443,948,20724.18,955,429491648,4294832336,8550,0.68,0.84,-0.02,1.27,-1.56,-7.05,51.81,-39.66,-5.79,-16.44,-63.69,11.72,-70.87,Left Fall while Sitting
45:43.4,826,594,891,1001,442,1.31,760.76,2.16,20724.28,442,945,20723.92,949,429480768,0,0,0.58,0.8,0.06,-2.52,-0.11,-4.06,51.38,-34.09,-6.25,-16.47,-64.44,12.06,-70.15,Left Fall while Sitting
45:43.4,826,598,897,1001,443,1.31,763.79,2.17,20724.28,442,944,20723.92,949,429480768,4294940928,944,0.57,0.8,0.06,0.96,1.82,0.17,51.74,-33.59,-6.07,-16.13,-64.41,13.02,-69.09,Left Fall while Sitting
45:43.6,826,602,903,1001,443,1.31,763.79,2.17,20724.28,442,946,20723.92,949,429480768,4294918340,1890,0.57,0.81,0.07,-3.19,0.07,-3.18,51.77,-32.86,-6.65,-16.12,-64.98,13.24,-68.36,Left Fall while Sitting
45:43.7,826,605,907.5,1001,443,1.31,763.79,2.17,20724.28,442,947,20723.92,949,429480768,4294897645,2837,0.55,0.82,0.06,-2.5,1.63,0.06,53.48,-31.91,-7.1,-15.82,-64.97,13.6,-67.34,Left Fall while Sitting
45:43.8,826,609,913.5,1001,442,1.31,760.76,2.16,20724.28,442,951,20723.92,949,429480768,4294884542,3788,0.55,0.81,0.09,-1.74,-1.99,-0.32,51.63,-31.33,-7.42,-16.18,-65.03,14.05,-66.97,Left Fall while Sitting
45:43.9,827,612,918,1001,442,1.31,760.76,2.16,20724.28,442,956,20723.92,949,429480768,4294880974,4744,0.58,0.81,0.07,2.6,2.1,-1.39,51.39,-33.12,-6.94,-15.8,-65.28,15.26,-65.92,Left Fall while Sitting
45:44.0,827,616,924,1001,442,1.31,760.76,2.16,20724.28,442,951,20723.92,949,429480768,4294867871,5695,0.54,0.82,0.06,-2.29,-0.89,0.32,53.35,-31.71,-7.36,-15.96,-65.22,15.62,-65.39,Left Fall while Sitting
45:44.1,826,619,928.5,1001,442,1.31,760.76,2.16,20724.28,442,946,20723.92,949,429480768,4294845283,6641,0.55,0.82,0.06,-0.47,-1.84,1.88,53.01,-32.23,-7.44,-16.29,-64.88,16.28,-65.06,Left Fall while Sitting
45:44.2,826,622,933,1001,442,1.31,760.76,2.16,20724.28,442,944,20723.92,949,429480768,4294818915,7585,0.57,0.82,0.09,-0.35,0.37,2.95,51.42,-32.09,-7.51,-16.23,-64.34,16.92,-64.33,Left Fall while Sitting
45:44.3,826,625,937.5,1001,442,1.31,760.76,2.16,20724.28,442,947,20723.92,949,429480768,4294798220,8532,0.57,0.8,0.07,-1.13,-0.36,1.83,50.89,-33.43,-7.71,-16.29,-64.01,17.4,-63.78,Left Fall while Sitting
45:44.4,826,628,942,1001,442,1.31,760.76,2.16,20724.28,442,946,20723.84,947,429477568,0,0,0.58,0.79,0.09,-2.2,-0.95,1.82,49.67,-33.28,-8.11,-16.46,-63.68,17.65,-63.34,Left Fall while Sitting
45:44.5,826,631,946.5,1001,442,1.31,760.76,2.16,20724.28,442,946,20723.84,947,429477568,4294944708,946,0.58,0.79,0.09,-0.01,-1.32,2.4,50.02,-33.42,-8.11,-16.71,-63.24,18.3,-62.98,Left Fall while Sitting
45:44.6,827,633,949.5,1001,442,1.31,760.76,2.16,20724.28,442,955,20723.84,947,429477568,4294939229,1901,0.59,0.79,0.08,-0.67,0.34,0.72,49.54,-34.48,-8.24,-16.64,-63.11,18.8,-62.34,Left Fall while Sitting
45:44.7,827,636,954,1001,442,1.31,760.76,2.16,20724.28,442,953,20723.84,947,429477568,4294929934,2854,0.59,0.79,0.08,-0.27,-1.32,1.5,49.9,-34.07,-8.29,-16.88,-62.84,19.37,-62.01,Left Fall while Sitting
45:44.8,827,639,958.5,1001,442,1.31,760.76,2.16,20724.28,442,948,20723.84,947,429477568,4294911134,3802,0.6,0.78,0.08,-1.65,-1.18,1.88,49.19,-34.94,-8.59,-17.1,-62.5,19.68,-61.69,Left Fall while Sitting
45:44.9,827,641,961.5,1001,443,1.31,763.79,2.17,20724.28,442,945,20723.84,947,429477568,4294886655,4747,0.6,0.78,0.1,-1.92,0.16,-0.85,48.22,-34.2,-8.94,-17.07,-62.65,19.9,-61.11,Left Fall while Sitting
45:45.0,826,644,966,1001,443,1.31,763.79,2.17,20724.28,442,944,20723.84,947,429477568,4294860287,5691,0.61,0.78,0.09,0,-0.04,1.71,47.98,-35.32,-8.94,-17.08,-62.34,20.47,-60.6,Left Fall while Sitting
45:45.1,826,646,969,1001,442,1.31,760.76,2.16,20724.28,442,946,20723.84,947,429477568,4294837699,6637,0.6,0.79,0.09,0.26,-3.05,0.14,49.01,-34.4,-8.89,-17.63,-62.31,21.08,-60.62,Left Fall while Sitting
45:45.2,827,648,972,1001,442,1.31,760.76,2.16,20724.28,442,947,20723.84,947,429477568,4294817004,7584,0.97,0.04,0.29,-0.51,-1.67,-1.66,1.99,-70.97,-3.88,-12.63,-12.59,0.66,-81.59,Left Fall while Sitting
45:45.3,827,651,976.5,1001,442,1.31,760.76,2.16,20724.28,442,952,20723.84,947,429477568,4294805804,8536,0.96,0.05,0.23,-1.23,0.59,0.26,2.38,-74.04,-4.14,-12.51,-12.54,0.43,-81.31,Left Fall while Sitting
45:45.4,827,653,979.5,1001,442,1.31,760.76,2.16,20724.28,442,950,20723.88,948,429479072,0,0,0.99,0.04,0.29,2.3,1.13,0.67,1.73,-71.82,-3.74,-12.31,-12.42,0.86,-80.93,Left Fall while Sitting
45:45.5,826,655,982.5,1001,442,1.31,760.76,2.16,20724.28,442,948,20723.88,948,429479072,4294948496,948,0.95,0.05,0.3,-2.1,-3.12,-4.67,2.42,-69.31,-4.1,-12.85,-13.24,0.53,-81.23,Left Fall while Sitting
45:45.6,826,657,985.5,1001,443,1.31,763.79,2.17,20724.28,442,946,20723.88,948,429479072,4294925908,1894,0.99,0.05,0.27,-0.15,3.14,-0.87,2.17,-72.43,-4.13,-12.29,-13.39,0.53,-80.5,Left Fall while Sitting
45:45.7,826,659,988.5,1001,443,1.31,763.79,2.17,20724.28,442,943,20723.88,948,429479072,4294897653,2837,0.97,0.05,0.3,1.7,2.59,-0.49,2.1,-70.17,-3.83,-11.83,-13.48,0.86,-79.84,Left Fall while Sitting
45:45.8,825,661,991.5,1001,443,1.31,763.79,2.17,20724.28,442,944,20723.88,948,429479072,4294871285,3781,0.99,0.05,0.27,-0.15,3.14,-0.87,2.17,-72.43,-4.13,-12.29,-13.39,0.53,-80.5,Left Fall while Sitting
45:45.9,826,663,994.5,1001,443,1.31,763.79,2.17,20724.28,442,945,20723.88,948,429479072,4294846806,4726,0.97,0.05,0.3,1.7,2.59,-0.49,2.1,-70.17,-3.83,-11.83,-13.48,0.86,-79.84,Left Fall while Sitting
45:46.0,826,665,997.5,1001,443,1.31,763.79,2.17,20724.28,442,947,20723.88,948,429479072,4294826111,5673,0.59,0.79,0.08,-0.67,0.34,0.72,49.54,-34.48,-8.24,-16.64,-63.11,18.8,-62.34,Left Fall while Sitting
45:46.1,826,667,1000.5,1001,442,1.31,760.76,2.16,20724.28,442,947,20723.88,948,429479072,4294805416,6620,0.59,0.79,0.08,-0.27,-1.32,1.5,49.9,-34.07,-8.29,-16.88,-62.84,19.37,-62.01,Left Fall while Sitting
45:46.2,826,669,1003.5,1001,444,1.3,766.84,2.17,20724.28,442,945,20723.88,948,429479072,4294780937,7565,0.6,0.78,0.08,-1.65,-1.18,1.88,49.19,-34.94,-8.59,-17.1,-62.5,19.68,-61.69,Left Fall while Sitting
45:46.3,826,671,1006.5,1001,443,1.31,763.79,2.17,20724.28,442,943,20723.88,948,429479072,4294752682,8508,0.6,0.78,0.1,-1.92,0.16,-0.85,48.22,-34.2,-8.94,-17.07,-62.65,19.9,-61.11,Left Fall while Sitting
45:46.4,826,672,1008,1001,442,1.31,760.76,2.16,20724.29,442,942,20723.71,945,429472256,0,0,0.61,0.78,0.09,0,-0.04,1.71,47.98,-35.32,-8.94,-17.08,-62.34,20.47,-60.6,Left Fall while Sitting
45:46.5,826,674,1011,1001,443,1.31,763.79,2.17,20724.29,442,943,20723.71,945,429472256,4294939041,943,0.6,0.79,0.09,0.26,-3.05,0.14,49.01,-34.4,-8.89,-17.63,-62.31,21.08,-60.62,Left Fall while Sitting
45:46.6,825,676,1014,1001,444,1.3,766.84,2.17,20724.29,442,944,20723.71,945,429472256,4294912673,1887,0.97,0.04,0.29,-0.51,-1.67,-1.66,1.99,-70.97,-3.88,-12.63,-12.59,0.66,-81.59,Left Fall while Sitting
45:46.7,826,677,1015.5,1001,442,1.31,760.76,2.16,20724.29,442,940,20723.71,945,429472256,4294944305,2827,0.96,0.05,0.23,-1.23,0.59,0.26,2.38,-74.04,-4.14,-12.51,-12.54,0.43,-81.31,Left Fall while Sitting
45:46.8,826,679,1018.5,1001,443,1.31,763.79,2.17,20724.29,442,948,20723.71,945,429472256,4294925505,3775,0.99,0.04,0.29,2.3,1.13,0.67,1.73,-71.82,-3.74,-12.31,-12.42,0.86,-80.93,Left Fall while Sitting
45:46.9,825,680,1020,1001,443,1.31,763.79,2.17,20724.29,442,946,20723.71,945,429472256,4294902917,4721,0.95,0.05,0.3,-2.1,-3.12,-4.67,2.42,-69.31,-4.1,-12.85,-13.24,0.53,-81.23,Left Fall while Sitting
45:47.0,825,682,1023,1001,442,1.31,760.76,2.16,20724.29,442,943,20723.71,945,429472256,4294874662,5664,0.99,0.05,0.27,-0.15,3.14,-0.87,2.17,-72.43,-4.13,-12.29,-13.39,0.53,-80.5,Left Fall while Sitting
45:49.5,825,825,1237.5,825,442,1.31,760.76,2.16,0,0,940,0,0,0,5264,1884,0.66,0.76,-0.08,0.67,3.17,8.71,52.68,-44.29,-78.06,-66.36,-151.86,16.38,-65.95,Right Fall while Sitting
45:49.6,825,825,1237.5,825,442,1.31,760.76,2.16,0,0,943,0,0,0,4294944305,2827,0.69,0.72,-0.08,-2.76,5.96,7.27,49.58,-46.96,-78.57,-65.26,-150.51,16.55,-64.49,Right Fall while Sitting
45:49.7,825,825,1237.5,825,443,1.31,763.79,2.17,0,0,944,0,0,0,4294917937,3771,0.68,0.72,-0.03,3.86,5.73,10.9,48.39,-44.48,-77.85,-64.19,-148.47,17.89,-63.04,Right Fall while Sitting
45:49.8,826,825,1237.5,826,442,1.31,760.76,2.16,0,0,947,0,0,0,4294897242,4718,1,-0.05,0.18,-0.45,1.22,0.93,-2.52,-76.9,-3.41,9.27,7.07,-8.19,-65.82,Right Fall while Sitting
45:49.9,826,825,1237.5,826,442,1.31,760.76,2.16,0,0,946,0,0,0,4294874654,5664,1.01,-0.06,0.2,-0.04,-0.27,1.28,-2.93,-75.51,-3.42,9.21,7.35,-8.09,-66.07,Right Fall while Sitting
45:50.0,825,825,1237.5,826,442,1.31,760.76,2.16,0,0,947,0,0,0,4294853959,6611,1.01,-0.07,0.18,0.41,0.14,0.7,-3.21,-76.27,-3.34,9.24,7.47,-7.92,-66.25,Right Fall while Sitting
45:50.1,826,825,1237.5,826,443,1.31,763.79,2.17,0,0,946,0,0,0,4294831371,7557,0.99,-0.06,0.18,-2.4,0.54,0.51,-2.99,-76.18,-3.76,9.33,7.56,-8.24,-66.36,Right Fall while Sitting
45:50.2,825,825,1237.5,826,444,1.3,766.84,2.17,0,0,947,0,0,0,4294810676,8504,0.99,-0.05,0.2,-1.56,-0.23,0.55,-2.47,-75.99,-4.04,9.29,7.66,-8.39,-66.59,Right Fall while Sitting
45:50.3,825,825,1237.5,826,442,1.31,760.76,2.16,20724.29,442,949,20723.89,945,429479360,0,0,0.98,-0.07,0.2,-1.17,-1.66,1.5,-3.22,-75.05,-4.25,9,7.92,-8.49,-67.05,Right Fall while Sitting
45:50.4,826,825,1237.5,826,443,1.31,763.79,2.17,20724.29,442,948,20723.89,945,429479360,4294948496,948,1,-0.07,0.2,-1.95,-1.05,1.93,-3.17,-74.95,-4.6,8.81,8.27,-8.73,-67.39,Right Fall while Sitting
45:50.5,826,825,1237.5,826,442,1.31,760.76,2.16,20724.29,442,950,20723.89,945,429479360,4294933492,1898,0.99,-0.07,0.19,-0.36,-0.55,0.99,-3.5,-75.16,-4.66,8.71,8.44,-8.68,-67.64,Right Fall while Sitting
45:50.6,826,825,1237.5,826,443,1.31,763.79,2.17,20724.29,442,948,20723.89,945,429479360,4294914692,2846,1,-0.08,0.19,-0.16,0.93,-0.06,-3.62,-75.13,-4.69,8.88,8.43,-8.61,-67.63,Right Fall while Sitting
