Datetime, ECGR , AvgECG , ampECG , MAX , GSRR , Resistance , GSR(kohm) , SCL , GSRRMS , GSRMAV , EMGR , EMGRMS , EMGMAV , EMGVAR , EMGSSI , IEMG , AccX , AccY, AccZ , GyroX , GyroY , GyroZ , Aroll , Apitch , Groll , Gpitch, Gy , Combroll , Combpitch,Features
07:04.0,741,741,1111.5,741,576,0.78,1288.59,2.82,0,0,315,0,0,0,4294902973,629,1.01,-0.1,0,-3.73,0.16,-0.76,-6.14,-82.86,-0.43,-0.39,-0.18,-0.66,-3.69,Standing
07:04.1,744,742,1113,744,581,0.76,1314.48,2.84,0,0,316,0,0,0,4294871757,945,1.01,-0.12,0.03,0.03,5.5,1.04,-7.4,-81.37,-0.36,0.04,0.04,-0.64,-3.21,Standing
07:04.2,577,687,1030.5,744,577,0.77,1293.72,2.82,0,0,319,0,0,0,4294842446,1264,1.02,-0.12,0.01,-3.49,-4.65,-3.11,-7.13,-81.84,-0.72,-0.78,-0.24,-0.98,-4.02,Standing
07:04.4,148,552,828,744,576,0.78,1288.59,2.82,0,0,317,0,0,0,4294811863,1581,1.01,-0.1,0,-0.69,3.18,0.46,-6.2,-82.8,-0.74,-0.63,-0.09,-0.96,-3.92,Standing
07:04.5,383,518,777,744,572,0.79,1268.29,2.8,0,0,317,0,0,0,4294781280,1898,1.03,-0.12,0.02,-1.96,0.11,0.49,-7.24,-81.69,-0.91,-0.87,0.07,-1.16,-4.1,Standing
07:04.6,784,562,843,784,574,0.78,1278.4,2.81,0,0,317,0,0,0,4294750697,2215,1.01,-0.11,0,-3.45,-2.57,-2.63,-6.92,-82.08,-1.27,-1.43,-0.16,-1.5,-4.66,Standing
07:04.7,989,623,934.5,989,577,0.77,1293.72,2.82,0,0,318,0,0,0,4294720749,2533,1.01,-0.12,0.01,-0.47,5.5,0.5,-7.51,-81.44,-1.26,-1,0,-1.51,-4.22,Standing
07:04.9,861,653,979.5,989,578,0.77,1298.88,2.83,0,0,318,0,0,0,4294690801,2851,1,-0.12,0.02,-2.14,-3.27,-3.43,-7.28,-81.66,-1.45,-1.65,-0.32,-1.68,-4.85,Standing
07:05.0,603,647,970.5,989,578,0.77,1298.88,2.83,59.46,575,317,20723.56,316,429466016,0,0,1.01,-0.11,0.01,-1.4,6.16,1.27,-6.58,-82.4,-1.56,-1.13,-0.07,-1.76,-4.38,Standing
07:05.1,499,632,948,989,574,0.78,1278.4,2.81,59.46,575,317,20723.56,316,429466016,4294936713,317,1.03,-0.13,0.02,-1.7,1.99,0.23,-7.76,-81.19,-1.7,-1.13,0.06,-1.94,-4.33,Standing
07:05.2,957,662,993,989,575,0.78,1283.48,2.81,59.46,575,317,20723.56,316,429466016,4294906130,634,1.01,-0.1,-0.01,-3.66,-4.5,-3.04,-6.54,-82.44,-2.09,-1.95,-0.22,-2.27,-5.17,Standing
07:05.4,598,657,985.5,989,578,0.77,1298.88,2.83,59.46,575,320,20723.56,316,429466016,4294877458,954,1.01,-0.13,0.01,0.84,5.05,0.93,-7.83,-81.14,-1.91,-1.56,0,-2.15,-4.74,Standing
07:05.5,66,611,916.5,989,574,0.78,1278.4,2.81,59.46,575,316,20723.56,316,429466016,4294846242,1270,1,-0.13,-0.02,0.73,-9.24,-4.78,-7.92,-80.98,-1.75,-2.98,-0.51,-2,-6.1,Standing
07:05.6,765,622,933,989,576,0.78,1288.59,2.82,59.46,575,318,20723.56,316,429466016,4294816294,1588,0.99,-0.08,-0.01,0.87,9.16,-2.77,-5.35,-83.63,-1.57,-2.07,-0.76,-1.72,-5.33,Standing
07:05.7,445,610,915,989,578,0.77,1298.88,2.83,59.46,575,319,20723.56,316,429466016,4294786983,1907,1,-0.11,0.07,3.07,20.41,-1.58,-6.58,-81.27,-1.11,0.27,-0.86,-1.33,-2.99,Standing
07:05.9,30,574,861,989,565,0.81,1233.62,2.76,59.46,575,316,20723.56,316,429466016,4294755767,2223,1.02,-0.12,0.11,-1.69,3.89,-1.79,-7.29,-79.48,-1.25,0.51,-0.98,-1.49,-2.69,Standing
07:06.0,701,581,871.5,989,567,0.8,1243.42,2.77,59.46,575,315,20723.56,316,429466016,4294723920,2538,1.07,-0.08,0.11,9.3,-2.66,-10.83,-5.11,-81.18,0,-0.08,-2.26,-0.2,-3.33,Standing
07:06.1,911,600,900,989,616,0.66,1513.51,3.01,59.46,575,320,20723.56,316,429466016,4294695248,2858,0.97,-0.06,0,1.26,-24.02,4.69,-4.2,-84.8,0.23,-3.36,-1.57,0.06,-6.62,Standing
07:06.2,142,576,864,989,617,0.66,1519.7,3.02,20724.26,582,318,20723.58,317,429466528,0,0,1.04,-0.08,0.03,-1.46,0.24,1.42,-5.17,-83.45,0.12,-3.58,-1.29,-0.09,-6.78,Standing
07:06.4,689,547,820.5,989,175,4.85,206.37,0.86,20724.26,582,277,20723.58,317,429466528,11193,277,1.04,-0.06,0.06,8.19,24.65,-24.56,-3.91,-83.75,1.22,-0.73,-4.29,1.02,-4.05,Standing
07:06.5,845,521,781.5,989,283,2.61,382.43,1.38,20724.26,582,284,20723.58,317,429466528,26313,561,0.65,-0.03,0.27,-6.72,20.17,-13.27,-3.25,-65.92,0.45,1.54,-5.85,0.3,-1.16,Standing
07:06.6,1001,497,745.5,989,312,2.28,438.82,1.52,20724.26,582,283,20723.58,317,429466528,40866,844,1.28,-0.04,-0.05,-16.05,-0.51,2.42,-2.46,-85.39,-1.5,1.23,-5.44,-1.54,-2.24,Standing
07:06.7,158,482,723,989,320,2.2,455.19,1.56,20724.26,582,280,20723.58,317,429466528,53730,1124,1.02,-0.06,0.14,-4.79,18.71,-13.5,-3.68,-80.04,-2.03,3.33,-7.04,-2.1,0,Standing
07:06.9,689,491,736.5,989,323,2.17,461.43,1.58,20724.26,582,281,20723.58,317,429466528,67155,1405,1.01,0.02,0.17,-12.93,20.67,-3.56,0.38,-79.02,-3.6,5.7,-7.39,-3.44,2.31,Standing
07:07.0,845,505,757.5,989,321,2.19,457.26,1.57,20724.26,582,282,20723.58,317,429466528,81143,1687,0.99,0.01,0.12,-11.67,3.98,8.55,0.05,-81.3,-4.99,5.95,-6.23,-4.79,2.46,Standing
07:07.1,396,501,751.5,989,317,2.23,449.01,1.55,20724.26,582,278,20723.58,317,429466528,92891,1965,0.94,-0.03,0.21,7.79,11.47,4.47,-2.54,-75.71,-3.94,7.14,-5.56,-3.88,3.83,Standing
07:07.3,861,514,771,989,317,2.23,449.01,1.55,20724.26,582,280,20723.58,317,429466528,105755,2245,0.96,-0.03,0.26,9.15,1.93,-0.74,-2.5,-73.2,-2.72,7.13,-5.56,-2.71,3.92,Standing
07:07.4,937,529,793.5,989,315,2.25,444.92,1.54,20724.26,582,282,20723.58,317,429466528,119743,2527,0.95,-0.05,0.2,3.65,-9.32,8.6,-3.55,-76.16,-2.19,5.71,-4.37,-2.24,2.43,Standing
07:07.5,625,532,798,989,310,2.3,434.78,1.52,20724.14,299,281,115.39,280,13315,0,0,0.98,-0.03,0.14,3.6,-7.05,8.1,-2.34,-80.13,-1.68,4.6,-3.29,-1.7,1.21,Standing
07:07.6,239,523,784.5,989,303,2.38,420.83,1.48,20724.14,299,277,115.39,280,13315,11193,277,1.14,-0.07,0.07,-2.8,-3.73,16.7,-4.17,-83.46,-1.96,3.89,-1.1,-2.05,0.39,Standing
07:07.8,647,527,790.5,989,303,2.38,420.83,1.48,20724.14,299,277,115.39,280,13315,22386,554,1.01,-0.1,0.15,6.53,1.18,-3.22,-6.19,-78.11,-1.07,3.79,-1.41,-1.28,0.51,Standing
07:07.9,960,540,810,989,301,2.4,416.9,1.47,20724.14,299,278,115.39,280,13315,34134,832,0.97,-0.09,0.15,-0.41,0.33,4.07,-5.78,-78.19,-1.05,3.58,-0.81,-1.24,0.31,Standing
07:08.0,797,548,822,989,297,2.44,409.09,1.45,20724.14,299,280,115.39,280,13315,46998,1112,1,-0.11,0.17,-3.2,-5.02,11.21,-6.58,-77.2,-1.38,2.7,0.69,-1.59,-0.49,Standing
07:08.1,15,532,798,989,296,2.46,407.15,1.45,20724.14,299,277,115.39,280,13315,58191,1389,1.03,-0.15,0.17,1.76,-3.37,3.48,-8.6,-76.05,-1.09,2.03,1.23,-1.39,-1.09,Standing
07:08.3,228,524,786,989,294,2.48,403.29,1.44,20724.14,299,277,115.39,280,13315,69384,1666,1,-0.15,0.13,5.42,0.21,-8.96,-8.98,-77.3,-0.35,1.81,0.21,-0.7,-1.36,Standing
07:08.4,704,529,793.5,989,292,2.5,399.45,1.43,20724.14,299,277,115.39,280,13315,80577,1943,0.98,-0.13,0.11,-3.47,-1.45,-2.92,-7.92,-78.83,-0.72,1.38,-0.05,-1,-1.83,Standing
07:08.5,743,534,801,989,290,2.53,395.63,1.42,20724.14,299,279,115.39,280,13315,92882,2222,1,-0.11,0.13,0.37,3.85,-4.06,-6.87,-78.54,-0.6,1.61,-0.46,-0.85,-1.6,Standing
07:08.6,197,525,787.5,989,287,2.56,389.95,1.4,20724.14,299,277,115.39,280,13315,104075,2499,0.99,-0.1,0.14,-3.2,1.09,-5.63,-6.12,-78.46,-0.93,1.49,-1.07,-1.14,-1.7,Standing
07:08.8,517,525,787.5,989,286,2.58,388.06,1.4,146.51,294,276,107.1,277,11470,0,0,0.99,-0.1,0.15,-1.32,-1.93,-0.37,-6.18,-77.93,-1.02,1.01,-1.01,-1.23,-2.15,Standing
07:08.9,994,537,805.5,994,285,2.59,386.18,1.39,146.51,294,278,107.1,277,11470,11748,278,0.99,-0.1,0.13,-0.77,0.92,-0.18,-6.55,-78.72,-1.05,0.87,-0.94,-1.27,-2.31,Standing
07:09.0,989,548,822,994,283,2.61,382.43,1.38,146.51,294,279,107.1,277,11470,24053,557,1,-0.1,0.14,-1.95,-0.34,-0.53,-6.4,-78.51,-1.22,0.58,-0.9,-1.43,-2.58,Standing
07:09.1,538,548,822,994,280,2.65,376.85,1.37,146.51,294,280,107.1,277,11470,36917,837,1,-0.1,0.13,-1.25,1.05,-2.63,-6.29,-78.93,-1.31,0.47,-1.13,-1.51,-2.71,Standing
07:09.2,167,539,808.5,994,278,2.68,373.15,1.36,146.51,294,277,107.1,277,11470,48110,1114,0.98,-0.1,0.14,-1.05,-1.47,-0.55,-6.2,-78.44,-1.37,0.04,-1.11,-1.56,-3.1,Standing
07:09.4,428,536,804,994,278,2.68,373.15,1.36,146.51,294,279,107.1,277,11470,60415,1393,1,-0.11,0.14,-1.43,-0.47,1.31,-6.63,-78.34,-1.48,-0.27,-0.84,-1.68,-3.4,Standing
07:09.5,930,545,817.5,994,277,2.69,371.31,1.35,146.51,294,280,107.1,277,11470,73279,1673,1,-0.11,0.13,0.8,1.62,-2.35,-6.66,-78.73,-1.31,-0.32,-1.04,-1.52,-3.46,Standing
07:09.6,594,546,819,994,275,2.72,367.65,1.34,146.51,294,282,107.1,277,11470,87267,1955,1.01,-0.1,0.12,-0.89,1.31,-3.4,-6.22,-79.67,-1.35,-0.41,-1.36,-1.54,-3.58,Standing
07:09.7,95,536,804,994,274,2.73,365.82,1.34,146.51,294,281,107.1,277,11470,100692,2236,1,-0.09,0.15,-0.98,-0.37,-2.52,-5.84,-78.62,-1.4,-0.7,-1.58,-1.58,-3.82,Standing
07:09.9,431,534,801,994,275,2.72,367.65,1.34,146.51,294,281,107.1,277,11470,114117,2517,0.99,-0.09,0.13,-2.05,-2.53,0.27,-5.98,-79.08,-1.59,-1.27,-1.45,-1.76,-4.38,Standing
07:10.0,995,544,816,995,274,2.73,365.82,1.34,108.19,277,281,112.93,279,12753,0,0,1,-0.1,0.13,-0.36,0.56,-0.61,-6.23,-79.27,-1.56,-1.45,-1.42,-1.75,-4.56,Standing
07:10.1,698,547,820.5,995,273,2.75,364,1.33,108.19,277,282,112.93,279,12753,13988,282,1.02,-0.11,0.13,-0.93,0.46,-1.62,-6.55,-79.22,-1.61,-1.64,-1.53,-1.81,-4.74,Standing
07:10.2,226,540,810,995,272,2.76,362.18,1.33,108.19,277,282,112.93,279,12753,27976,564,1,-0.09,0.11,-1.29,2.12,-3.35,-5.88,-80.29,-1.7,-1.62,-1.85,-1.87,-4.77,Standing
07:10.4,135,533,799.5,995,272,2.76,362.18,1.33,108.19,277,277,112.93,279,12753,39169,841,0.99,-0.09,0.12,-2.29,-1.39,0.21,-5.71,-79.68,-1.91,-2.05,-1.72,-2.07,-5.15,Standing
07:10.5,584,534,801,995,271,2.77,360.37,1.32,108.19,277,278,112.93,279,12753,50917,1119,1,-0.1,0.13,-2.58,-2.74,0.69,-6.29,-79.13,-2.17,-2.64,-1.54,-2.33,-5.7,Standing
07:10.6,765,538,807,995,270,2.79,358.57,1.32,108.19,277,280,112.93,279,12753,63781,1399,1.01,-0.11,0.11,1.6,-0.76,-1.05,-6.52,-79.79,-1.9,-2.98,-1.57,-2.09,-6.05,Standing
07:10.7,281,533,799.5,995,270,2.79,358.57,1.32,108.19,277,280,112.93,279,12753,76645,1679,1.01,-0.11,0.11,-1.21,4.04,-3.22,-6.73,-79.65,-1.98,-2.73,-1.87,-2.17,-5.8,Standing
07:10.9,162,527,790.5,995,270,2.79,358.57,1.32,108.19,277,279,112.93,279,12753,88950,1958,1,-0.09,0.1,-3.92,0.68,-4.23,-5.82,-80.61,-2.4,-2.89,-2.3,-2.54,-6,Standing
07:11.0,619,528,792,995,271,2.77,360.37,1.32,108.19,277,279,112.93,279,12753,101255,2237,0.99,-0.08,0.11,-3.21,-2.37,2.09,-5.06,-80.55,-2.73,-3.44,-1.94,-2.83,-6.52,Standing
07:11.1,879,534,801,995,271,2.77,360.37,1.32,108.19,277,280,112.93,279,12753,114119,2517,1.01,-0.09,0.11,-1.94,-0.81,2.29,-5.82,-80.18,-2.91,-3.79,-1.56,-3.02,-6.84,Standing
07:11.2,448,533,799.5,995,269,2.8,356.76,1.31,88.61,270,282,113.18,279,12809,0,0,1,-0.1,0.1,1.05,2.23,-3.36,-6.44,-80.13,-2.71,-3.76,-1.88,-2.86,-6.81,Standing
07:11.4,226,528,792,995,270,2.79,358.57,1.32,88.61,270,280,113.18,279,12809,12864,280,0.99,-0.1,0.09,-1.46,2.15,-2.58,-6.22,-80.66,-2.82,-3.74,-2.1,-2.95,-6.82,Standing
07:11.5,234,523,784.5,995,270,2.79,358.57,1.32,88.61,270,281,113.18,279,12809,26289,561,1,-0.09,0.13,-3.69,0.05,3.2,-5.5,-79.68,-3.21,-3.99,-1.6,-3.3,-7.01,Standing
07:11.6,786,527,790.5,995,270,2.79,358.57,1.32,88.61,270,280,113.18,279,12809,39153,841,1.01,-0.11,0.11,-0.63,0.08,0.16,-6.58,-79.64,-3.22,-4.22,-1.48,-3.35,-7.24,Standing
07:11.7,813,532,798,995,269,2.8,356.76,1.31,88.61,270,282,113.18,279,12809,53141,1123,1,-0.1,0.11,-0.27,-1.33,-0.08,-6.2,-79.84,-3.18,-4.64,-1.39,-3.3,-7.65,Standing
07:11.9,249,527,790.5,995,268,2.82,354.97,1.31,88.61,270,281,113.18,279,12809,66566,1404,1.01,-0.11,0.09,-1.18,2.05,-2.44,-6.85,-80.25,-3.26,-4.63,-1.6,-3.4,-7.66,Standing
07:12.0,270,523,784.5,995,268,2.82,354.97,1.31,88.61,270,281,113.18,279,12809,79991,1685,0.99,-0.1,0.11,-2.5,0.84,-3.11,-6.43,-79.91,-3.5,-4.78,-1.89,-3.62,-7.78,Standing
07:12.1,592,524,786,995,269,2.8,356.76,1.31,88.61,270,280,113.18,279,12809,92855,1965,1,-0.09,0.12,-1.84,0.39,0.15,-5.61,-79.96,-3.66,-4.98,-1.77,-3.74,-7.98,Standing
07:12.2,905,530,795,995,269,2.8,356.76,1.31,88.61,270,282,113.18,279,12809,106843,2247,1.01,-0.11,0.11,-0.73,-1.92,-0.37,-6.56,-79.96,-3.68,-5.47,-1.72,-3.79,-8.45,Standing
07:12.4,404,528,792,995,266,2.85,351.39,1.3,88.61,270,282,113.18,279,12809,120831,2529,1.01,-0.11,0.08,-0.96,0.85,-1.76,-6.56,-80.74,-3.73,-5.61,-1.84,-3.84,-8.62,Standing
07:12.5,7,520,780,995,266,2.85,351.39,1.3,80.98,268,279,115.38,280,13312,0,0,1,-0.1,0.09,-0.92,3.21,-4.79,-6.23,-80.88,-3.77,-5.46,-2.33,-3.87,-8.48,Standing
07:12.6,244,517,775.5,995,267,2.83,353.17,1.3,80.98,268,279,115.38,280,13312,12305,279,1,-0.09,0.1,-4.38,2.27,-2.03,-5.95,-80.46,-4.25,-5.43,-2.49,-4.31,-8.43,Standing
07:12.7,743,520,780,995,267,2.83,353.17,1.3,80.98,268,281,115.38,280,13312,25730,560,0.99,-0.09,0.11,-3.44,1.79,-0.63,-5.81,-80.13,-4.61,-5.45,-2.47,-4.66,-8.44,Standing
07:12.9,990,526,789,995,267,2.83,353.17,1.3,80.98,268,282,115.38,280,13312,39718,842,1.01,-0.1,0.12,-0.9,0.56,0.17,-6.07,-79.56,-4.65,-5.63,-2.35,-4.71,-8.59,Standing
07:13.0,355,524,786,995,266,2.85,351.39,1.3,80.98,268,282,115.38,280,13312,53706,1124,1.01,-0.09,0.1,-0.95,-1.21,-2.03,-5.67,-80.99,-4.7,-6.03,-2.5,-4.74,-9.03,Standing
07:13.1,111,518,777,995,267,2.83,353.17,1.3,80.98,268,280,115.38,280,13312,66570,1404,0.99,-0.1,0.11,0.08,1.27,-0.85,-6.14,-80.12,-4.62,-6.12,-2.51,-4.68,-9.08,Standing
07:13.2,603,519,778.5,995,268,2.82,354.97,1.31,80.98,268,281,115.38,280,13312,79995,1685,1,-0.1,0.08,-2.02,-2.62,0.46,-6.02,-81.23,-4.8,-6.7,-2.35,-4.85,-9.68,Standing
07:13.4,951,525,787.5,995,268,2.82,354.97,1.31,80.98,268,281,115.38,280,13312,93420,1966,1,-0.1,0.1,-2.64,3.21,0.05,-6.12,-80.58,-5.06,-6.55,-2.25,-5.1,-9.51,Standing
07:13.5,740,528,792,995,267,2.83,353.17,1.3,80.98,268,283,115.38,280,13312,107973,2249,1.02,-0.1,0.1,-1.55,2.45,-1.89,-6.44,-80.46,-5.18,-6.49,-2.39,-5.23,-9.45,Standing
07:13.6,172,523,784.5,995,267,2.83,353.17,1.3,80.98,268,280,115.38,280,13312,120837,2529,1,-0.09,0.09,-1.54,1.24,-1.64,-5.48,-81.33,-5.31,-6.58,-2.49,-5.31,-9.57,Standing
07:13.7,448,522,783,995,268,2.82,354.97,1.31,76.55,267,280,115.63,280,13369,0,0,1,-0.09,0.09,-1.88,-0.34,-0.71,-5.42,-81.33,-5.47,-6.87,-2.48,-5.47,-9.85,Standing
07:13.9,828,526,789,995,269,2.8,356.76,1.31,76.55,267,281,115.63,280,13369,13425,281,1,-0.1,0.11,-0.69,-0.23,-1.76,-6.28,-79.97,-5.48,-7.15,-2.61,-5.52,-10.06,Standing
07:14.0,861,530,795,995,268,2.82,354.97,1.31,76.55,267,282,115.63,280,13369,27413,563,1,-0.09,0.09,-1.92,0.85,-2.01,-5.9,-81.17,-5.65,-7.29,-2.76,-5.66,-10.25,Standing
07:14.1,348,528,792,995,268,2.82,354.97,1.31,76.55,267,283,115.63,280,13369,41966,846,1,-0.1,0.1,-2.31,2.37,-1.99,-6.09,-80.57,-5.87,-7.24,-2.91,-5.88,-10.18,Standing
07:14.2,104,523,784.5,995,269,2.8,356.76,1.31,76.55,267,280,115.63,280,13369,54830,1126,1.01,-0.08,0.11,-3.33,-0.37,-1.59,-5.35,-80.74,-6.22,-7.54,-3.01,-6.18,-10.47,Standing
07:14.4,683,525,787.5,995,270,2.79,358.57,1.32,76.55,267,282,115.63,280,13369,68818,1408,1,-0.09,0.11,-2.39,1.36,-1.21,-5.9,-79.99,-6.45,-7.62,-3.06,-6.42,-10.52,Standing
07:14.5,845,529,793.5,995,269,2.8,356.76,1.31,76.55,267,283,115.63,280,13369,83371,1691,1.01,-0.09,0.11,-2.64,-0.12,-3.12,-5.79,-80.45,-6.71,-7.89,-3.35,-6.67,-10.79,Standing
07:14.6,339,526,789,995,269,2.8,356.76,1.31,76.55,267,282,115.63,280,13369,97359,1973,1,-0.08,0.09,-1.63,2.11,-0.35,-5.3,-81.54,-6.84,-7.87,-3.3,-6.78,-10.82,Standing
07:14.7,57,521,781.5,995,267,2.83,353.17,1.3,76.55,267,279,115.63,280,13369,109664,2252,1.01,-0.09,0.1,-2.71,-1.56,1.66,-5.83,-80.49,-7.11,-8.32,-2.99,-7.06,-11.2,Standing
07:14.9,536,521,781.5,995,268,2.82,354.97,1.31,76.55,267,281,115.63,280,13369,123089,2533,1,-0.09,0.11,0.71,-0.08,0.6,-5.68,-80.32,-6.95,-8.58,-2.82,-6.9,-11.45,Standing
07:15.0,827,525,787.5,995,268,2.82,354.97,1.31,80.97,268,281,116.84,281,13650,0,0,1,-0.1,0.09,-0.42,0.01,1.6,-6.34,-80.8,-6.93,-8.82,-2.52,-6.91,-11.7,Standing
07:15.1,601,525,787.5,995,267,2.83,353.17,1.3,80.97,268,282,116.84,281,13650,13988,282,1,-0.11,0.09,-1.57,-1.04,-1.37,-6.91,-80.45,-7.06,-9.2,-2.59,-7.05,-12.05,Standing
07:15.2,57,520,780,995,266,2.85,351.39,1.3,80.97,268,281,116.84,281,13650,27413,563,1,-0.11,0.09,-2.28,2.33,-3.14,-6.79,-80.24,-7.27,-9.16,-2.88,-7.25,-12,Standing
07:15.4,275,518,777,995,266,2.85,351.39,1.3,80.97,268,278,116.84,281,13650,39161,841,1,-0.1,0.1,-2.16,1.1,-0.85,-6.13,-80.47,-7.47,-9.27,-2.89,-7.42,-12.12,Standing
07:15.5,705,520,780,995,266,2.85,351.39,1.3,80.97,268,280,116.84,281,13650,52025,1121,1,-0.1,0.1,-1.27,0.85,-1.32,-6.2,-80.5,-7.56,-9.41,-2.96,-7.5,-12.26,Standing
07:15.6,737,522,783,995,265,2.86,349.6,1.3,80.97,268,281,116.84,281,13650,65450,1402,1.01,-0.1,0.1,-1.73,0.97,-2.6,-6.4,-80.31,-7.71,-9.54,-3.18,-7.65,-12.37,Standing
07:15.7,208,519,778.5,995,265,2.86,349.6,1.3,80.97,268,281,116.84,281,13650,78875,1683,1,-0.1,0.09,-1.06,0.87,-1.04,-6.53,-80.52,-7.77,-9.68,-3.21,-7.72,-12.52,Standing
07:15.9,139,515,772.5,995,265,2.86,349.6,1.3,80.97,268,280,116.84,281,13650,91739,1963,1,-0.1,0.11,-0.92,0.07,-2.28,-6.21,-80.18,-7.81,-9.93,-3.4,-7.75,-12.74,Standing
07:16.0,704,517,775.5,995,266,2.85,351.39,1.3,80.97,268,282,116.84,281,13650,105727,2245,0.99,-0.1,0.09,-2.04,1.07,-0.34,-6.18,-80.71,-8,-10.04,-3.34,-7.93,-12.87,Standing
07:16.1,745,519,778.5,995,265,2.86,349.6,1.3,80.97,268,278,116.84,281,13650,117475,2523,1,-0.1,0.08,-1.91,2.56,1.14,-6.03,-81.28,-8.17,-9.97,-3.1,-8.08,-12.83,Standing
07:16.2,317,517,775.5,995,263,2.89,346.05,1.29,70.01,265,279,113.92,280,12977,0,0,1.01,-0.1,0.1,-5.15,-4.47,3.73,-6.39,-80.47,-8.74,-10.78,-2.54,-8.64,-13.56,Standing
07:16.3,798,520,780,995,265,2.86,349.6,1.3,70.01,265,279,113.92,280,12977,12305,279,1.01,-0.12,0.1,-1.28,-0.76,2.59,-7.14,-79.85,-8.83,-11.12,-2.13,-8.76,-13.87,Standing
07:16.5,532,518,777,995,265,2.86,349.6,1.3,70.01,265,279,113.92,280,12977,24610,558,1,-0.13,0.09,2.08,3.5,-1.8,-7.81,-79.47,-8.5,-10.93,-2.25,-8.47,-13.67,Standing
07:16.6,898,519,778.5,898,266,2.85,351.39,1.3,70.01,265,280,113.92,280,12977,37474,838,1.01,-0.12,0.08,-2.24,1.05,0.1,-7.25,-80.25,-8.71,-11.05,-2.14,-8.65,-13.82,Standing
07:16.7,631,520,780,898,265,2.86,349.6,1.3,70.01,265,282,113.92,280,12977,51462,1120,1.01,-0.12,0.09,-1.89,0.96,-0.56,-7.23,-80.16,-8.87,-11.18,-2.11,-8.81,-13.94,Standing
07:16.8,62,519,778.5,898,265,2.86,349.6,1.3,70.01,265,279,113.92,280,12977,63767,1399,1,-0.13,0.08,-4.02,0.85,-2.54,-7.68,-79.89,-9.3,-11.32,-2.33,-9.24,-14.06,Standing
07:17.0,374,519,778.5,898,267,2.83,353.17,1.3,70.01,265,279,113.92,280,12977,76072,1678,0.99,-0.11,0.07,-2.93,3.27,-1.15,-7.14,-80.61,-9.6,-11.16,-2.37,-9.5,-13.94,Standing
07:17.1,872,520,780,872,267,2.83,353.17,1.3,70.01,265,280,113.92,280,12977,88936,1958,1.01,-0.12,0.1,-3.42,3.22,-1.51,-7.05,-79.85,-9.96,-11.01,-2.46,-9.84,-13.76,Standing
07:17.2,619,516,774,872,265,2.86,349.6,1.3,70.01,265,281,113.92,280,12977,102361,2239,1,-0.11,0.1,-1.51,1.82,-1.86,-6.67,-80.03,-10.07,-11.03,-2.6,-9.94,-13.79,Standing
07:17.3,23,508,762,872,265,2.86,349.6,1.3,70.01,265,279,113.92,280,12977,114666,2518,1,-0.11,0.11,-1.27,0.36,-0.98,-6.96,-79.59,-10.16,-11.24,-2.62,-10.03,-13.97,Standing
07:17.5,386,505,757.5,872,265,2.86,349.6,1.3,70.38,265,279,112.68,279,12696,0,0,1,-0.12,0.11,-0.69,1.22,-1.15,-7.17,-79.34,-10.18,-11.33,-2.67,-10.06,-14.05,Standing
07:17.6,833,509,763.5,833,267,2.83,353.17,1.3,70.38,265,280,112.68,279,12696,12864,280,1,-0.11,0.09,-1.75,0.01,0.06,-6.99,-80.17,-10.33,-11.58,-2.56,-10.19,-14.33,Standing
07:17.7,755,507,760.5,833,265,2.86,349.6,1.3,70.38,265,280,112.68,279,12696,25728,560,1.01,-0.12,0.09,-2.5,1.32,0.02,-7.22,-80.04,-10.57,-11.67,-2.46,-10.44,-14.4,Standing
07:17.8,101,502,753,833,265,2.86,349.6,1.3,70.38,265,280,112.68,279,12696,38592,840,1,-0.13,0.1,-0.7,3.08,-2.14,-7.79,-79.18,-10.59,-11.53,-2.63,-10.48,-14.24,Standing
07:18.0,169,503,754.5,833,265,2.86,349.6,1.3,70.38,265,278,112.68,279,12696,50340,1118,1,-0.11,0.1,-0.44,1.17,-1.49,-6.97,-79.82,-10.57,-11.64,-2.72,-10.43,-14.36,Standing
07:18.1,492,500,750,833,265,2.86,349.6,1.3,70.38,265,279,112.68,279,12696,62645,1397,1.01,-0.12,0.11,-0.11,0.31,-0.66,-7.27,-79.44,-10.52,-11.85,-2.7,-10.39,-14.55,Standing
07:18.2,315,499,748.5,833,265,2.86,349.6,1.3,70.38,265,281,112.68,279,12696,76070,1678,1,-0.11,0.1,-0.32,1.44,-2.88,-7.09,-79.72,-10.49,-11.92,-2.96,-10.35,-14.63,Standing
07:18.4,338,498,747,833,265,2.86,349.6,1.3,70.38,265,280,112.68,279,12696,88934,1958,0.99,-0.11,0.09,-2.37,1.11,-2.53,-6.92,-80.23,-10.71,-12.03,-3.18,-10.56,-14.76,Standing
07:18.5,177,493,739.5,833,266,2.85,351.39,1.3,70.38,265,278,112.68,279,12696,100682,2236,1,-0.1,0.09,-2.53,0.89,0.3,-6.58,-80.37,-10.96,-12.17,-3.04,-10.79,-14.9,Standing
07:18.6,611,490,735,833,265,2.86,349.6,1.3,70.38,265,278,112.68,279,12696,112430,2514,1.01,-0.11,0.12,-0.65,0.81,-0.85,-6.98,-79.28,-10.97,-12.32,-3.05,-10.81,-15,Standing
07:18.7,383,493,739.5,833,264,2.88,347.83,1.29,69.25,265,281,112.18,279,12584,0,0,1.02,-0.12,0.11,-0.04,0.47,-3.83,-7.18,-79.41,-10.91,-12.51,-3.43,-10.76,-15.18,Standing
07:18.9,368,496,744,833,265,2.86,349.6,1.3,69.25,265,279,112.18,279,12584,12305,279,1,-0.11,0.1,-1.71,2.1,-1.91,-6.68,-80.06,-11.05,-12.5,-3.57,-10.88,-15.2,Standing
07:19.0,411,500,750,833,265,2.86,349.6,1.3,69.25,265,278,112.18,279,12584,24053,557,0.99,-0.12,0.09,-2.72,-0.7,-1.6,-7.18,-80,-11.32,-12.83,-3.67,-11.16,-15.52,Standing
07:19.1,824,509,763.5,824,265,2.86,349.6,1.3,69.25,265,280,112.18,279,12584,36917,837,1.03,-0.1,0.09,-6.21,7.76,2.31,-6.27,-80.96,-12.03,-12.11,-3.28,-11.8,-14.87,Standing
07:19.2,483,512,768,824,264,2.88,347.83,1.29,69.25,265,281,112.18,279,12584,50342,1118,1.03,-0.13,0.13,-7.24,6.9,0.05,-7.98,-78.27,-12.87,-11.5,-3.18,-12.67,-14.17,Standing
07:19.4,32,505,757.5,824,264,2.88,347.83,1.29,69.25,265,277,112.18,279,12584,61535,1395,0.98,-0.13,0.15,-9.73,-6.06,-8.85,-7.83,-77.28,-14.02,-12.5,-4.18,-13.77,-15.1,Standing
07:19.5,537,502,753,824,266,2.85,351.39,1.3,69.25,265,278,112.18,279,12584,73283,1673,0.94,-0.09,0.14,0.02,3.49,-6.8,-5.87,-78.67,-13.94,-12.32,-4.93,-13.62,-14.97,Standing
07:19.6,814,506,759,814,266,2.85,351.39,1.3,69.25,265,279,112.18,279,12584,85588,1952,0.98,-0.1,0.16,4.59,8.42,5.36,-6.32,-77.58,-13.3,-11.52,-4.17,-13.02,-14.16,Standing
07:19.7,628,504,756,814,265,2.86,349.6,1.3,69.25,265,280,112.18,279,12584,98452,2232,1.02,-0.1,0.14,3.78,9.27,-0.57,-6.25,-78.77,-12.76,-10.61,-4.14,-12.5,-13.33,Standing
07:19.8,181,496,744,814,265,2.86,349.6,1.3,69.25,265,278,112.18,279,12584,110200,2510,0.99,-0.09,0.13,1.88,13.27,-9.72,-5.92,-79.35,-12.45,-9.19,-5.26,-12.19,-11.99,Standing
07:20.0,605,496,744,814,267,2.83,353.17,1.3,69.25,265,279,110.68,278,12249,0,0,0.95,-0.08,0.17,-8.06,8.49,-5.6,-5.53,-77.37,-13.38,-8.38,-5.86,-13.07,-11.14,Standing
07:20.1,901,503,754.5,901,268,2.82,354.97,1.31,69.25,265,280,110.68,278,12249,12864,280,0.97,-0.08,0.2,-18.2,-12.92,7.45,-5.17,-76.05,-15.59,-10.25,-4.83,-15.17,-12.88,Standing
07:20.2,559,502,753,901,267,2.83,353.17,1.3,69.25,265,282,110.68,278,12249,26852,562,1.02,-0.12,0.18,-16.61,-14.12,12,-7.22,-76.39,-17.59,-12.26,-3.23,-17.18,-14.83,Standing
07:20.4,491,497,745.5,901,267,2.83,353.17,1.3,69.25,265,279,110.68,278,12249,39157,841,1.03,-0.15,0.14,-0.36,-0.4,-4.56,-8.76,-77.34,-17.57,-12.56,-3.71,-17.22,-15.15,Standing
07:20.5,560,495,742.5,901,268,2.82,354.97,1.31,69.25,265,279,110.68,278,12249,51462,1120,0.99,-0.14,0.09,-5.86,3.51,-6.52,-8.48,-78.87,-18.23,-12.37,-4.42,-17.84,-15.03,Standing
07:20.6,912,504,756,912,267,2.83,353.17,1.3,69.25,265,280,110.68,278,12249,64326,1400,0.97,-0.12,0.12,-8.57,0.65,-2.43,-7.43,-78.75,-19.23,-12.54,-4.63,-18.76,-15.19,Standing
07:20.7,372,505,757.5,912,271,2.77,360.37,1.32,69.25,265,282,110.68,278,12249,78314,1682,0.98,-0.1,0.12,-11.63,-3.82,3.38,-6.54,-79.39,-20.63,-13.28,-4.1,-20.06,-15.92,Standing
07:20.9,197,500,750,912,270,2.79,358.57,1.32,69.25,265,280,110.68,278,12249,91178,1962,1.01,-0.14,0.14,-3.73,1.4,4.2,-8.26,-77.26,-21.02,-13.35,-3.48,-20.51,-15.91,Standing
07:21.0,781,501,751.5,781,269,2.8,356.76,1.31,69.25,265,281,110.68,278,12249,104603,2243,0.99,-0.16,0.12,1.18,-0.31,-2.86,-9.68,-77,-20.8,-13.64,-3.74,-20.36,-16.17,Standing
07:21.1,998,509,763.5,998,268,2.82,354.97,1.31,69.25,265,281,110.68,278,12249,118028,2524,0.99,-0.13,0.1,0.34,1.55,-1.95,-8.18,-78.89,-20.69,-13.7,-3.88,-20.19,-16.3,Standing
07:21.2,289,506,759,998,267,2.83,353.17,1.3,79.98,268,282,114.9,280,13200,0,0,1.01,-0.16,0.13,-3.79,0.92,1.28,-9.42,-77.12,-21.09,-13.83,-3.63,-20.63,-16.36,Standing
07:21.4,257,499,748.5,998,268,2.82,354.97,1.31,79.98,268,281,114.9,280,13200,13425,281,0.99,-0.14,0.11,-3.19,-3.31,-5.61,-8.79,-77.94,-21.42,-14.49,-4.23,-20.92,-17.03,Standing
07:21.5,732,496,744,998,268,2.82,354.97,1.31,79.98,268,282,114.9,280,13200,27413,563,0.97,-0.13,0.08,-0.45,-2.15,1.98,-8.12,-79.6,-21.41,-15.02,-3.88,-20.88,-17.6,Standing
07:21.6,890,500,750,890,269,2.8,356.76,1.31,79.98,268,284,114.9,280,13200,42533,847,1.01,-0.15,0.09,-4.92,-2.56,5.17,-8.91,-78.8,-21.95,-15.59,-3.13,-21.43,-18.12,Standing
07:21.7,343,502,753,890,268,2.82,354.97,1.31,79.98,268,285,114.9,280,13200,58222,1132,1.02,-0.16,0.09,-3.34,-2.6,-0.15,-9.7,-78.06,-22.3,-16.16,-3.05,-21.8,-18.64,Standing
07:21.9,129,499,748.5,890,271,2.77,360.37,1.32,79.98,268,284,114.9,280,13200,73342,1416,1,-0.17,0.09,-0.78,-3.16,-4.15,-10.06,-77.59,-22.33,-16.81,-3.48,-21.84,-19.24,Standing
07:22.0,805,498,747,805,271,2.77,360.37,1.32,79.98,268,284,114.9,280,13200,88462,1700,1,-0.15,0.05,-2.36,-1.19,-0.36,-9.07,-79.36,-22.55,-17.21,-3.42,-22.01,-19.7,Standing
07:22.1,677,498,747,805,269,2.8,356.76,1.31,79.98,268,285,114.9,280,13200,104151,1985,0.99,-0.16,0.06,-2.74,-2.74,-0.83,-9.66,-78.67,-22.83,-17.81,-3.43,-22.3,-20.24,Standing
07:22.2,64,498,747,805,269,2.8,356.76,1.31,79.98,268,284,114.9,280,13200,119271,2269,1.01,-0.17,0.05,-5.5,-2.84,0.89,-10.02,-78.49,-23.45,-18.42,-3.22,-22.91,-20.82,Standing
07:22.4,400,498,747,805,271,2.77,360.37,1.32,79.98,268,283,114.9,280,13200,133824,2552,1.01,-0.16,0.04,-2.44,-1.94,-2.59,-9.73,-78.96,-23.69,-18.91,-3.44,-23.13,-21.31,Standing
07:22.5,876,497,745.5,876,270,2.79,358.57,1.32,83.91,269,284,122.04,283,14893,0,0,1,-0.16,0.04,-6.24,-1.18,-2.98,-9.57,-79.16,-24.39,-19.3,-3.71,-23.8,-21.7,Standing
07:22.6,629,496,744,876,271,2.77,360.37,1.32,83.91,269,284,122.04,283,14893,15120,284,1,-0.15,0.04,-5.92,-2.23,-1.02,-9.36,-79.36,-25.06,-19.83,-3.74,-24.43,-22.21,Standing
07:22.7,84,494,741,876,270,2.79,358.57,1.32,83.91,269,281,122.04,283,14893,28545,565,1,-0.15,0.03,-2.95,-0.21,-0.94,-9.09,-79.75,-25.36,-20.11,-3.76,-24.71,-22.49,Standing
07:22.9,420,497,745.5,876,271,2.77,360.37,1.32,83.91,269,282,122.04,283,14893,42533,847,1.01,-0.16,0.02,-1.1,3.72,-1.69,-9.54,-79.4,-25.43,-19.89,-3.87,-24.79,-22.27,Standing
07:23.0,813,500,750,813,271,2.77,360.37,1.32,83.91,269,283,122.04,283,14893,57086,1130,1.01,-0.16,0.03,-2.22,1.93,-2.79,-9.49,-79.31,-25.64,-19.9,-4.12,-24.99,-22.28,Standing
07:23.1,551,497,745.5,813,270,2.79,358.57,1.32,83.91,269,286,122.04,283,14893,73346,1416,1.01,-0.15,0.04,-3.41,0.53,-1.56,-9.08,-79.68,-26,-20.09,-4.22,-25.32,-22.47,Standing
07:23.2,150,496,744,813,271,2.77,360.37,1.32,83.91,269,283,122.04,283,14893,87899,1699,1,-0.15,0.04,-2.15,0.25,1.02,-9.33,-79.45,-26.19,-20.3,-4,-25.52,-22.67,Standing
07:23.4,640,501,751.5,813,271,2.77,360.37,1.32,83.91,269,283,122.04,283,14893,102452,1982,1.02,-0.16,0.03,-2.84,-0.35,0.32,-9.78,-79.02,-26.48,-20.6,-3.86,-25.81,-22.94,Standing
07:23.5,878,503,754.5,878,271,2.77,360.37,1.32,83.91,269,285,122.04,283,14893,118141,2267,1.03,-0.16,0.02,-1.97,2.12,-1.13,-9.5,-79.44,-26.66,-20.58,-3.9,-25.97,-22.94,Standing
07:23.6,432,499,748.5,878,273,2.75,364,1.33,83.91,269,285,122.04,283,14893,133830,2552,1,-0.16,0.02,-0.89,2.72,-1.53,-9.59,-79.31,-26.7,-20.49,-3.99,-26.01,-22.85,Standing
07:23.7,226,497,745.5,878,272,2.76,362.18,1.33,89.21,271,281,121.35,283,14724,0,0,1.01,-0.17,0.03,-3.43,0.5,-0.71,-10,-78.83,-27.05,-20.68,-3.98,-26.37,-23.01,Standing
07:23.9,552,500,750,878,270,2.79,358.57,1.32,89.21,271,281,121.35,283,14724,13425,281,1,-0.16,0.03,-1.75,0.66,-2.18,-9.38,-79.47,-27.2,-20.85,-4.16,-26.49,-23.19,Standing
07:24.0,983,508,762,983,241,3.24,308.18,1.18,89.21,271,282,121.35,283,14724,27413,563,1.01,-0.15,0.01,-2.35,0.51,-2.11,-8.86,-80.1,-27.43,-21.03,-4.32,-26.68,-23.4,Standing
07:24.1,151,501,751.5,983,260,2.93,340.76,1.27,89.21,271,281,121.35,283,14724,40838,844,1.02,-0.15,0,-2.23,1.53,-0.67,-8.96,-80.04,-27.64,-21.09,-4.31,-26.89,-23.45,Standing
07:24.2,24,493,739.5,983,265,2.86,349.6,1.3,89.21,271,280,121.35,283,14724,53702,1124,1.01,-0.17,0.03,-2.7,0.56,1.92,-9.86,-79.01,-27.9,-21.27,-3.97,-27.18,-23.58,Standing
07:24.4,475,496,744,983,267,2.83,353.17,1.3,89.21,271,280,121.35,283,14724,66566,1404,1.02,-0.18,0.03,-2.05,0.93,-3.05,-10.38,-78.51,-28.09,-21.4,-4.25,-27.38,-23.69,Standing
07:24.5,738,500,750,983,266,2.85,351.39,1.3,89.21,271,280,121.35,283,14724,79430,1684,1,-0.16,0.01,-0.84,1.18,-3.52,-9.49,-79.5,-28.12,-21.51,-4.59,-27.38,-23.83,Standing
07:24.6,364,498,747,983,265,2.86,349.6,1.3,89.21,271,280,121.35,283,14724,92294,1964,0.99,-0.16,0.02,-1.27,0.79,-0.76,-9.83,-79.11,-28.21,-21.66,-4.59,-27.48,-23.96,Standing
07:24.7,225,491,736.5,983,265,2.86,349.6,1.3,89.21,271,278,121.35,283,14724,104042,2242,1,-0.15,0.02,-2.19,0.73,-1.07,-9.07,-79.81,-28.42,-21.82,-4.62,-27.64,-24.14,Standing
07:24.9,680,494,741,983,266,2.85,351.39,1.3,89.21,271,279,121.35,283,14724,116347,2521,1.01,-0.16,0.03,-1.9,1.6,0.41,-9.65,-79.22,-28.59,-21.87,-4.47,-27.83,-24.16,Standing
07:25.0,693,501,751.5,983,265,2.86,349.6,1.3,60.76,263,280,113.67,280,12920,0,0,1.01,-0.17,0.04,-2.66,0.45,-0.07,-9.92,-78.86,-28.85,-22.06,-4.38,-28.09,-24.33,Standing
07:25.1,355,502,753,983,264,2.88,347.83,1.29,60.76,263,280,113.67,280,12920,12864,280,1.01,-0.16,0.03,-1.6,1.15,-2.95,-9.43,-79.45,-28.98,-22.17,-4.65,-28.19,-24.46,Standing
07:25.2,265,497,745.5,983,265,2.86,349.6,1.3,60.76,263,278,113.67,280,12920,24612,558,1,-0.16,0.01,-3.15,0.38,-1.2,-9.57,-79.4,-29.3,-22.37,-4.7,-28.51,-24.65,Standing
07:25.4,641,494,741,983,266,2.85,351.39,1.3,60.76,263,279,113.67,280,12920,36917,837,1,-0.16,0.03,-3.37,-0.99,-1.43,-9.35,-79.5,-29.65,-22.75,-4.78,-28.84,-25.02,Standing
07:25.5,753,498,747,753,265,2.86,349.6,1.3,60.76,263,282,113.67,280,12920,50905,1119,1,-0.16,0.02,-1.99,0.6,-0.15,-9.66,-79.26,-29.83,-22.92,-4.7,-29.03,-25.18,Standing
07:25.6,250,499,748.5,753,266,2.85,351.39,1.3,60.76,263,281,113.67,280,12920,64330,1400,1.01,-0.17,0.03,0.45,0.72,-3.4,-10.19,-78.69,-29.71,-23.08,-5.03,-28.92,-25.31,Standing
07:40.4,835,835,1252.5,835,257,2.98,335.51,1.26,0,0,283,0,0,0,27978,564,0.98,-0.1,0.2,5.85,8.82,-13.86,-6.35,-75.48,-0.88,1.76,-1.98,-1.1,-1.33,Left Fall while Standing
07:40.5,390,612,918,835,257,2.98,335.51,1.26,0,0,284,0,0,0,43098,848,0.97,-0.08,0.09,3.64,-6.34,2.55,-5.47,-81.27,-0.36,0.74,-1.57,-0.57,-2.54,Left Fall while Standing
07:40.7,174,466,699,835,257,2.98,335.51,1.26,0,0,283,0,0,0,57651,1131,1.01,-0.11,0.12,3.85,4.65,2.16,-6.72,-79.27,0.17,1.06,-1.21,-0.1,-2.15,Left Fall while Standing
07:40.8,835,349,523.5,835,256,3,333.77,1.25,0,0,282,0,0,0,71639,1413,1,-0.1,0.14,1.62,7.05,-10.56,-6.13,-78.94,0.44,1.68,-2.4,0.18,-1.55,Left Fall while Standing
07:40.9,63,292,438,835,256,3,333.77,1.25,0,0,280,0,0,0,84503,1693,0.99,-0.09,0.17,13.59,10.76,-17.94,-5.85,-77.09,2.17,2.75,-4.49,1.84,-0.45,Left Fall while Standing
07:41.0,297,293,439.5,835,257,2.98,335.51,1.26,0,0,280,0,0,0,97367,1973,0.99,-0.03,0.18,11.5,2.56,-24.02,-2.42,-78,3.64,2.82,-7.33,3.39,-0.42,Left Fall while Standing
07:41.2,694,350,525,835,258,2.97,337.25,1.26,0,0,281,0,0,0,110792,2254,1.02,0.02,0.15,9.53,13.61,-17.08,0.79,-79.86,4.88,4.24,-9.33,4.71,0.88,Left Fall while Standing
07:41.3,727,397,595.5,835,258,2.97,337.25,1.26,0,0,283,0,0,0,125345,2537,0.97,0.08,0.21,15.08,14.24,-30.45,3.95,-75.56,6.79,5.74,-12.95,6.67,2.49,Left Fall while Standing
07:41.4,996,464,696,996,258,2.97,337.25,1.26,24.82,257,284,118.52,282,14045,0,0,0.92,0.13,0.21,12.92,21.38,-33.73,7.5,-73.2,8.44,8.12,-17,8.41,4.87,Left Fall while Standing
07:41.5,792,496,744,996,256,3,333.77,1.25,24.82,257,284,118.52,282,14045,15120,284,0.91,0.24,0.24,0.23,13.1,-14.08,13.5,-68.05,8.54,9.5,-18.65,8.74,6.4,Left Fall while Standing
07:41.6,835,451,676.5,996,256,3,333.77,1.25,24.82,257,282,118.52,282,14045,29108,566,0.96,0.24,0.27,2.3,8.92,-10.31,12.73,-67.87,8.9,10.36,-19.83,9.05,7.23,Left Fall while Standing
07:41.8,835,414,621,996,256,3,333.77,1.25,24.82,257,281,118.52,282,14045,42533,847,0.91,0.28,0.3,12.01,4.4,-20.77,15.59,-64.16,10.44,10.65,-22.28,10.65,7.66,Left Fall while Standing
07:41.9,560,425,637.5,996,257,2.98,335.51,1.26,24.82,257,281,118.52,282,14045,55958,1128,0.84,0.32,0.32,3.92,3.48,-16.92,18.95,-60.28,11,10.84,-24.3,11.32,7.99,Left Fall while Standing
07:42.0,900,459,688.5,996,258,2.97,337.25,1.26,24.82,257,282,118.52,282,14045,69946,1410,0.87,0.33,0.31,2.54,2.05,-6.89,18.79,-61.38,11.39,10.84,-25.06,11.69,7.95,Left Fall while Standing
07:42.1,886,487,730.5,996,257,2.98,335.51,1.26,24.82,257,284,118.52,282,14045,85066,1694,0.87,0.36,0.28,3.34,1.44,-9.18,20.97,-60.82,11.87,10.77,-26.1,12.24,7.91,Left Fall while Standing
07:42.3,79,462,693,996,256,3,333.77,1.25,24.82,257,283,118.52,282,14045,99619,1977,0.87,0.35,0.32,0.79,3.85,-3.83,20.23,-59.85,12.04,11,-26.48,12.37,8.17,Left Fall while Standing
07:42.4,21,436,654,996,257,2.98,335.51,1.26,24.82,257,281,118.52,282,14045,113044,2258,0.87,0.38,0.31,2.28,-0.45,-6.38,21.9,-59.1,12.39,10.69,-27.18,12.77,7.9,Left Fall while Standing
07:42.5,655,448,672,996,258,2.97,337.25,1.26,24.82,257,282,118.52,282,14045,127032,2540,0.86,0.4,0.27,7.15,3.85,-6.67,23.03,-59.35,13.35,10.92,-27.91,13.74,8.11,Left Fall while Standing
07:42.6,950,474,711,996,258,2.97,337.25,1.26,21.49,256,281,118.51,282,14044,0,0,0.85,0.4,0.26,8.02,15.63,-19.57,23.85,-59.11,14.41,12.61,-30.24,14.79,9.75,Left Fall while Standing
07:42.8,591,480,720,996,257,2.98,335.51,1.26,21.49,256,283,118.51,282,14044,14553,283,0.81,0.47,0.28,2.11,13.46,-20.1,28.23,-54.25,14.74,14.03,-32.63,15.28,11.3,Left Fall while Standing
07:42.9,131,463,694.5,996,258,2.97,337.25,1.26,21.49,256,283,118.51,282,14044,29106,566,0.8,0.47,0.28,-0.34,-7.79,-2.89,28.38,-53.97,14.77,12.81,-32.89,15.32,10.14,Left Fall while Standing
07:43.0,197,451,676.5,996,258,2.97,337.25,1.26,21.49,256,281,118.51,282,14044,42531,847,0.83,0.47,0.28,-1.14,-0.03,-4.66,27.46,-55.07,14.7,12.56,-33.37,15.21,9.85,Left Fall while Standing
07:43.1,751,464,696,996,260,2.93,340.76,1.27,21.49,256,282,118.51,282,14044,56519,1129,0.81,0.5,0.31,10.65,13.27,-27.59,29.45,-52.28,16.1,13.97,-36.72,16.64,11.32,Left Fall while Standing
07:43.3,899,482,723,996,259,2.95,339.01,1.27,21.49,256,284,118.51,282,14044,71639,1413,0.71,0.57,0.31,10.8,0.34,-31.68,35.69,-46.19,17.52,13.76,-40.58,18.25,11.36,Left Fall while Standing
07:43.4,301,475,712.5,996,258,2.97,337.25,1.26,21.49,256,284,118.51,282,14044,86759,1697,0.67,0.63,0.3,6.76,10.08,-21.4,39.84,-42.31,18.44,14.77,-43.16,19.29,12.49,Left Fall while Standing
07:43.5,225,465,697.5,996,258,2.97,337.25,1.26,21.49,256,282,118.51,282,14044,100747,1979,0.66,0.64,0.3,-2.74,-1.1,-0.75,40.69,-41.64,18.17,14.38,-43.15,19.07,12.14,Left Fall while Standing
07:43.6,680,473,709.5,996,259,2.95,339.01,1.27,21.49,256,282,118.51,282,14044,114735,2261,0.69,0.63,0.28,1.07,-6.05,0,39.57,-43.65,18.37,13.38,-43.05,19.22,11.1,Left Fall while Standing
07:43.8,992,492,738,996,259,2.95,339.01,1.27,21.49,256,284,118.51,282,14044,129855,2545,0.7,0.64,0.28,0.3,-1.69,-7.21,39.61,-43.59,18.48,12.92,-43.85,19.32,10.66,Left Fall while Standing
07:43.9,458,491,736.5,996,257,2.98,335.51,1.26,34.39,258,286,120.88,283,14610,0,0,0.69,0.64,0.28,1.45,-3.02,-14.05,40.26,-43.01,18.72,12.3,-45.48,19.58,10.09,Left Fall while Standing
07:44.0,9,475,712.5,996,257,2.98,335.51,1.26,34.39,258,284,120.88,283,14610,15120,284,0.64,0.67,0.24,0.05,1.05,-17.7,43.72,-40.56,18.8,12.18,-47.6,19.8,10.07,Left Fall while Standing
07:44.1,171,465,697.5,996,257,2.98,335.51,1.26,34.39,258,281,120.88,283,14610,28545,565,0.61,0.7,0.23,-5.76,0.17,2.21,46.54,-37.87,18.15,11.96,-47.22,19.29,9.96,Left Fall while Standing
07:44.3,796,475,712.5,996,256,3,333.77,1.25,34.39,258,281,120.88,283,14610,41970,846,0.66,0.69,0.3,-2.08,-1.24,4.52,42.71,-40,17.97,11.55,-46.57,18.96,9.49,Left Fall while Standing
07:44.4,871,487,730.5,996,255,3.01,332.03,1.25,34.39,258,282,120.88,283,14610,55958,1128,0.66,0.67,0.27,1.02,0.42,-6.43,42.84,-40.71,18.16,11.36,-47.27,19.15,9.27,Left Fall while Standing
07:44.5,635,491,736.5,996,256,3,333.77,1.25,34.39,258,286,120.88,283,14610,72218,1414,0.64,0.69,0.21,0.98,0.15,-7.44,45.21,-39.83,18.36,11.13,-48.1,19.43,9.09,Left Fall while Standing
07:44.6,338,477,715.5,996,256,3,333.77,1.25,34.39,258,282,120.88,283,14610,86206,1696,0.63,0.7,0.25,-1.38,3.85,0.85,45.49,-38.63,18.25,11.36,-47.89,19.34,9.36,Left Fall while Standing
07:44.8,193,469,703.5,996,256,3,333.77,1.25,34.39,258,282,120.88,283,14610,100194,1978,0.63,0.69,0.26,0.12,4.11,-1.09,44.65,-39.16,18.34,11.62,-47.93,19.39,9.59,Left Fall while Standing
07:44.9,824,479,718.5,996,257,2.98,335.51,1.26,34.39,258,282,120.88,283,14610,114182,2260,0.65,0.69,0.25,1.31,1.35,-2.33,44.11,-39.83,18.57,11.54,-48.12,19.59,9.49,Left Fall while Standing
07:45.0,931,491,736.5,996,257,2.98,335.51,1.26,34.39,258,283,120.88,283,14610,128735,2543,0.63,0.69,0.24,-4.47,-0.31,1.37,45.09,-39.09,18.08,11.25,-47.85,19.16,9.24,Left Fall while Standing
07:45.1,280,486,729,996,256,3,333.77,1.25,12.41,256,283,119.7,282,14327,0,0,0.63,0.69,0.24,-1.89,-0.38,1.9,45.18,-39.08,17.92,10.96,-47.52,19.01,8.96,Left Fall while Standing
07:45.3,47,475,712.5,996,256,3,333.77,1.25,12.41,256,282,119.7,282,14327,13988,282,0.64,0.7,0.23,-4.4,2.31,0.89,45.29,-39.35,17.44,11,-47.31,18.55,8.99,Left Fall while Standing
07:45.4,183,467,700.5,996,257,2.98,335.51,1.26,12.41,256,280,119.7,282,14327,26852,562,0.65,0.7,0.24,-3.89,1.72,3.5,44.86,-39.56,17.03,10.97,-46.78,18.14,8.94,Left Fall while Standing
07:45.5,710,473,709.5,996,257,2.98,335.51,1.26,12.41,256,281,119.7,282,14327,40277,843,0.66,0.68,0.27,-2.67,-3.89,8.51,43.1,-40.59,16.77,10.24,-45.63,17.82,8.2,Left Fall while Standing
07:45.6,855,482,723,996,257,2.98,335.51,1.26,12.41,256,282,119.7,282,14327,54265,1125,0.69,0.65,0.25,-1.58,-8.18,10.79,41.34,-42.86,16.64,8.97,-44.19,17.63,6.9,Left Fall while Standing
07:45.8,290,478,717,996,255,3.01,332.03,1.25,12.41,256,281,119.7,282,14327,67690,1406,0.72,0.63,0.22,0.11,-4.49,4.69,39.41,-45.6,16.72,8.16,-43.51,17.63,6.01,Left Fall while Standing
07:45.9,338,467,700.5,996,255,3.01,332.03,1.25,12.41,256,280,119.7,282,14327,80554,1686,0.73,0.64,0.21,-3.83,-0.25,6.15,39.49,-45.67,16.32,7.88,-42.65,17.24,5.74,Left Fall while Standing
07:46.0,356,465,697.5,996,255,3.01,332.03,1.25,12.41,256,279,119.7,282,14327,92859,1965,0.74,0.61,0.23,-7.89,0.08,6.27,37.79,-46.85,15.41,7.64,-41.77,16.3,5.46,Left Fall while Standing
07:46.1,780,471,706.5,996,256,3,333.77,1.25,12.41,256,281,119.7,282,14327,106284,2246,0.74,0.61,0.23,-5.33,-5.41,4.43,37.44,-47.14,14.81,6.72,-41.12,15.72,4.56,Left Fall while Standing
07:46.3,964,482,723,996,256,3,333.77,1.25,12.41,256,282,119.7,282,14327,120272,2528,0.76,0.6,0.22,-14.13,-5.48,11.56,36.61,-48.39,13.13,5.79,-39.59,14.07,3.62,Left Fall while Standing
07:46.4,246,477,715.5,996,254,3.03,330.3,1.24,20724.3,255,282,115.87,281,13425,0,0,0.57,0.56,0.4,-18.26,-6.88,20.1,38.12,-38.09,10.93,4.69,-37,12.02,2.98,Left Fall while Standing
07:46.5,338,467,700.5,996,253,3.04,328.57,1.24,20724.3,255,281,115.87,281,13425,13425,281,0.79,0.51,0.23,-10.65,-2.89,26,31.52,-52.86,9.67,4.08,-33.65,10.55,1.8,Left Fall while Standing
07:46.6,472,467,700.5,996,254,3.03,330.3,1.24,20724.3,255,281,115.87,281,13425,26850,562,0.82,0.46,0.19,-22.21,2.16,33.29,27.88,-57.25,6.99,4.1,-29.42,7.82,1.64,Left Fall while Standing
07:46.7,996,477,715.5,996,255,3.01,332.03,1.25,20724.3,255,282,115.87,281,13425,40838,844,0.89,0.37,0.33,-17.5,6.12,24.69,20.62,-59.18,4.89,4.61,-26.26,5.52,2.06,Left Fall while Standing
07:46.9,745,482,723,996,254,3.03,330.3,1.24,20724.3,255,282,115.87,281,13425,54826,1126,0.91,0.3,0.29,-8.71,-9.92,16.43,17.03,-63.76,3.87,3.12,-24.11,4.4,0.44,Left Fall while Standing
07:47.0,85,475,712.5,996,253,3.04,328.57,1.24,20724.3,255,281,115.87,281,13425,68251,1407,0.91,0.26,0.28,-11.95,-3.11,14.76,14.93,-65.32,2.44,2.48,-22.17,2.94,-0.23,Left Fall while Standing
07:47.1,171,470,705,996,254,3.03,330.3,1.24,20724.3,255,279,115.87,281,13425,80556,1686,0.87,0.23,0.31,-11.1,3.76,13.34,13.58,-64.43,1.13,2.7,-20.4,1.63,0.01,Left Fall while Standing
07:47.2,778,475,712.5,996,255,3.01,332.03,1.25,20724.3,255,280,115.87,281,13425,93420,1966,0.88,0.18,0.21,-13.33,-12.18,29.81,10.81,-70.75,-0.46,0.94,-16.61,-0.01,-1.93,Left Fall while Standing
07:47.4,822,481,721.5,996,255,3.01,332.03,1.25,20724.3,255,285,115.87,281,13425,109109,2251,1.02,0.08,0.26,-13.63,-13.13,33.98,3.53,-73.7,-2.1,-0.97,-12.22,-1.88,-3.88,Left Fall while Standing
07:47.5,313,478,717,996,256,3,333.77,1.25,20724.3,255,285,115.87,281,13425,124798,2536,0.93,0.05,0.26,0.07,7.67,3.34,2.18,-72.64,-2.02,-0.25,-11.7,-1.86,-3.15,Left Fall while Standing
07:47.6,451,478,717,996,259,2.95,339.01,1.27,20724.29,254,284,118.28,282,13990,0,0,0.97,0.03,0.21,-13.58,0.98,16.83,1.23,-75.79,-3.63,-0.38,-9.54,-3.43,-3.39,Left Fall while Standing
07:47.7,724,482,723,996,260,2.93,340.76,1.27,20724.29,254,285,118.28,282,13990,15689,285,1,-0.02,0.25,-20.65,-18.04,23.39,-1.9,-74.2,-6.14,-2.88,-6.51,-5.97,-5.73,Left Fall while Standing
07:47.9,875,488,732,996,260,2.93,340.76,1.27,20724.29,254,287,118.28,282,13990,32522,572,0.99,-0.1,0.24,-21.1,-13.66,19.47,-6.11,-73.61,-8.72,-4.85,-3.96,-8.62,-7.6,Left Fall while Standing
07:48.0,311,485,727.5,996,259,2.95,339.01,1.27,20724.29,254,286,118.28,282,13990,48782,858,0.99,-0.14,0.18,-10.54,-7.44,12.14,-8.42,-75.48,-9.97,-6.03,-2.35,-9.91,-8.81,Left Fall while Standing
07:48.1,231,481,721.5,996,261,2.92,342.52,1.28,20724.29,254,285,118.28,282,13990,64471,1143,1.01,-0.13,0.16,-1.54,2.26,3.73,-8.05,-76.96,-10.1,-6,-1.78,-10.01,-8.84,Left Fall while Standing
07:48.2,709,485,727.5,996,261,2.92,342.52,1.28,20724.29,254,285,118.28,282,13990,80160,1428,0.99,-0.18,0.18,-4.67,2.04,-1.31,-10.64,-74.05,-10.61,-6,-1.84,-10.61,-8.72,Left Fall while Standing
07:48.4,830,490,735,996,260,2.93,340.76,1.27,20724.29,254,287,118.28,282,13990,96993,1715,1,-0.14,0.16,-3.26,4.37,-12.2,-8.72,-76.09,-10.95,-5.7,-3.27,-10.86,-8.51,Left Fall while Standing
07:48.5,140,485,727.5,996,261,2.92,342.52,1.28,20724.29,254,287,118.28,282,13990,113826,2002,0.97,-0.12,0.17,-2.02,4.21,-7.95,-7.67,-76.02,-11.13,-5.42,-4.17,-10.99,-8.24,Left Fall while Standing
07:48.6,403,484,726,996,262,2.9,344.28,1.28,20724.29,254,286,118.28,282,13990,130086,2288,0.97,-0.11,0.18,-8.85,-2.19,-0.37,-6.97,-76.15,-12.17,-5.94,-4.12,-11.96,-8.75,Left Fall while Standing
07:48.8,860,489,733.5,996,262,2.9,344.28,1.28,20724.29,254,287,118.28,282,13990,146919,2575,1.01,-0.12,0.19,0,1.24,2.39,-7.12,-75.7,-12.1,-6.04,-3.72,-11.9,-8.83,Left Fall while Standing
07:48.9,506,489,733.5,996,261,2.92,342.52,1.28,49.28,260,290,128.64,286,16547,0,0,0.97,-0.15,0.2,-4.96,-2.11,-0.28,-9.06,-73.99,-12.64,-6.55,-3.66,-12.5,-9.25,Left Fall while Standing
07:49.0,38,483,724.5,996,262,2.9,344.28,1.28,49.28,260,287,128.64,286,16547,16833,287,0.99,-0.11,0.16,-0.7,1.7,-6.34,-7.03,-77.42,-12.66,-6.59,-4.35,-12.44,-9.42,Left Fall while Standing
07:51.7,760,760,1140,760,262,2.9,344.28,1.28,0,0,283,0,0,0,28541,565,0.92,0.01,0.29,-4.81,-2.42,3.12,-0.14,-70.96,-0.81,-0.55,-0.29,-0.79,-3.37,Right Fall while Standing
07:51.9,912,836,1254,912,260,2.93,340.76,1.27,0,0,279,0,0,0,40846,844,0.96,-0.02,0.25,-4.27,-4.64,2.08,-1.88,-74.04,-1.27,-1.37,0.07,-1.29,-4.28,Right Fall while Standing
07:52.0,803,825,1237.5,912,258,2.97,337.25,1.26,0,0,281,0,0,0,54271,1125,0.94,-0.01,0.23,-7.33,-8.2,9.22,-1.24,-74.7,-2.1,-2.62,1.3,-2.07,-5.51,Right Fall while Standing
07:52.1,582,764,1146,912,257,2.98,335.51,1.26,0,0,280,0,0,0,67135,1405,0.98,-0.07,0.24,-5.67,-8.33,16.08,-4.6,-73.94,-2.73,-3.89,3.37,-2.81,-6.7,Right Fall while Standing
07:52.2,142,639,958.5,912,256,3,333.77,1.25,0,0,280,0,0,0,79999,1685,0.98,-0.12,0.2,-2.15,-4.9,8.67,-7.43,-75.07,-2.93,-4.74,4.53,-3.11,-7.55,Right Fall while Standing
07:52.3,338,533,799.5,912,256,3,333.77,1.25,0,0,280,0,0,0,92863,1965,0.98,-0.13,0.2,-9.76,-5.41,8.19,-7.89,-74.87,-4.06,-5.65,5.63,-4.21,-8.42,Right Fall while Standing
07:52.5,47,463,694.5,912,256,3,333.77,1.25,0,0,276,0,0,0,103503,2241,0.97,-0.14,0.16,-6.36,-4.26,11.85,-8.66,-75.98,-4.76,-6.41,7.16,-4.92,-9.19,Right Fall while Standing
07:52.6,414,457,685.5,912,257,2.98,335.51,1.26,0,0,276,0,0,0,114143,2517,0.94,-0.16,0.14,-8.56,-6.7,26.6,-10.17,-75.57,-5.75,-7.48,10.56,-5.93,-10.21,Right Fall while Standing
07:52.7,932,510,765,932,257,2.98,335.51,1.26,32.92,258,278,112.2,279,12588,0,0,0.95,-0.26,0.15,0.94,-3.95,29.49,-15.61,-71.04,-5.57,-8.22,14.31,-5.97,-10.73,Right Fall while Standing
07:52.8,993,558,837,993,257,2.98,335.51,1.26,32.92,258,280,112.2,279,12588,12864,280,0.96,-0.32,0.11,-5.12,-9.81,25.37,-19.09,-68.73,-6.13,-9.69,17.56,-6.65,-12.05,Right Fall while Standing
07:53.0,555,558,837,993,256,3,333.77,1.25,32.92,258,283,112.2,279,12588,27417,563,0.93,-0.37,0.1,-3.88,-15.11,22.6,-22.2,-66.03,-6.55,-11.82,20.48,-7.17,-13.99,Right Fall while Standing
07:53.1,428,547,820.5,993,257,2.98,335.51,1.26,32.92,258,277,112.2,279,12588,38610,840,0.92,-0.42,0.04,0.76,-14.25,25.04,-25.21,-63.66,-6.38,-13.87,23.73,-7.13,-15.86,Right Fall while Standing
07:53.2,810,567,850.5,993,257,2.98,335.51,1.26,32.92,258,277,112.2,279,12588,49803,1117,0.92,-0.48,0.04,-2.51,-6.08,22.89,-27.98,-60.93,-6.62,-14.88,26.69,-7.48,-16.72,Right Fall while Standing
07:53.3,977,596,894,993,256,3,333.77,1.25,32.92,258,279,112.2,279,12588,62108,1396,0.9,-0.52,0.03,2.68,-0.4,18.51,-30.27,-58.67,-6.22,-15.18,29.13,-7.18,-16.92,Right Fall while Standing
07:53.5,345,580,870,993,254,3.03,330.3,1.24,32.92,258,280,112.2,279,12588,74972,1676,0.85,-0.54,0.03,1.5,-1.23,15.6,-33.16,-55.79,-5.96,-15.59,31.17,-7.05,-17.2,Right Fall while Standing
07:53.6,87,549,823.5,993,254,3.03,330.3,1.24,32.92,258,275,112.2,279,12588,85061,1951,0.87,-0.58,0.03,0.31,-1.61,15.85,-34.3,-54.64,-5.85,-16.04,33.25,-6.99,-17.58,Right Fall while Standing
07:53.7,688,557,835.5,993,255,3.01,332.03,1.25,32.92,258,278,112.2,279,12588,96809,2229,0.82,-0.6,0.03,-1.17,-1.34,18.97,-36.84,-52.1,-5.92,-16.46,35.72,-7.16,-17.88,Right Fall while Standing
07:53.8,796,570,855,993,254,3.03,330.3,1.24,32.92,258,280,112.2,279,12588,109673,2509,0.82,-0.64,0.02,-0.04,2.73,14.85,-38.38,-50.6,-5.86,-16.36,37.68,-7.16,-17.73,Right Fall while Standing
07:54.0,279,555,832.5,993,254,3.03,330.3,1.24,20724.3,255,280,110.69,278,12252,0,0,0.78,-0.66,0.03,-5.03,4.18,12.44,-40.71,-48.24,-6.41,-16.09,39.32,-7.79,-17.38,Right Fall while Standing
07:54.1,416,548,822,993,254,3.03,330.3,1.24,20724.3,255,276,110.69,278,12252,10640,276,0.77,-0.68,0.01,0.97,5.44,12.04,-41.85,-47.14,-6.22,-15.66,40.94,-7.65,-16.92,Right Fall while Standing
07:54.2,534,547,820.5,993,254,3.03,330.3,1.24,20724.3,255,277,110.69,278,12252,21833,553,0.75,-0.71,0.06,-1.42,2.11,8.69,-43.79,-45.01,-6.33,-15.65,42.12,-7.83,-16.82,Right Fall while Standing
07:54.3,786,558,837,993,255,3.01,332.03,1.25,20724.3,255,280,110.69,278,12252,34697,833,0.75,-0.72,0.05,-4.71,-2.34,4.81,-44.19,-44.68,-6.85,-16.19,42.82,-8.34,-17.33,Right Fall while Standing
07:54.5,203,543,814.5,993,254,3.03,330.3,1.24,20724.3,255,281,110.69,278,12252,48122,1114,0.74,-0.72,0.04,-4.59,0.2,2.37,-44.51,-44.4,-7.35,-16.42,43.22,-8.84,-17.54,Right Fall while Standing
07:54.6,77,523,784.5,993,255,3.01,332.03,1.25,20724.3,255,276,110.69,278,12252,58762,1390,0.73,-0.72,0.04,0.94,-3.11,3.5,-45.01,-43.9,-7.17,-17.06,43.76,-8.68,-18.13,Right Fall while Standing
07:54.7,425,519,778.5,993,255,3.01,332.03,1.25,20724.3,255,293,110.69,278,12252,79075,1683,0.69,-0.73,0.02,-5.92,-1.14,2.37,-47,-41.97,-7.84,-17.45,44.15,-9.41,-18.43,Right Fall while Standing
07:54.8,992,537,805.5,993,266,2.85,351.39,1.3,20724.3,255,299,110.69,278,12252,102940,1982,0.72,-0.74,0.01,-4.16,-0.36,0.85,-46.35,-42.64,-8.3,-17.75,44.36,-9.82,-18.74,Right Fall while Standing
07:55.0,239,526,789,993,267,2.83,353.17,1.3,20724.3,255,294,110.69,278,12252,123840,2276,0.71,-0.73,0,-5.62,-0.11,-0.11,-46.41,-42.59,-8.93,-18.01,44.45,-10.43,-19,Right Fall while Standing
07:55.1,486,525,787.5,993,266,2.85,351.39,1.3,20724.3,255,293,110.69,278,12252,144153,2569,0.7,-0.74,0.01,-4.82,-0.12,1.83,-47.23,-41.77,-9.47,-18.28,44.78,-10.98,-19.22,Right Fall while Standing
07:55.2,811,535,802.5,993,266,2.85,351.39,1.3,41.01,259,294,128.47,286,16504,0,0,0.72,-0.76,-0.03,-3.76,-2.03,4.56,-47.07,-41.89,-9.87,-18.78,45.44,-11.36,-19.71,Right Fall while Standing
07:55.3,504,534,801,993,264,2.88,347.83,1.29,41.01,259,298,128.47,286,16504,23268,298,0.69,-0.75,0,1.25,-0.54,6.52,-47.89,-41.11,-9.64,-19.1,46.35,-11.17,-19.98,Right Fall while Standing
07:55.5,38,518,777,993,264,2.88,347.83,1.29,41.01,259,292,128.47,286,16504,42996,590,0.68,-0.78,0,-1.66,-0.24,1.6,-49.39,-39.61,-9.78,-19.38,46.65,-11.36,-20.19,Right Fall while Standing
07:55.6,551,519,778.5,993,265,2.86,349.6,1.3,41.01,259,292,128.47,286,16504,62724,882,0.69,-0.77,-0.01,0.73,-1.63,-2.2,-48.85,-40.14,-9.62,-19.83,46.48,-11.19,-20.65,Right Fall while Standing
07:55.7,808,527,790.5,993,266,2.85,351.39,1.3,41.01,259,294,128.47,286,16504,83624,1176,0.68,-0.77,-0.01,-1.96,0.54,-1.55,-49.07,-39.92,-9.79,-20.02,46.38,-11.37,-20.81,Right Fall while Standing
07:55.8,447,525,787.5,993,264,2.88,347.83,1.29,41.01,259,296,128.47,286,16504,105704,1472,0.68,-0.74,-0.01,-2.49,-0.24,-2.49,-48.02,-40.98,-10.04,-20.3,46.17,-11.56,-21.13,Right Fall while Standing
07:56.0,111,513,769.5,993,264,2.88,347.83,1.29,41.01,259,290,128.47,286,16504,124268,1762,0.67,-0.75,0,-1.19,1.6,0.38,-48.92,-40.08,-10.12,-20.35,46.32,-11.67,-21.14,Right Fall while Standing
07:56.1,880,523,784.5,993,265,2.86,349.6,1.3,41.01,259,290,128.47,286,16504,142832,2052,0.69,-0.77,0,-2.53,0.27,2.04,-48.34,-40.66,-10.36,-20.57,46.67,-11.88,-21.37,Right Fall while Standing
07:56.2,792,531,796.5,993,264,2.88,347.83,1.29,41.01,259,292,128.47,286,16504,162560,2344,0.68,-0.76,-0.03,-2.82,-2.4,1.77,-48.79,-40.17,-10.64,-21.12,46.99,-12.17,-21.88,Right Fall while Standing
07:56.3,294,524,786,993,263,2.89,346.05,1.29,41.01,259,293,128.47,286,16504,182873,2637,0.68,-0.77,-0.01,-3.63,-0.4,4.22,-49.43,-39.57,-11.03,-21.42,47.62,-12.57,-22.14,Right Fall while Standing
07:56.5,416,522,783,993,264,2.88,347.83,1.29,65.72,264,290,141.93,292,20142,0,0,0.68,-0.79,-0.02,-3.21,-1.73,-0.81,-49.81,-39.18,-11.36,-21.89,47.62,-12.9,-22.58,Right Fall while Standing
07:56.6,806,529,793.5,993,265,2.86,349.6,1.3,65.72,264,291,141.93,292,20142,19145,291,0.68,-0.77,-0.02,-0.19,4.06,-2.1,-49.32,-39.66,-11.32,-21.63,47.45,-12.84,-22.35,Right Fall while Standing
07:56.7,668,532,798,993,264,2.88,347.83,1.29,65.72,264,293,141.93,292,20142,39458,584,0.67,-0.78,-0.04,-1.84,-0.47,-1.34,-49.88,-39.03,-11.48,-21.93,47.39,-13.01,-22.62,Right Fall while Standing
07:56.8,254,525,787.5,993,265,2.86,349.6,1.3,65.72,264,290,141.93,292,20142,58022,874,0.67,-0.78,-0.01,-1.85,0.85,-2.37,-49.68,-39.31,-11.64,-22.08,47.19,-13.16,-22.77,Right Fall while Standing
07:57.0,484,524,786,993,265,2.86,349.6,1.3,65.72,264,290,141.93,292,20142,76586,1164,0.68,-0.78,-0.03,-2.05,0.15,-1.89,-49.66,-39.29,-11.82,-22.31,47.05,-13.34,-22.99,Right Fall while Standing
07:57.1,938,534,801,993,265,2.86,349.6,1.3,65.72,264,291,141.93,292,20142,95731,1455,0.66,-0.77,-0.03,-3.31,-0.14,-0.37,-49.93,-39.01,-12.17,-22.58,47.1,-13.68,-23.24,Right Fall while Standing
07:57.2,355,530,795,993,265,2.86,349.6,1.3,65.72,264,293,141.93,292,20142,116044,1748,0.68,-0.78,-0.02,-2.22,1.94,-0.99,-49.42,-39.56,-12.38,-22.59,47.08,-13.86,-23.27,Right Fall while Standing
07:57.4,123,521,781.5,993,265,2.86,349.6,1.3,65.72,264,288,141.93,292,20142,133452,2036,0.68,-0.78,-0.03,-0.93,1.37,-4.04,-49.28,-39.67,-12.43,-22.67,46.67,-13.9,-23.35,Right Fall while Standing
07:57.5,706,525,787.5,993,266,2.85,351.39,1.3,65.72,264,291,141.93,292,20142,152597,2327,0.69,-0.77,-0.03,-2.18,1.37,-5.34,-48.69,-40.25,-12.63,-22.75,46.09,-14.07,-23.45,Right Fall while Standing
07:57.6,688,528,792,993,266,2.85,351.39,1.3,65.72,264,293,141.93,292,20142,172910,2620,0.69,-0.76,-0.02,1.31,3.41,-4.87,-48.43,-40.55,-12.39,-22.57,45.58,-13.84,-23.29,Right Fall while Standing
07:57.7,100,520,780,993,266,2.85,351.39,1.3,69.25,265,293,139,291,19321,0,0,0.68,-0.75,-0.03,-2.23,-0.44,-4.15,-48.33,-40.62,-12.6,-22.87,45.16,-14.03,-23.58,Right Fall while Standing
07:57.9,383,517,775.5,993,267,2.83,353.17,1.3,69.25,265,289,139,291,19321,17985,289,0.7,-0.75,-0.01,0.07,1.98,-3.46,-47.39,-41.6,-12.52,-22.87,44.83,-13.92,-23.62,Right Fall while Standing
07:58.0,771,522,783,993,267,2.83,353.17,1.3,69.25,265,291,139,291,19321,37130,580,0.72,-0.76,0,3.99,2.21,-14.31,-46.95,-42.05,-11.95,-22.85,43.14,-13.35,-23.61,Right Fall while Standing
07:58.1,644,524,786,993,266,2.85,351.39,1.3,69.25,265,294,139,291,19321,58030,874,0.75,-0.72,0,4.73,4.74,-26.14,-44.48,-44.52,-11.29,-22.5,39.94,-12.62,-23.38,Right Fall while Standing
07:58.2,77,516,774,993,266,2.85,351.39,1.3,69.25,265,291,139,291,19321,77175,1165,0.76,-0.67,0.01,1.67,9.15,-24.47,-41.75,-47.25,-11.01,-21.61,37.01,-12.24,-22.64,Right Fall while Standing
07:58.4,352,513,769.5,993,266,2.85,351.39,1.3,69.25,265,289,139,291,19321,95160,1454,0.79,-0.64,0.03,4.6,4.33,-19.68,-39.66,-49.3,-10.36,-21.32,34.63,-11.53,-22.44,Right Fall while Standing
07:58.5,778,517,775.5,993,266,2.85,351.39,1.3,69.25,265,291,139,291,19321,114305,1745,0.81,-0.6,0.06,1.12,7.44,-15.31,-37.09,-51.69,-10.15,-20.64,32.81,-11.23,-21.88,Right Fall while Standing
07:58.6,476,517,775.5,993,265,2.86,349.6,1.3,69.25,265,295,139,291,19321,135794,2040,0.85,-0.59,0.06,-2.44,2.29,-13.32,-35.29,-53.49,-10.39,-20.6,31.23,-11.38,-21.92,Right Fall while Standing
07:58.7,161,510,765,993,266,2.85,351.39,1.3,69.25,265,289,139,291,19321,153779,2329,0.86,-0.56,0.03,-2.8,3,-18.19,-33.73,-55.21,-10.67,-20.48,29.04,-11.59,-21.87,Right Fall while Standing
07:58.9,613,512,768,993,267,2.83,353.17,1.3,69.25,265,290,139,291,19321,172343,2619,0.86,-0.53,0.05,-6.15,8.45,-20.04,-31.93,-56.91,-11.37,-19.67,26.62,-12.2,-21.16,Right Fall while Standing
07:59.0,799,517,775.5,993,266,2.85,351.39,1.3,72.98,266,292,138.59,291,19206,0,0,0.91,-0.49,0.05,-4.34,9.3,-22.47,-28.86,-59.98,-11.84,-18.76,23.93,-12.52,-20.41,Right Fall while Standing
07:59.1,305,514,771,993,266,2.85,351.39,1.3,72.98,266,293,138.59,291,19206,20313,293,0.91,-0.45,0.11,-6.5,6.73,-18.37,-26.82,-61.37,-12.59,-18.17,21.71,-13.16,-19.89,Right Fall while Standing
07:59.2,138,507,760.5,993,266,2.85,351.39,1.3,72.98,266,293,138.59,291,19206,40626,586,0.9,-0.43,0.09,-1.66,1.75,-13.52,-25.94,-62.48,-12.73,-18.2,20.12,-13.26,-19.97,Right Fall while Standing
07:59.4,792,512,768,993,266,2.85,351.39,1.3,72.98,266,288,138.59,291,19206,58034,874,0.95,-0.41,0.1,-5.36,4.91,-17.08,-23.72,-64.49,-13.33,-17.83,18.07,-13.75,-19.7,Right Fall while Standing
07:59.5,688,515,772.5,993,264,2.88,347.83,1.29,72.98,266,289,138.59,291,19206,76019,1163,0.97,-0.37,0.11,-11.85,-16.47,-36.37,-21.37,-66.64,-14.76,-20.16,13.59,-15.02,-22.02,Right Fall while Standing
07:59.6,170,509,763.5,993,263,2.89,346.05,1.29,72.98,266,288,138.59,291,19206,93427,1451,0.92,-0.3,0.24,-17.87,13.04,-40.25,-18.23,-65.77,-16.94,-18.77,8.61,-16.99,-20.65,Right Fall while Standing
07:59.7,398,508,762,993,264,2.88,347.83,1.29,72.98,266,286,138.59,291,19206,109687,1737,0.91,-0.2,0.15,-15.76,10.09,-13.41,-13.08,-72.73,-18.85,-17.75,7.02,-18.62,-19.95,Right Fall while Standing
07:59.9,773,512,768,993,264,2.88,347.83,1.29,72.98,266,287,138.59,291,19206,126520,2024,0.97,-0.23,0.14,-10.08,0.7,-13.6,-13.55,-73.15,-20.05,-17.91,5.41,-19.79,-20.12,Right Fall while Standing
08:00.0,366,509,763.5,993,263,2.89,346.05,1.29,72.98,266,288,138.59,291,19206,143928,2312,1.02,-0.21,0.09,-7.25,3.69,-21.24,-11.91,-76.11,-20.89,-17.7,2.83,-20.54,-20.03,Right Fall while Standing
08:00.1,155,504,756,993,264,2.88,347.83,1.29,72.98,266,286,138.59,291,19206,160188,2598,1.02,-0.12,0.01,-12.21,-9.9,-15.67,-7.07,-81.88,-22.35,-19.19,0.97,-21.74,-21.69,Right Fall while Standing
08:00.2,734,508,762,993,265,2.86,349.6,1.3,66.52,264,288,133.26,288,17758,0,0,0.98,-0.12,0.04,-8.73,-9.63,3.56,-7.38,-81.22,-23.37,-20.64,1.52,-22.73,-23.06,Right Fall while Standing
08:00.4,940,514,771,993,265,2.86,349.6,1.3,66.52,264,290,133.26,288,17758,18564,290,0.99,-0.13,0,-2.86,-0.05,2.6,-8.18,-80.82,-23.66,-20.89,1.94,-23.04,-23.29,Right Fall while Standing
08:00.5,359,512,768,993,264,2.88,347.83,1.29,66.52,264,291,133.26,288,17758,37709,581,0.99,-0.14,0.01,-6.18,-1.12,4.14,-8.48,-80.51,-24.36,-21.28,2.55,-23.73,-23.65,Right Fall while Standing
08:00.6,58,505,757.5,993,265,2.86,349.6,1.3,66.52,264,288,133.26,288,17758,55117,869,0.98,-0.16,0.03,-2.77,-2.18,4.51,-9.96,-78.91,-24.64,-21.81,3.22,-24.05,-24.09,Right Fall while Standing
08:00.7,587,506,759,993,265,2.86,349.6,1.3,66.52,264,288,133.26,288,17758,72525,1157,1.02,-0.2,0.02,-0.65,3.08,8.42,-11.45,-77.47,-24.65,-21.67,4.37,-24.12,-23.9,Right Fall while Standing
08:00.9,890,512,768,993,264,2.88,347.83,1.29,66.52,264,289,133.26,288,17758,90510,1446,1.03,-0.21,0.01,0.9,-0.42,-1.75,-12.02,-76.97,-24.47,-21.97,4.25,-23.97,-24.17,Right Fall while Standing
08:01.0,550,512,768,993,264,2.88,347.83,1.29,66.52,264,290,133.26,288,17758,109074,1736,1.02,-0.18,0.01,-0.44,2.4,-3.2,-10.72,-78.26,-24.45,-21.92,3.95,-23.9,-24.18,Right Fall while Standing
08:01.1,57,506,759,993,264,2.88,347.83,1.29,66.52,264,288,133.26,288,17758,126482,2024,1.01,-0.19,0.01,-5.27,-1.86,2.72,-11.16,-77.84,-25.04,-22.41,4.38,-24.48,-24.62,Right Fall while Standing
08:01.2,638,508,762,993,266,2.85,351.39,1.3,66.52,264,289,133.26,288,17758,144467,2313,0.99,-0.2,0.01,-3.5,0.24,1.48,-12.22,-76.76,-25.41,-22.63,4.67,-24.88,-24.79,Right Fall while Standing
08:01.4,788,511,766.5,993,264,2.88,347.83,1.29,66.52,264,289,133.26,288,17758,162452,2602,1,-0.2,0.04,-1.25,4.77,-1.04,-12.08,-76.74,-25.49,-22.28,4.64,-24.96,-24.46,Right Fall while Standing
08:01.5,247,508,762,993,263,2.89,346.05,1.29,66.12,264,291,134.76,289,18158,0,0,1.01,-0.2,0.01,-3.25,0.76,0.59,-11.64,-77.35,-25.83,-22.43,4.81,-25.26,-24.63,Right Fall while Standing
08:01.6,219,504,756,993,265,2.86,349.6,1.3,66.12,264,291,134.76,289,18158,19145,291,0.99,-0.21,0.03,2.71,5.28,-0.82,-12.44,-76.46,-25.42,-22.02,4.81,-24.9,-24.2,Right Fall while Standing
08:01.7,626,506,759,993,264,2.88,347.83,1.29,66.12,264,290,134.76,289,18158,37709,581,1,-0.2,0.04,2.79,9.71,-0.3,-11.81,-76.98,-25,-21.06,4.87,-24.47,-23.3,Right Fall while Standing
08:01.9,782,509,763.5,993,262,2.9,344.28,1.28,66.12,264,290,134.76,289,18158,56273,871,0.97,-0.19,0.05,0,-3.66,2.81,-11.85,-76.76,-24.93,-21.77,5.32,-24.41,-23.97,Right Fall while Standing
08:05.6,776,776,1164,776,252,3.06,326.85,1.23,0,0,283,0,0,0,29106,566,1,-0.15,0.07,-1.44,0.08,3.03,-8.9,-79.2,-0.47,-0.49,0.45,-0.81,-3.64,Forward Fall while Standing
08:05.8,376,576,864,776,251,3.08,325.13,1.23,0,0,284,0,0,0,44226,850,0.96,-0.15,0.08,-5.58,-6.51,0.47,-9.27,-78.48,-1.09,-1.54,0.6,-1.41,-4.62,Forward Fall while Standing
08:05.9,130,427,640.5,776,253,3.04,328.57,1.24,0,0,279,0,0,0,56531,1129,1.01,-0.17,0.04,-2.12,-12.53,0.17,-10.02,-78.75,-1.28,-3.31,0.72,-1.63,-6.33,Forward Fall while Standing
08:06.0,129,352,528,776,252,3.06,326.85,1.23,0,0,280,0,0,0,69395,1409,1.05,-0.16,0.02,-5.51,-8.79,-2.7,-9.27,-79.64,-1.89,-4.65,0.48,-2.19,-7.65,Forward Fall while Standing
08:06.1,228,327,490.5,776,252,3.06,326.85,1.23,0,0,280,0,0,0,82259,1689,1.02,-0.16,-0.01,-2.56,0.1,-1.21,-9.49,-79.48,-2.14,-4.88,0.43,-2.43,-7.86,Forward Fall while Standing
08:06.2,738,396,594,776,253,3.04,328.57,1.24,0,0,281,0,0,0,95684,1970,1.01,-0.14,-0.03,-0.15,-3.51,-5.82,-8.44,-80.43,-2.09,-5.56,-0.19,-2.34,-8.55,Forward Fall while Standing
08:06.4,850,461,691.5,850,253,3.04,328.57,1.24,0,0,281,0,0,0,109109,2251,1.03,-0.14,-0.07,-0.64,-5.24,-3.98,-8.22,-79.83,-2.1,-6.45,-0.58,-2.34,-9.38,Forward Fall while Standing
08:06.5,732,494,741,850,253,3.04,328.57,1.24,0,0,282,0,0,0,123097,2533,0.98,-0.14,-0.04,0.92,-11.65,-0.71,-8.57,-80.14,-1.91,-8.13,-0.57,-2.18,-11.01,Forward Fall while Standing
08:06.6,348,478,717,850,253,3.04,328.57,1.24,20724.26,252,284,117.56,281,13820,0,0,1,-0.13,-0.08,-5.31,-11.35,1.38,-7.88,-79.69,-2.51,-9.8,-0.3,-2.72,-12.59,Forward Fall while Standing
08:06.7,266,457,685.5,850,273,2.75,364,1.33,20724.26,252,286,117.56,281,13820,16260,286,1.02,-0.14,-0.1,-4.6,-1.11,0.09,-8.14,-78.91,-3.01,-10.18,-0.19,-3.22,-12.93,Forward Fall while Standing
08:06.9,966,503,754.5,966,263,2.89,346.05,1.29,20724.26,252,285,117.56,281,13820,31949,571,1,-0.13,-0.08,-0.19,-10.12,-2.39,-7.93,-79.75,-2.97,-11.71,-0.39,-3.16,-14.43,Forward Fall while Standing
08:07.0,996,544,816,996,258,2.97,337.25,1.26,20724.26,252,285,117.56,281,13820,47638,856,0.99,-0.14,-0.12,-6.39,-25.03,0.03,-8.76,-77.59,-3.69,-15.09,-0.29,-3.9,-17.59,Forward Fall while Standing
08:07.1,338,502,753,996,237,3.32,301.53,1.16,20724.26,252,283,117.56,281,13820,62191,1139,0.97,-0.13,-0.16,-6.43,-28.24,-2.4,-8.07,-76.29,-4.43,-18.9,-0.49,-4.58,-21.2,Forward Fall while Standing
08:07.2,338,466,699,996,250,3.09,323.42,1.22,20724.26,252,281,117.56,281,13820,75616,1420,0.98,-0.13,-0.26,-4.6,-42.93,10.58,-8.11,-71.88,-4.94,-24.56,0.94,-5.07,-26.45,Forward Fall while Standing
08:07.4,581,474,711,996,253,3.04,328.57,1.24,20724.26,252,282,117.56,281,13820,89604,1702,0.98,-0.19,-0.41,1.45,-50.73,13.23,-10.99,-63.51,-4.69,-31.21,2.71,-4.94,-32.5,Forward Fall while Standing
08:07.5,464,473,709.5,996,253,3.04,328.57,1.24,20724.26,252,283,117.56,281,13820,104157,1985,0.94,-0.26,-0.42,10.78,-47.02,12.27,-14.56,-60.72,-3.26,-37.38,4.35,-3.71,-38.31,Forward Fall while Standing
08:07.6,338,445,667.5,996,253,3.04,328.57,1.24,20724.26,252,280,117.56,281,13820,117021,2265,0.9,-0.25,-0.57,12.78,-35.39,1.52,-13.6,-53.9,-1.59,-42.06,4.64,-2.07,-42.53,Forward Fall while Standing
08:07.7,338,421,631.5,996,221,3.63,275.56,1.08,20724.26,252,208,117.56,281,13820,94749,2473,0.85,-0.24,-0.57,14.27,-2.41,7.71,-13.88,-52.26,0.28,-42.61,5.71,-0.29,-43,Forward Fall while Standing
08:07.9,338,398,597,996,207,3.94,253.68,1.01,20724.2,246,229,90.36,270,8164,0,0,0.84,-0.29,-0.61,-2.78,-15.34,8.21,-15.96,-49.6,0,-44.76,6.83,-0.64,-44.95,Forward Fall while Standing
08:08.0,384,398,597,996,208,3.92,255.21,1.02,20724.2,246,232,90.36,270,8164,4294955584,232,0.81,-0.31,-0.61,-3.73,-36.8,0.83,-17.57,-48.27,-0.4,-49.65,7.03,-1.09,-49.6,Forward Fall while Standing
08:08.1,338,379,568.5,996,210,3.87,258.3,1.03,20724.2,246,232,90.36,270,8164,4294943872,464,0.74,-0.28,-0.73,5.44,-23.9,7.23,-15.9,-41.64,0.36,-52.91,8.04,-0.29,-52.46,Forward Fall while Standing
08:08.3,953,405,607.5,996,214,3.78,264.52,1.05,20724.2,246,232,90.36,270,8164,4294932160,696,0.73,-0.33,-0.74,4.26,-2.7,11.4,-18.01,-40.39,0.95,-53.5,9.55,0.2,-52.97,Forward Fall while Standing
08:08.4,999,431,646.5,999,215,3.76,266.09,1.05,20724.2,246,234,90.36,270,8164,4294921380,930,0.72,-0.37,-0.73,0.55,-24.71,2.25,-20.19,-39.76,1.09,-56.86,9.94,0.24,-56.18,Forward Fall while Standing
08:08.5,336,427,640.5,999,216,3.74,267.66,1.06,20724.2,246,234,90.36,270,8164,4294910600,1164,0.68,-0.35,-0.81,-6.47,-30.78,-4.53,-19.1,-36.24,0.35,-60.99,9.47,-0.43,-60,Forward Fall while Standing
08:08.6,290,421,631.5,999,217,3.71,269.23,1.06,20724.2,246,232,90.36,270,8164,4294898888,1396,0.64,-0.33,-0.86,0.4,-6.98,-0.98,-17.81,-33.14,0.47,-62.12,9.44,-0.26,-60.97,Forward Fall while Standing
08:08.8,1000,443,664.5,1000,218,3.69,270.81,1.07,20724.2,246,231,90.36,270,8164,4294886713,1627,0.61,-0.34,-0.82,-9.02,-18.85,-4.22,-19.06,-33.05,-0.6,-64.77,9.01,-1.34,-63.5,Forward Fall while Standing
08:08.9,498,445,667.5,1000,216,3.74,267.66,1.06,20724.2,246,231,90.36,270,8164,4294874538,1858,0.66,-0.35,-0.92,-27.63,-29.51,-17.66,-17.57,-32.49,-4.02,-68.74,6.88,-4.56,-67.29,Forward Fall while Standing
08:09.0,298,440,660,1000,220,3.65,273.97,1.08,20724.2,246,234,90.36,270,8164,4294863758,2092,0.46,-0.21,-0.97,-10.71,11.95,-12.98,-11.82,-23.52,-5.3,-67.48,5.33,-5.57,-65.72,Forward Fall while Standing
08:09.1,1001,459,688.5,1001,227,3.51,285.18,1.11,20723.85,216,282,20724.09,237,429487776,0,0,0.56,-0.24,-0.86,-12.04,-13.01,-0.73,-13.78,-30.62,-6.76,-69.39,5.34,-7.04,-67.83,Forward Fall while Standing
08:09.3,1001,478,717,1001,257,2.98,335.51,1.26,20723.85,216,287,20724.09,237,429487776,16833,287,0.53,-0.23,-0.91,-13.46,-36.24,-7.75,-12.7,-28.12,-8.4,-74.24,4.46,-8.57,-72.4,Forward Fall while Standing
08:09.4,644,483,724.5,1001,263,2.89,346.05,1.29,20723.85,216,276,20724.09,237,429487776,27473,563,0.46,-0.18,-0.96,-3.17,0.52,-0.31,-10.38,-23.54,-8.73,-74.43,4.52,-8.8,-72.39,Forward Fall while Standing
08:09.5,1000,499,748.5,1001,260,2.93,340.76,1.27,20723.85,216,275,20724.09,237,429487776,37562,838,0.47,-0.2,-0.95,-8.41,-12.69,-2.02,-11.33,-24.15,-9.73,-76.3,4.36,-9.79,-74.21,Forward Fall while Standing
08:09.6,71,486,729,1001,258,2.97,337.25,1.26,20723.85,216,276,20724.09,237,429487776,48202,1114,0.47,-0.19,-0.99,-0.92,-3.6,-2.05,-10.18,-23.57,-9.77,-77.01,4.2,-9.79,-74.87,Forward Fall while Standing
08:09.8,123,475,712.5,1001,257,2.98,335.51,1.26,20723.85,216,273,20724.09,237,429487776,57195,1387,0.44,-0.18,-0.97,-1.59,-7.95,-0.04,-10.07,-22.23,-9.9,-78.27,4.3,-9.91,-76.03,Forward Fall while Standing
08:09.9,998,490,735,1001,256,3,333.77,1.25,20723.85,216,273,20724.09,237,429487776,66188,1660,0.43,-0.2,-0.95,-0.69,-9.58,-2.49,-11.64,-22.12,-9.92,-79.74,4.08,-9.99,-77.44,Forward Fall while Standing
08:10.0,801,477,715.5,1001,254,3.03,330.3,1.24,20723.85,216,271,20724.09,237,429487776,74093,1931,0.4,-0.2,-1.01,2.02,-11.27,1.48,-11.13,-19.53,-9.59,-81.43,4.37,-9.66,-78.95,Forward Fall while Standing
08:10.1,801,464,696,1001,254,3.03,330.3,1.24,20723.85,216,269,20724.09,237,429487776,80918,2200,0.37,-0.2,-1,-2.39,-10.91,-0.91,-11.41,-18.24,-9.83,-83.07,4.36,-9.89,-80.47,Forward Fall while Standing
08:10.3,999,478,717,1001,254,3.03,330.3,1.24,20723.85,216,271,20724.09,237,429487776,88823,2471,0.39,-0.2,-1.05,-3.71,-6.24,0.4,-10.94,-18.36,-10.23,-84.11,4.51,-10.25,-81.48,Forward Fall while Standing
08:10.4,644,466,699,1001,252,3.06,326.85,1.23,16.28,256,273,98.9,274,9780,0,0,0.34,-0.21,-1,-1.72,-6.71,-1,-11.57,-16.88,-10.37,-85.19,4.48,-10.42,-82.46,Forward Fall while Standing
08:10.5,801,454,681,1001,255,3.01,332.03,1.25,16.28,256,277,98.9,274,9780,11193,277,0.33,-0.21,-1.03,0.99,0.85,-0.76,-11.49,-15.65,-10.18,-85.34,4.49,-10.23,-82.55,Forward Fall while Standing
08:10.6,920,443,664.5,1001,214,3.78,264.52,1.05,16.28,256,192,98.9,274,9780,4294949817,469,0.32,-0.21,-1.03,-1.17,15.64,-0.43,-11.87,-15.21,-10.25,-83.63,4.53,-10.32,-80.9,Forward Fall while Standing
08:10.8,772,432,648,1001,185,4.53,220.76,0.9,16.28,256,179,98.9,274,9780,14562,648,0.39,-0.23,-1,-1.37,21.08,-2.01,-12.81,-19.23,-10.35,-81.25,4.38,-10.45,-78.77,Forward Fall while Standing
08:10.9,227,422,633,1001,176,4.81,207.79,0.86,16.28,256,175,98.9,274,9780,45187,823,0.41,-0.22,-1.01,-3.9,16.86,-5.4,-11.94,-20,-10.77,-79.39,3.8,-10.82,-77.01,Forward Fall while Standing
08:11.0,772,413,619.5,1001,177,4.78,209.22,0.87,16.28,256,169,98.9,274,9780,73748,992,0.46,-0.23,-0.97,-4.7,27.76,-3.76,-12.43,-23.29,-11.29,-76.17,3.43,-11.33,-74.05,Forward Fall while Standing
08:11.1,937,424,636,1001,180,4.68,213.52,0.88,16.28,256,169,98.9,274,9780,102309,1161,0.59,-0.21,-0.94,-7.15,20.47,-6.91,-11.32,-29.85,-12.11,-73.86,2.67,-12.08,-72.1,Forward Fall while Standing
08:11.3,1001,437,655.5,1001,184,4.56,219.31,0.9,16.28,256,170,98.9,274,9780,131209,1331,0.53,-0.17,-0.92,-10.21,18.08,-7.93,-9.81,-28.01,-13.33,-71.84,1.77,-13.19,-70.08,Forward Fall while Standing
08:11.4,801,444,666,1001,186,4.5,222.22,0.91,16.28,256,170,98.9,274,9780,160109,1501,0.58,-0.15,-0.9,-2.32,19.83,-8.34,-8.64,-31.01,-13.55,-69.61,0.82,-13.35,-68.06,Forward Fall while Standing
08:11.5,920,454,681,1001,189,4.41,226.62,0.92,16.28,256,168,98.9,274,9780,188333,1669,0.64,-0.12,-0.94,-7.37,37.01,-5.28,-6.4,-32.28,-14.41,-65.2,0.26,-14.09,-63.88,Forward Fall while Standing
08:11.7,1001,466,699,1001,239,3.28,304.85,1.17,20724.16,198,297,145.26,196,21099,0,0,0.67,-0.13,-0.8,-11.5,46.85,-10.95,-7.56,-38.21,-15.77,-59.59,-1.01,-15.45,-58.73,Forward Fall while Standing
08:11.8,1001,476,714,1001,281,2.64,378.71,1.37,20724.16,198,301,145.26,196,21099,25065,301,0.77,-0.1,-0.7,-7.54,44.07,-19.31,-5.99,-45.79,-16.66,-54.25,-3.36,-16.23,-53.91,Forward Fall while Standing
08:11.9,1000,486,729,1001,287,2.56,389.95,1.4,20724.16,198,299,145.26,196,21099,48930,600,0.74,-0.03,-0.63,-7.4,37.15,-15.31,-2.36,-47.64,-17.52,-49.82,-5.19,-16.92,-49.73,Forward Fall while Standing
08:12.0,858,494,741,1001,287,2.56,389.95,1.4,20724.16,198,298,145.26,196,21099,72198,898,0.83,-0.01,-0.64,-10.44,40.89,-9.55,-1.32,-50.92,-18.78,-44.88,-6.31,-18.08,-45.12,Forward Fall while Standing
08:12.2,729,498,747,1001,284,2.6,384.3,1.39,20724.16,198,303,145.26,196,21099,98471,1201,0.87,-0.01,-0.5,-10.63,38.94,-8.36,-1.08,-58.43,-20.05,-40.22,-7.26,-19.29,-40.95,Forward Fall while Standing
08:12.3,858,489,733.5,1001,281,2.64,378.71,1.37,20724.16,198,298,145.26,196,21099,121739,1499,0.92,0.04,-0.44,-1.52,32.22,0.69,1.72,-62.82,-20.17,-36.39,-7.07,-19.29,-37.44,Forward Fall while Standing
08:12.4,10,480,720,1001,278,2.68,373.15,1.36,20724.16,198,298,145.26,196,21099,145007,1797,0.93,0.01,-0.39,1.11,37.64,17.5,0.11,-65.6,-19.96,-31.9,-4.77,-19.16,-33.24,Forward Fall while Standing
08:12.5,367,478,717,1001,277,2.69,371.31,1.35,20724.16,198,300,145.26,196,21099,169471,2097,0.96,-0.04,-0.3,-3.77,36.26,14.98,-2.75,-71.05,-20.36,-27.58,-2.78,-19.66,-29.32,Forward Fall while Standing
08:12.7,367,470,705,1001,275,2.72,367.65,1.34,20724.16,198,300,145.26,196,21099,193935,2397,1,-0.07,-0.17,0.1,46.82,-3.42,-4.37,-77.97,-20.28,-21.93,-3.11,-19.64,-24.17,Forward Fall while Standing
08:12.8,496,462,693,1001,274,2.73,365.82,1.34,20724.16,198,299,145.26,196,21099,217800,2696,0.95,-0.05,-0.18,0.47,52.22,-0.26,-3.71,-77.33,-20.15,-15.6,-3.04,-19.49,-18.07,Forward Fall while Standing
08:12.9,461,462,693,1001,274,2.73,365.82,1.34,113.02,279,299,155.45,299,24165,0,0,1,-0.09,0.04,-12.21,49.23,22.78,-5.9,-82.64,-21.59,-9.75,-0.12,-20.97,-12.66,Forward Fall while Standing
08:13.0,496,462,693,1001,273,2.75,364,1.33,113.02,279,299,155.45,299,24165,23865,299,1.05,-0.12,0.12,-7.56,24.2,10.37,-7.22,-79.2,-22.48,-6.95,1.29,-21.87,-9.84,Forward Fall while Standing
08:13.2,82,456,684,1001,271,2.77,360.37,1.32,113.02,279,300,155.45,299,24165,48329,599,0.99,-0.15,0.15,-4.27,13.95,-6.02,-9.11,-76.28,-22.94,-5.46,0.63,-22.39,-8.29,Forward Fall while Standing
08:13.3,38,449,673.5,1001,271,2.77,360.37,1.32,113.02,279,298,155.45,299,24165,71597,897,0.98,-0.14,0.13,-6.68,1.24,-4.99,-8.39,-77.73,-23.7,-5.55,0.11,-23.09,-8.44,Forward Fall while Standing
08:13.4,591,451,676.5,1001,272,2.76,362.18,1.33,113.02,279,298,155.45,299,24165,94865,1195,0.98,-0.13,0.15,-4.13,-2.75,0.89,-7.97,-77.13,-24.15,-6.14,0.32,-23.5,-8.98,Forward Fall while Standing
08:13.5,772,456,684,1001,271,2.77,360.37,1.32,113.02,279,300,155.45,299,24165,119329,1495,1.02,-0.13,0.1,-0.19,-5.65,4.73,-7.79,-79.41,-24.1,-7.1,1.01,-23.45,-9.99,Forward Fall while Standing
08:13.7,227,453,679.5,1001,271,2.77,360.37,1.32,113.02,279,299,155.45,299,24165,143194,1794,1.01,-0.16,0.07,-4.27,-3.02,3.11,-9.3,-78.85,-24.57,-7.73,1.49,-23.96,-10.57,Forward Fall while Standing
08:13.8,273,450,675,1001,270,2.79,358.57,1.32,113.02,279,296,155.45,299,24165,165274,2090,1.01,-0.15,0.08,-0.99,4.53,-1.99,-8.99,-78.89,-24.62,-7.41,1.34,-24,-10.27,Forward Fall while Standing
08:13.9,770,455,682.5,1001,270,2.79,358.57,1.32,113.02,279,296,155.45,299,24165,187354,2386,1,-0.14,0.08,-3.51,2.6,-0.86,-8.58,-79.08,-24.99,-7.33,1.33,-24.34,-10.2,Forward Fall while Standing
08:14.0,732,459,688.5,1001,267,2.83,353.17,1.3,113.02,279,296,155.45,299,24165,209434,2682,1.02,-0.15,0.11,0.02,1.11,-2.88,-8.82,-78.16,-24.92,-7.45,1.07,-24.28,-10.27,Forward Fall while Standing
08:14.2,338,452,678,1001,266,2.85,351.39,1.3,86.46,270,293,151.57,297,22973,0,0,1,-0.13,0.13,1.7,1.91,-3.76,-8.07,-77.99,-24.64,-7.46,0.7,-23.98,-10.28,Forward Fall while Standing
08:14.3,59,447,670.5,1001,265,2.86,349.6,1.3,86.46,270,292,151.57,297,22973,19728,292,1,-0.14,0.09,-0.66,0.45,2.86,-8.46,-78.99,-24.65,-7.65,1.16,-24.01,-10.5,Forward Fall while Standing
08:14.4,672,450,675,1001,266,2.85,351.39,1.3,86.46,270,292,151.57,297,22973,39456,584,1.05,-0.14,0.07,0.57,3.53,0.73,-8.15,-79.86,-24.51,-7.46,1.35,-23.86,-10.36,Forward Fall while Standing
08:14.5,988,457,685.5,1001,265,2.86,349.6,1.3,86.46,270,294,151.57,297,22973,60356,878,1.01,-0.15,0.1,-0.96,2.31,0.08,-9.29,-78.13,-24.56,-7.42,1.46,-23.95,-10.25,Forward Fall while Standing
08:14.7,566,459,688.5,1001,264,2.88,347.83,1.29,86.46,270,295,151.57,297,22973,81845,1173,0.96,-0.16,0.12,-3.28,-1.46,0.51,-10.08,-76.42,-24.9,-7.85,1.62,-24.31,-10.6,Forward Fall while Standing
08:14.8,234,456,684,1001,264,2.88,347.83,1.29,86.46,270,291,151.57,297,22973,100990,1464,1,-0.15,0.08,3,3.25,1.92,-9.32,-78.43,-24.46,-7.7,1.96,-23.85,-10.53,Forward Fall while Standing
08:14.9,639,458,687,1001,263,2.89,346.05,1.29,86.46,270,294,151.57,297,22973,121890,1758,0.99,-0.17,0.11,7.82,7.89,6.41,-10.24,-76.76,-23.41,-6.96,2.86,-22.88,-9.75,Forward Fall while Standing
08:15.0,987,465,697.5,1001,263,2.89,346.05,1.29,86.46,270,294,151.57,297,22973,142790,2052,0.99,-0.16,0.13,7.11,19.3,5.74,-9.86,-76.5,-22.45,-4.8,3.68,-21.95,-7.67,Forward Fall while Standing
08:18.9,992,992,1488,992,258,2.97,337.25,1.26,0,0,289,0,0,0,35970,578,0.99,-0.28,0.16,6.02,9.55,-16.57,-16.05,-70.53,1.01,0.78,-1.9,0.33,-2.07,Sitting
08:19.0,898,945,1417.5,992,257,2.98,335.51,1.26,0,0,289,0,0,0,53955,867,0.96,-0.23,0.14,-6.03,-3.53,-16.71,-13.66,-72.93,0.34,0.1,-3.85,-0.22,-2.82,Sitting
08:19.1,597,829,1243.5,992,256,3,333.77,1.25,0,0,290,0,0,0,72519,1157,0.95,-0.2,0.12,-13.29,0.59,-3.24,-12.27,-74.65,-1.24,-0.07,-4.15,-1.68,-3.05,Sitting
08:19.3,129,654,981,992,256,3,333.77,1.25,0,0,290,0,0,0,91083,1447,1,-0.21,0.18,-5.27,8.86,0.09,-12.28,-72.78,-1.82,0.77,-4.04,-2.24,-2.17,Sitting
08:19.4,561,523,784.5,992,257,2.98,335.51,1.26,0,0,289,0,0,0,109068,1736,1,-0.22,0.17,-4.5,2.28,-2.73,-12.64,-73,-2.3,0.81,-4.28,-2.71,-2.14,Sitting
08:19.5,177,465,697.5,992,257,2.98,335.51,1.26,0,0,288,0,0,0,126476,2024,0.97,-0.21,0.18,-0.37,4.02,-6.08,-12.88,-72.42,-2.27,1.06,-4.93,-2.7,-1.88,Sitting
08:19.6,561,479,718.5,992,258,2.97,337.25,1.26,0,0,289,0,0,0,144461,2313,0.97,-0.19,0.17,-1.73,6.53,-4.67,-11.67,-73.47,-2.42,1.61,-5.4,-2.79,-1.4,Sitting
08:19.8,933,535,802.5,992,258,2.97,337.25,1.26,0,0,290,0,0,0,163025,2603,0.98,-0.18,0.17,-4.5,1.34,-5.08,-10.83,-74.1,-2.91,1.53,-5.93,-3.22,-1.5,Sitting
08:19.9,987,586,879,992,258,2.97,337.25,1.26,25.83,257,290,134.75,289,18157,0,0,0.98,-0.17,0.15,-4.08,-0.66,-2.89,-10.44,-75.47,-3.34,1.2,-6.19,-3.62,-1.87,Sitting
08:20.0,696,597,895.5,992,258,2.97,337.25,1.26,25.83,257,292,134.75,289,18157,19728,292,0.96,-0.19,0.14,-7.07,5.07,0.07,-11.65,-74.66,-4.15,1.58,-6.08,-4.45,-1.47,Sitting
08:20.1,30,545,817.5,992,258,2.97,337.25,1.26,25.83,257,291,134.75,289,18157,38873,583,0.99,-0.19,0.2,-0.96,6.79,-4.4,-11.01,-73.06,-4.2,2.18,-6.53,-4.47,-0.83,Sitting
08:20.3,281,523,784.5,992,259,2.95,339.01,1.27,25.83,257,288,134.75,289,18157,56281,871,0.96,-0.19,0.21,-3.98,-4.4,-2.63,-11.64,-72.02,-4.63,1.38,-6.76,-4.91,-1.55,Sitting
08:20.4,760,541,811.5,992,259,2.95,339.01,1.27,25.83,257,289,134.75,289,18157,74266,1160,0.99,-0.17,0.18,-3.71,-2.68,0.84,-10.07,-74.28,-5.02,0.8,-6.56,-5.22,-2.21,Sitting
08:20.5,871,565,847.5,992,259,2.95,339.01,1.27,25.83,257,290,134.75,289,18157,92830,1450,0.96,-0.19,0.16,7.53,8.34,1.43,-11.79,-73.91,-4.01,1.59,-6.28,-4.32,-1.43,Sitting
08:20.6,304,547,820.5,992,258,2.97,337.25,1.26,25.83,257,291,134.75,289,18157,111975,1741,0.99,-0.21,0.18,-5.72,7.29,-2.02,-12.54,-72.64,-4.65,2.25,-6.43,-4.97,-0.75,Sitting
08:20.8,28,515,772.5,992,259,2.95,339.01,1.27,25.83,257,288,134.75,289,18157,129383,2029,0.96,-0.17,0.22,-7.66,0.98,-8.54,-10.54,-72.26,-5.54,2.12,-7.39,-5.74,-0.85,Sitting
08:20.9,681,525,787.5,992,260,2.93,340.76,1.27,25.83,257,289,134.75,289,18157,147368,2318,0.96,-0.17,0.21,-5.08,-1.48,5.85,-10.4,-72.57,-6.1,1.69,-6.56,-6.27,-1.28,Sitting
08:21.0,921,547,820.5,992,260,2.93,340.76,1.27,25.83,257,289,134.75,289,18157,165353,2607,0.99,-0.21,0.22,-0.9,-0.94,2.89,-12.1,-71.61,-6.14,1.32,-6.11,-6.38,-1.59,Sitting
08:21.1,490,544,816,992,258,2.97,337.25,1.26,37.97,258,291,135.83,289,18448,0,0,0.96,-0.21,0.18,0.9,5.34,-5.21,-12.57,-72.49,-5.96,1.74,-6.66,-6.23,-1.23,Sitting
08:21.3,28,518,777,992,258,2.97,337.25,1.26,37.97,258,290,135.83,289,18448,18564,290,0.96,-0.19,0.19,-4.37,2.92,-3.69,-11.51,-72.89,-6.43,1.85,-7.02,-6.64,-1.14,Sitting
08:21.4,76,497,745.5,992,258,2.97,337.25,1.26,37.97,258,287,135.83,289,18448,35397,577,0.97,-0.18,0.21,-8.82,-4.15,-3.25,-11.03,-72.33,-7.46,1.09,-7.32,-7.6,-1.85,Sitting
08:21.5,753,508,762,992,258,2.97,337.25,1.26,37.97,258,288,135.83,289,18448,52805,865,0.97,-0.18,0.2,-7.16,-6.47,1.16,-10.85,-73.03,-8.28,0.03,-7.08,-8.39,-2.89,Sitting
08:21.6,788,520,780,992,256,3,333.77,1.25,37.97,258,285,135.83,289,18448,68494,1150,0.98,-0.2,0.18,-3.26,-3.44,4.63,-11.83,-73.12,-8.62,-0.65,-6.4,-8.75,-3.55,Sitting
08:21.8,369,514,771,992,253,3.04,328.57,1.24,37.97,258,287,135.83,289,18448,85327,1437,0.97,-0.21,0.16,2.65,2.08,0.11,-12.88,-73.1,-8.22,-0.64,-6.29,-8.41,-3.54,Sitting
08:21.9,338,494,741,992,252,3.06,326.85,1.23,37.97,258,286,135.83,289,18448,101587,1723,0.99,-0.22,0.16,-3.27,1.02,-2.6,-12.77,-73.22,-8.56,-0.76,-6.51,-8.73,-3.66,Sitting
08:22.0,347,488,732,992,251,3.08,325.13,1.23,37.97,258,284,135.83,289,18448,116707,2007,0.97,-0.2,0.15,-5.24,-1.35,-5.27,-11.82,-74.34,-9.15,-1.18,-7.08,-9.25,-4.11,Sitting
08:22.1,989,506,759,992,250,3.09,323.42,1.22,37.97,258,285,135.83,289,18448,132396,2292,0.96,-0.2,0.18,-5.72,1.11,1.27,-12.14,-72.74,-9.79,-1.29,-6.82,-9.89,-4.15,Sitting
08:22.3,665,512,768,992,248,3.13,320,1.21,37.97,258,286,135.83,289,18448,148656,2578,0.98,-0.21,0.18,-2.42,1.86,1.29,-12.54,-72.75,-10.03,-1.31,-6.56,-10.13,-4.17,Sitting
08:22.4,338,494,741,992,248,3.13,320,1.21,20724.27,253,285,128.2,286,16433,0,0,0.98,-0.21,0.15,-3.21,-0.9,-1.52,-12.59,-73.79,-10.35,-1.67,-6.65,-10.44,-4.55,Sitting
08:22.5,345,489,733.5,992,249,3.11,321.71,1.22,20724.27,253,285,128.2,286,16433,15689,285,0.97,-0.2,0.15,0.29,3.08,-1.98,-12.13,-73.84,-10.25,-1.53,-6.8,-10.32,-4.43,Sitting
08:22.6,983,505,757.5,992,249,3.11,321.71,1.22,20724.27,253,287,128.2,286,16433,32522,572,0.97,-0.21,0.17,-3.66,0.69,-1.15,-12.67,-72.86,-10.63,-1.7,-6.84,-10.71,-4.54,Sitting
08:22.8,810,515,772.5,992,248,3.13,320,1.21,20724.27,253,288,128.2,286,16433,49930,860,0.97,-0.21,0.18,-1.63,0.55,-1.85,-12.79,-72.36,-10.76,-1.88,-6.98,-10.85,-4.7,Sitting
08:22.9,561,499,748.5,992,247,3.14,318.3,1.21,20724.27,253,285,128.2,286,16433,65619,1145,0.98,-0.21,0.19,-2.62,-0.96,0.58,-12.35,-72.52,-11.02,-2.25,-6.8,-11.08,-5.06,Sitting
08:23.0,458,498,747,992,247,3.14,318.3,1.21,20724.27,253,284,128.2,286,16433,80739,1429,0.97,-0.21,0.16,-0.34,-1.65,-2.03,-12.55,-73.21,-11,-2.71,-6.96,-11.06,-5.53,Sitting
08:23.1,970,511,766.5,992,247,3.14,318.3,1.21,20724.27,253,286,128.2,286,16433,96999,1715,0.97,-0.21,0.15,-2.78,-2.88,-0.1,-12.52,-73.65,-11.27,-3.32,-6.87,-11.32,-6.13,Sitting
08:23.3,368,507,760.5,992,246,3.16,316.6,1.2,20724.27,253,286,128.2,286,16433,113259,2001,0.98,-0.21,0.13,-1.77,-0.27,-1.78,-12.66,-74.26,-11.43,-3.61,-7,-11.47,-6.43,Sitting
08:23.4,198,499,748.5,992,247,3.14,318.3,1.21,20724.27,253,283,128.2,286,16433,127812,2284,0.98,-0.22,0.16,-1.26,2.88,-0.66,-13.02,-72.84,-11.51,-3.5,-6.98,-11.57,-6.27,Sitting
08:23.5,837,508,762,992,248,3.13,320,1.21,20724.27,253,286,128.2,286,16433,144072,2570,0.98,-0.21,0.16,-1.98,2.37,-0.38,-12.68,-73.2,-11.69,-3.45,-6.93,-11.73,-6.24,Sitting
08:23.6,796,515,772.5,992,247,3.14,318.3,1.21,20724.2,247,287,126.85,285,16089,0,0,0.99,-0.21,0.15,-1.67,2.61,-0.23,-12.45,-73.82,-11.83,-3.37,-6.86,-11.86,-6.19,Sitting
08:23.8,97,505,757.5,992,246,3.16,316.6,1.2,20724.2,247,285,126.85,285,16089,15689,285,0.97,-0.23,0.16,-3.35,-1.34,-2.41,-13.68,-72.33,-12.18,-3.79,-7.06,-12.24,-6.53,Sitting
08:23.9,189,497,745.5,992,247,3.14,318.3,1.21,20724.2,247,284,126.85,285,16089,30809,569,0.98,-0.2,0.14,0.56,5.11,0.1,-12.14,-74.46,-12.04,-3.4,-6.95,-12.04,-6.24,Sitting
08:24.0,946,508,762,992,248,3.13,320,1.21,20724.2,247,283,126.85,285,16089,45362,852,0.98,-0.22,0.16,-4.81,-0.33,0.57,-12.87,-73.05,-12.57,-3.69,-6.78,-12.58,-6.46,Sitting
08:24.1,719,513,769.5,992,246,3.16,316.6,1.2,20724.2,247,285,126.85,285,16089,61051,1137,0.97,-0.22,0.17,-2.76,-1.05,-1.89,-13.27,-72.5,-12.85,-4.07,-6.92,-12.86,-6.81,Sitting
08:24.3,338,501,751.5,992,246,3.16,316.6,1.2,20724.2,247,285,126.85,285,16089,76740,1422,0.97,-0.22,0.17,-2.08,1.71,-0.63,-13.33,-72.5,-13.04,-4.11,-6.9,-13.05,-6.85,Sitting
08:24.4,399,499,748.5,992,248,3.13,320,1.21,20724.2,247,286,126.85,285,16089,93000,1708,1.03,-0.21,0.13,3.37,3.02,1.13,-12.2,-74.67,-12.54,-3.98,-6.66,-12.53,-6.81,Sitting
08:24.5,963,509,763.5,992,249,3.11,321.71,1.22,20724.2,247,286,126.85,285,16089,109260,1994,0.97,-0.22,0.15,-3.89,-1.23,1.87,-13.33,-72.97,-12.96,-4.39,-6.33,-12.97,-7.13,Sitting
08:24.6,553,510,765,992,248,3.13,320,1.21,20724.2,247,288,126.85,285,16089,126668,2282,0.97,-0.23,0.18,-3.16,-3.41,-0.11,-13.64,-71.76,-13.28,-5.06,-6.24,-13.3,-7.73,Sitting
08:24.8,338,499,748.5,992,248,3.13,320,1.21,20724.2,247,281,126.85,285,16089,140093,2563,0.97,-0.23,0.14,-0.79,0.34,-1.57,-13.73,-73.05,-13.31,-5.27,-6.34,-13.33,-7.98,Sitting
08:24.9,646,502,753,992,247,3.14,318.3,1.21,20724.2,247,282,124.13,284,15407,0,0,0.97,-0.22,0.14,-3.06,2.16,-0.88,-13.29,-73.2,-13.63,-5.25,-6.35,-13.61,-7.97,Sitting
08:25.0,923,511,766.5,992,247,3.14,318.3,1.21,20724.2,247,285,124.13,284,15407,15689,285,0.98,-0.23,0.16,-3.31,1.48,-1.99,-13.69,-72.56,-13.97,-5.32,-6.5,-13.96,-8.01,Sitting
08:25.1,167,504,756,992,246,3.16,316.6,1.2,20724.2,247,283,124.13,284,15407,30242,568,0.97,-0.22,0.15,-2.4,-2.24,-3.48,-13.35,-72.79,-14.2,-5.85,-6.84,-14.17,-8.53,Sitting
08:25.3,85,496,744,992,247,3.14,318.3,1.21,20724.2,247,278,124.13,284,15407,41990,846,0.97,-0.22,0.14,-0.95,-0.38,0.21,-13.03,-73.5,-14.25,-6.15,-6.72,-14.2,-8.84,Sitting
08:25.4,783,501,751.5,992,248,3.13,320,1.21,20724.2,247,281,124.13,284,15407,55415,1127,0.97,-0.23,0.14,-1.46,1.01,1.62,-13.85,-72.89,-14.36,-6.27,-6.41,-14.34,-8.94,Sitting
08:25.5,884,508,762,992,247,3.14,318.3,1.21,20724.2,247,282,124.13,284,15407,69403,1409,0.99,-0.24,0.14,-2.15,-0.27,-2.47,-14.22,-72.6,-14.56,-6.56,-6.62,-14.55,-9.2,Sitting
08:25.6,40,500,750,992,247,3.14,318.3,1.21,20724.2,247,283,124.13,284,15407,83956,1692,0.96,-0.22,0.14,-1.66,0.05,-3.9,-13.17,-73.5,-14.7,-6.8,-7.02,-14.64,-9.47,Sitting
08:25.8,284,496,744,992,249,3.11,321.71,1.22,20724.2,247,281,124.13,284,15407,97381,1973,0.97,-0.22,0.14,-1.41,2.56,0.33,-12.98,-73.59,-14.81,-6.73,-6.87,-14.74,-9.41,Sitting
08:25.9,890,503,754.5,992,249,3.11,321.71,1.22,20724.2,247,281,124.13,284,15407,110806,2254,0.98,-0.23,0.14,-2.98,0.4,0.56,-13.56,-73.08,-15.11,-6.93,-6.71,-15.05,-9.58,Sitting
08:26.0,702,506,759,992,248,3.13,320,1.21,20724.2,247,283,124.13,284,15407,125359,2537,0.98,-0.23,0.16,-1.41,-0.81,-1.99,-13.92,-72.32,-15.22,-7.29,-6.86,-15.17,-9.89,Sitting
08:26.1,338,498,747,992,249,3.11,321.71,1.22,20724.2,247,280,117.57,281,13821,0,0,0.96,-0.22,0.14,-1.58,-0.32,-1.05,-13.5,-73.17,-15.35,-7.58,-6.89,-15.27,-10.2,Sitting
08:26.3,487,497,745.5,992,249,3.11,321.71,1.22,20724.2,247,281,117.57,281,13821,13425,281,0.98,-0.23,0.13,-0.17,4.02,0.57,-13.68,-73.27,-15.3,-7.33,-6.72,-15.23,-9.96,Sitting
08:26.4,973,505,757.5,992,250,3.09,323.42,1.22,20724.2,247,283,117.57,281,13821,27978,564,0.98,-0.24,0.15,-1.68,4.47,-1.6,-13.93,-72.55,-15.44,-7.01,-6.82,-15.38,-9.63,Sitting
08:26.5,522,505,757.5,992,251,3.08,325.13,1.23,20724.2,247,283,117.57,281,13821,42531,847,0.97,-0.22,0.15,-2.53,0.02,-2.11,-13.17,-73.1,-15.68,-7.26,-6.99,-15.58,-9.9,Sitting
08:26.6,338,497,745.5,992,249,3.11,321.71,1.22,20724.2,247,278,117.57,281,13821,54279,1125,0.96,-0.23,0.14,-3.64,-1.19,2.69,-13.92,-72.79,-16.07,-7.66,-6.55,-15.99,-10.27,Sitting
08:26.8,729,501,751.5,992,250,3.09,323.42,1.22,20724.2,247,279,117.57,281,13821,66584,1404,0.98,-0.24,0.14,-2.71,-2,2.4,-14.15,-72.59,-16.34,-8.16,-6.15,-16.25,-10.74,Sitting
08:26.9,872,507,760.5,992,249,3.11,321.71,1.22,20724.2,247,280,117.57,281,13821,79448,1684,0.97,-0.25,0.13,-1.72,0.1,0.64,-14.79,-72.35,-16.48,-8.4,-5.97,-16.42,-10.96,Sitting
08:27.0,136,501,751.5,992,248,3.13,320,1.21,20724.2,247,281,117.57,281,13821,92873,1965,0.97,-0.25,0.13,-1.48,1.5,-0.73,-14.84,-72.19,-16.6,-8.46,-5.96,-16.53,-11.01,Sitting
08:27.1,289,498,747,992,251,3.08,325.13,1.23,20724.2,247,281,117.57,281,13821,106298,2246,0.97,-0.25,0.12,-3.11,1.12,-0.85,-15.09,-72.43,-16.92,-8.57,-5.97,-16.85,-11.13,Sitting
08:27.3,862,503,754.5,992,253,3.04,328.57,1.24,20724.2,247,283,117.57,281,13821,120851,2529,0.97,-0.25,0.13,-0.4,1.86,-0.5,-14.75,-72.4,-16.9,-8.59,-5.93,-16.82,-11.14,Sitting
08:27.4,605,505,757.5,992,251,3.08,325.13,1.23,20724.23,250,285,116.85,281,13653,0,0,0.98,-0.25,0.14,-0.47,-0.61,-1.79,-14.58,-72.36,-16.89,-8.92,-6.06,-16.8,-11.45,Sitting
08:27.5,338,498,747,992,252,3.06,326.85,1.23,20724.23,250,282,116.85,281,13653,13988,282,0.95,-0.25,0.11,-2.02,-1.19,1.02,-15.01,-72.53,-17.07,-9.31,-5.83,-16.99,-11.84,Sitting
08:27.6,479,497,745.5,992,253,3.04,328.57,1.24,20724.23,250,282,116.85,281,13653,27976,564,0.98,-0.25,0.14,-0.54,1.4,-0.89,-14.78,-72.21,-17.07,-9.39,-5.84,-16.98,-11.9,Sitting
08:27.8,984,504,756,992,254,3.03,330.3,1.24,20724.23,250,284,116.85,281,13653,43096,848,0.98,-0.25,0.12,0.27,-1.63,0.04,-14.51,-72.91,-16.96,-9.85,-5.74,-16.87,-12.37,Sitting
08:27.9,374,502,753,992,252,3.06,326.85,1.23,20724.23,250,284,116.85,281,13653,58216,1132,0.98,-0.26,0.11,-1.92,1.31,0.67,-15.63,-72.11,-17.14,-9.93,-5.56,-17.08,-12.42,Sitting
08:28.0,338,495,742.5,992,253,3.04,328.57,1.24,20724.23,250,284,116.85,281,13653,73336,1416,0.97,-0.25,0.11,-2.98,0.21,-2.85,-15.05,-72.54,-17.44,-10.16,-5.82,-17.35,-12.65,Sitting
08:28.2,804,500,750,992,255,3.01,332.03,1.25,20724.23,250,284,116.85,281,13653,88456,1700,0.98,-0.25,0.12,-2.27,5.18,1.21,-14.66,-72.78,-17.66,-9.76,-5.57,-17.54,-12.28,Sitting
08:28.3,885,505,757.5,992,254,3.03,330.3,1.24,20724.23,250,286,116.85,281,13653,104716,1986,0.99,-0.27,0.14,-0.61,8.76,-3.14,-15.65,-71.3,-17.66,-8.91,-5.86,-17.58,-11.4,Sitting
08:28.4,23,498,747,992,254,3.03,330.3,1.24,20724.23,250,285,116.85,281,13653,120405,2271,0.95,-0.24,0.15,-5.34,-4.53,-3.35,-14.44,-72.08,-18.27,-9.73,-6.18,-18.11,-12.22,Sitting
08:28.5,345,496,744,992,254,3.03,330.3,1.24,20724.23,250,284,116.85,281,13653,135525,2555,0.97,-0.25,0.14,-0.85,3.4,0.79,-15.14,-71.79,-18.3,-9.55,-5.98,-18.17,-12.04,Sitting
08:28.7,927,502,753,992,254,3.03,330.3,1.24,20724.27,253,285,122.97,284,15120,0,0,0.99,-0.27,0.12,-1.3,1.08,-1.32,-15.64,-71.77,-18.39,-9.67,-6.05,-18.28,-12.15,Sitting
08:28.8,451,501,751.5,992,252,3.06,326.85,1.23,20724.27,253,285,122.97,284,15120,15689,285,0.97,-0.26,0.13,-6.24,-1.76,-2.4,-15.4,-71.67,-19.11,-10.14,-6.25,-18.96,-12.6,Sitting
08:28.9,338,495,742.5,992,253,3.04,328.57,1.24,20724.27,253,283,122.97,284,15120,30242,568,0.97,-0.24,0.12,-2.34,0.99,-2.77,-14.59,-72.8,-19.33,-10.27,-6.5,-19.14,-12.77,Sitting
08:29.0,609,496,744,992,254,3.03,330.3,1.24,20724.27,253,282,122.97,284,15120,44230,850,0.96,-0.25,0.14,-1.34,-2.16,0.56,-15.24,-71.76,-19.43,-10.78,-6.34,-19.26,-13.22,Sitting
08:29.2,929,502,753,992,254,3.03,330.3,1.24,20724.27,253,285,122.97,284,15120,59919,1135,0.98,-0.26,0.11,-1.88,-0.91,-0.35,-15.32,-72.35,-19.6,-11.15,-6.28,-19.42,-13.6,Sitting
08:33.4,915,915,1372.5,915,249,3.11,321.71,1.22,0,0,280,0,0,0,25728,560,0.93,0.06,0.37,10.2,12.69,-12.02,3.12,-66.41,0.74,2.28,-2.42,0.83,-0.47,Left Fall while Sitting
08:33.5,996,955,1432.5,996,250,3.09,323.42,1.22,0,0,283,0,0,0,40281,843,0.93,0.09,0.34,4.68,2.92,-14.08,4.37,-67.56,1.38,2.39,-4.05,1.5,-0.41,Left Fall while Sitting
08:33.7,986,965,1447.5,996,251,3.08,325.13,1.23,0,0,284,0,0,0,55401,1127,0.92,0.12,0.37,7.72,6.47,-15.45,6.57,-65.36,2.39,2.93,-5.83,2.55,0.2,Left Fall while Sitting
08:33.8,994,972,1458,996,251,3.08,325.13,1.23,0,0,285,0,0,0,71090,1412,0.87,0.18,0.37,8.16,11.16,-17.23,10.36,-63.2,3.46,4.06,-7.86,3.74,1.37,Left Fall while Sitting
08:33.9,382,854,1281,996,250,3.09,323.42,1.22,0,0,287,0,0,0,87923,1699,0.87,0.21,0.37,10.11,13.82,-21.76,11.93,-62.41,4.76,5.5,-10.41,5.05,2.79,Left Fall while Sitting
08:34.0,39,718,1077,996,250,3.09,323.42,1.22,0,0,285,0,0,0,103612,1984,0.87,0.27,0.42,7.44,9.14,-22.6,14.78,-58.66,5.74,6.37,-13.08,6.1,3.77,Left Fall while Sitting
08:34.1,338,616,924,996,250,3.09,323.42,1.22,0,0,284,0,0,0,118732,2268,0.85,0.33,0.41,6.99,6.35,-21.07,18.69,-56.62,6.66,6.9,-15.55,7.14,4.36,Left Fall while Sitting
08:34.3,79,548,822,996,251,3.08,325.13,1.23,0,0,283,0,0,0,133285,2551,0.82,0.37,0.46,11.6,8.76,-24.01,21.13,-52.8,8.14,7.73,-18.38,8.66,5.31,Left Fall while Sitting
08:34.4,348,526,789,996,251,3.08,325.13,1.23,20724.23,250,283,121.59,283,14782,0,0,0.77,0.39,0.4,13.44,6.53,-21.56,23.81,-52.23,9.86,8.29,-20.94,10.42,5.87,Left Fall while Sitting
08:34.5,800,553,829.5,996,252,3.06,326.85,1.23,20724.23,250,283,121.59,283,14782,14553,283,0.75,0.46,0.4,9.18,14.41,-20.74,27.66,-49.66,11.08,9.84,-23.43,11.74,7.46,Left Fall while Sitting
08:34.6,945,589,883.5,996,250,3.09,323.42,1.22,20724.23,250,285,121.59,283,14782,30242,568,0.7,0.5,0.44,10.08,20.83,-24.15,30.39,-44.94,12.41,12.19,-26.35,13.13,9.91,Left Fall while Sitting
08:34.8,23,542,813,996,250,3.09,323.42,1.22,20724.23,250,285,121.59,283,14782,45931,853,0.53,0.54,0.37,5.21,8.32,-20.08,39.19,-37.8,13.13,12.98,-28.76,14.18,10.95,Left Fall while Sitting
08:34.9,102,508,762,996,251,3.08,325.13,1.23,20724.23,250,283,121.59,283,14782,60484,1136,0.62,0.59,0.44,4.95,7.46,-17.75,37.27,-38.21,13.82,13.67,-30.88,14.76,11.59,Left Fall while Sitting
08:35.0,839,532,798,996,252,3.06,326.85,1.23,20724.23,250,284,121.59,283,14782,75604,1420,0.61,0.61,0.43,6.78,6.08,-14.55,38.95,-37.72,14.74,14.18,-32.6,15.71,12.1,Left Fall while Sitting
08:35.1,856,553,829.5,996,251,3.08,325.13,1.23,20724.23,250,285,121.59,283,14782,91293,1705,0.57,0.64,0.42,7.78,6.6,-14.94,41.56,-35.26,15.79,14.76,-34.38,16.82,12.75,Left Fall while Sitting
08:35.3,338,519,778.5,996,249,3.11,321.71,1.22,20724.23,250,286,121.59,283,14782,107553,1991,0.55,0.67,0.4,6.47,4.18,-10.55,43.62,-33.76,16.67,15.03,-35.6,17.75,13.08,Left Fall while Sitting
08:35.4,130,496,744,996,251,3.08,325.13,1.23,20724.23,250,283,121.59,283,14782,122106,2274,0.55,0.68,0.4,5.7,7.65,-9.6,44,-33.54,17.45,15.73,-36.71,18.51,13.76,Left Fall while Sitting
08:35.5,743,509,763.5,996,251,3.08,325.13,1.23,20724.23,250,284,121.59,283,14782,137226,2558,0.51,0.7,0.41,0.11,-0.43,-6.98,46.59,-30.56,17.53,15.43,-37.47,18.7,13.59,Left Fall while Sitting
08:35.6,818,526,789,996,251,3.08,325.13,1.23,20724.24,250,286,123.89,284,15347,0,0,0.53,0.71,0.39,2.39,-1.05,-1.46,46.51,-31.51,17.9,15.05,-37.56,19.04,13.19,Left Fall while Sitting
08:35.8,237,511,766.5,996,250,3.09,323.42,1.22,20724.24,250,286,123.89,284,15347,16260,286,0.54,0.69,0.42,-2.58,-2.67,0.47,44.69,-32.34,17.65,14.47,-37.4,18.73,12.6,Left Fall while Sitting
08:35.9,14,487,730.5,996,250,3.09,323.42,1.22,20724.24,250,282,123.89,284,15347,30248,568,0.54,0.7,0.4,0.58,0.05,-3.51,45.74,-32.04,17.79,14.23,-37.74,18.91,12.37,Left Fall while Sitting
08:36.0,821,503,754.5,996,252,3.06,326.85,1.23,20724.24,250,286,123.89,284,15347,46508,854,0.53,0.71,0.41,-2.5,2.37,0.27,46.5,-31.04,17.55,14.27,-37.61,18.7,12.46,Left Fall while Sitting
08:36.1,994,524,786,996,253,3.04,328.57,1.24,20724.24,250,286,123.89,284,15347,62768,1140,0.55,0.7,0.38,1.85,-6.65,-0.03,45.79,-32.88,17.85,13.19,-37.51,18.97,11.35,Left Fall while Sitting
08:36.3,573,526,789,996,252,3.06,326.85,1.23,20724.24,250,288,123.89,284,15347,80176,1428,0.53,0.7,0.36,2.66,-5.3,-1.19,46.86,-32.57,18.25,12.28,-37.56,19.39,10.48,Left Fall while Sitting
08:36.4,338,505,757.5,996,250,3.09,323.42,1.22,20724.24,250,281,123.89,284,15347,93601,1709,0.55,0.72,0.39,5.24,-11.71,1.11,46.54,-32.28,18.98,10.56,-37.32,20.08,8.85,Left Fall while Sitting
08:36.5,656,511,766.5,996,253,3.04,328.57,1.24,20724.24,250,286,123.89,284,15347,109861,1995,0.57,0.72,0.34,8.74,-21.18,1.4,46.58,-34.26,20.14,7.67,-37.05,21.2,5.99,Left Fall while Sitting
08:36.6,992,528,792,996,253,3.04,328.57,1.24,20724.24,250,281,123.89,284,15347,123286,2276,0.58,0.71,0.25,4.95,-16.74,5.38,47.71,-36.1,20.83,5.32,-36.28,21.9,3.67,Left Fall while Sitting
08:36.8,453,526,789,996,249,3.11,321.71,1.22,20724.24,250,283,123.89,284,15347,137839,2559,0.6,0.71,0.25,-2,-3.95,3.92,47.02,-37.05,20.65,4.58,-35.69,21.7,2.92,Left Fall while Sitting
08:36.9,338,508,762,996,249,3.11,321.71,1.22,20724.24,251,280,122.76,283,15069,0,0,0.62,0.7,0.25,-1.09,-0.69,-3.07,45.98,-38.07,20.58,4.25,-35.97,21.6,2.55,Left Fall while Sitting
08:37.0,240,499,748.5,996,249,3.11,321.71,1.22,20724.24,251,279,122.76,283,15069,12305,279,0.63,0.72,0.24,-0.92,-0.78,-4.22,46.47,-38.03,20.54,3.9,-36.4,21.57,2.22,Left Fall while Sitting
08:37.1,978,514,771,996,249,3.11,321.71,1.22,20724.24,251,281,122.76,283,15069,25730,560,0.61,0.72,0.24,2.2,-2.84,-2.66,47.41,-36.9,20.87,3.3,-36.63,21.94,1.7,Left Fall while Sitting
08:37.3,888,526,789,996,249,3.11,321.71,1.22,20724.24,251,282,122.76,283,15069,39718,842,0.61,0.72,0.21,-0.26,-1.94,-2.69,47.65,-37.38,20.91,2.81,-36.87,21.98,1.2,Left Fall while Sitting
08:37.4,92,513,769.5,996,248,3.13,320,1.21,20724.24,251,281,122.76,283,15069,53143,1123,0.61,0.73,0.21,0.18,-2.34,-2.98,47.87,-37.21,21,2.27,-37.14,22.08,0.69,Left Fall while Sitting
08:37.5,50,499,748.5,996,249,3.11,321.71,1.22,20724.24,251,279,122.76,283,15069,65448,1402,0.62,0.73,0.23,0.59,-2.24,-2.55,47.26,-37.48,21.15,1.74,-37.36,22.19,0.17,Left Fall while Sitting
08:37.6,761,506,759,996,250,3.09,323.42,1.22,20724.24,251,281,122.76,283,15069,78873,1683,0.6,0.73,0.2,-1.55,-2.08,-1.24,48.68,-36.6,21.03,1.23,-37.42,22.13,-0.28,Left Fall while Sitting
08:37.8,978,520,780,996,250,3.09,323.42,1.22,20724.24,251,281,122.76,283,15069,92298,1964,0.69,0.75,0.21,-8.19,1.23,7.78,45.83,-39.76,20.06,1.14,-36.34,21.09,-0.5,Left Fall while Sitting
08:37.9,480,518,777,996,248,3.13,320,1.21,20724.24,251,282,122.76,283,15069,106286,2246,0.68,0.7,0.24,-11.78,-9.5,21.37,43.48,-40.95,18.66,-0.3,-33.57,19.65,-1.93,Left Fall while Sitting
08:38.0,338,505,757.5,996,249,3.11,321.71,1.22,20724.24,251,280,122.76,283,15069,119150,2526,0.71,0.68,0.2,-4.76,-11.64,17.02,41.92,-43.58,18.14,-2.01,-31.34,19.09,-3.67,Left Fall while Sitting
08:38.1,759,511,766.5,996,251,3.08,325.13,1.23,20724.22,249,281,115.14,280,13256,0,0,0.71,0.64,0.16,-1.95,-9.71,13.52,40.69,-45.6,17.96,-3.46,-29.57,18.87,-5.14,Left Fall while Sitting
08:38.3,991,523,784.5,996,251,3.08,325.13,1.23,20724.22,249,282,115.14,280,13256,13988,282,0.77,0.62,0.16,-7.52,-5.66,10.11,37.33,-48.97,17.09,-4.42,-28.19,17.9,-6.21,Left Fall while Sitting
08:38.4,395,520,780,996,252,3.06,326.85,1.23,20724.22,249,287,115.14,280,13256,30821,569,0.75,0.6,0.17,-4.68,-2.14,6.76,37.2,-48.86,16.57,-4.94,-27.25,17.4,-6.7,Left Fall while Sitting
08:38.5,338,508,762,996,252,3.06,326.85,1.23,20724.22,249,281,115.14,280,13256,44246,850,0.78,0.58,0.11,-11.69,0.5,17.78,35.88,-51.23,15.18,-5.13,-24.93,16.01,-6.97,Left Fall while Sitting
08:38.6,523,508,762,996,252,3.06,326.85,1.23,20724.22,249,281,115.14,280,13256,57671,1131,0.82,0.53,0.14,-25.29,-6.3,37.65,32.07,-54.51,12.09,-6.17,-20.12,12.89,-8.1,Left Fall while Sitting
08:38.8,995,519,778.5,996,252,3.06,326.85,1.23,20724.22,249,282,115.14,280,13256,71659,1413,0.85,0.47,0.22,-18.3,-12.64,47.62,27.4,-57.28,9.89,-7.98,-14.12,10.59,-9.95,Left Fall while Sitting
08:38.9,275,514,771,996,251,3.08,325.13,1.23,20724.22,249,283,115.14,280,13256,86212,1696,0.94,0.29,0.12,-9.89,-18.6,60.87,16.51,-69.78,8.71,-10.58,-6.35,9.03,-12.95,Left Fall while Sitting
08:39.0,61,504,756,996,252,3.06,326.85,1.23,20724.22,249,281,115.14,280,13256,99637,1977,0.97,0.18,0.11,-17.11,-8.1,56.56,9.89,-76.05,6.64,-11.84,0.82,6.77,-14.41,Left Fall while Sitting
08:39.1,782,510,765,996,254,3.03,330.3,1.24,20724.22,249,282,115.14,280,13256,113625,2259,0.95,0.05,0.16,-18.45,10.36,41.29,2.33,-78.66,4.41,-10.79,6.08,4.32,-13.51,Left Fall while Sitting
08:39.3,995,520,780,996,256,3,333.77,1.25,20724.22,249,284,115.14,280,13256,128745,2543,0.97,-0.03,0.17,-14.27,14.6,14.98,-2.56,-78.49,2.68,-9.21,8.06,2.47,-11.98,Left Fall while Sitting
08:39.4,454,519,778.5,996,255,3.01,332.03,1.25,20724.26,252,284,119.94,282,14385,0,0,1,-0.06,0.25,-19.22,6.13,27.6,-3.74,-74.1,0.37,-8.69,11.58,0.2,-11.31,Left Fall while Sitting
08:39.5,188,512,768,996,257,2.98,335.51,1.26,20724.26,252,282,119.94,282,14385,13988,282,0.98,-0.15,0.22,-19.69,-12.08,39.64,-9.27,-72.97,-2.02,-10.45,16.64,-2.31,-12.96,Left Fall while Sitting
08:39.6,815,518,777,996,257,2.98,335.51,1.26,20724.26,252,282,119.94,282,14385,27976,564,0.97,-0.22,0.11,-3.27,-8.27,13.68,-13.01,-74.34,-2.36,-11.74,18.45,-2.79,-14.24,Left Fall while Sitting
08:39.8,871,525,787.5,996,255,3.01,332.03,1.25,20724.26,252,283,119.94,282,14385,42529,847,0.94,-0.25,0.04,-26.55,0.1,21.66,-15.18,-73.59,-5.64,-11.98,21.27,-6.02,-14.44,Left Fall while Sitting
08:39.9,206,519,778.5,996,253,3.04,328.57,1.24,20724.26,252,283,119.94,282,14385,57082,1130,0.96,-0.32,0.03,-51.4,5.52,26.85,-19.05,-69.84,-12.05,-11.53,24.76,-12.33,-13.87,Left Fall while Sitting
08:40.0,157,512,768,996,252,3.06,326.85,1.23,20724.26,252,282,119.94,282,14385,71070,1412,1.04,-0.39,0.16,-7.84,8.88,-6.15,-21.11,-66.09,-12.96,-10.67,24.08,-13.29,-12.88,Left Fall while Sitting
08:40.1,580,513,769.5,996,255,3.01,332.03,1.25,20724.26,252,283,119.94,282,14385,85623,1695,0.92,-0.36,0.08,3.1,11.66,-25.98,-22.1,-66.4,-12.5,-9.45,20.91,-12.89,-11.73,Left Fall while Sitting
08:40.3,563,514,771,996,255,3.01,332.03,1.25,20724.26,252,285,119.94,282,14385,101312,1980,0.96,-0.33,0.15,-21.32,-7.38,3.66,-19.15,-67.9,-15.12,-10.63,21.47,-15.28,-12.92,Left Fall while Sitting
08:40.4,11,505,757.5,996,255,3.01,332.03,1.25,20724.26,252,282,119.94,282,14385,115300,2262,0.92,-0.33,0.08,10.14,2.2,2.11,-20.34,-68.07,-13.76,-10.61,21.84,-14.02,-12.91,Left Fall while Sitting
08:40.5,669,508,762,996,255,3.01,332.03,1.25,20724.26,252,283,119.94,282,14385,129853,2545,0.95,-0.33,0.13,-3.88,1.63,-5.34,-19.34,-68.17,-14.18,-10.65,21.26,-14.38,-12.95,Left Fall while Sitting
08:40.6,777,513,769.5,996,256,3,333.77,1.25,20724.29,255,284,120.4,282,14496,0,0,0.94,-0.29,0.1,0.58,0.5,1.05,-17.81,-70.1,-14.03,-10.84,21.49,-14.19,-13.21,Left Fall while Sitting
08:40.8,174,507,760.5,996,255,3.01,332.03,1.25,20724.29,255,284,120.4,282,14496,15120,284,0.96,-0.31,0.14,5.56,-3.97,1.08,-18.1,-69.18,-13.27,-11.59,21.73,-13.46,-13.89,Left Fall while Sitting
08:40.9,94,500,750,996,256,3,333.77,1.25,20724.29,255,281,120.4,282,14496,28545,565,0.96,-0.31,0.12,6.76,0.31,-4.38,-18.19,-69.37,-12.35,-11.8,21.28,-12.58,-14.1,Left Fall while Sitting
08:41.0,870,506,759,996,255,3.01,332.03,1.25,20724.29,255,284,120.4,282,14496,43665,849,0.95,-0.29,0.05,4.4,1.14,-0.66,-17.76,-70.95,-11.73,-11.91,21.29,-11.97,-14.27,Left Fall while Sitting
08:41.2,665,509,763.5,996,254,3.03,330.3,1.24,20724.29,255,285,120.4,282,14496,59354,1134,0.97,-0.31,0.12,-0.49,7.87,0.15,-18.45,-69.14,-11.72,-11.17,21.41,-11.99,-13.49,Left Fall while Sitting
08:43.7,310,310,465,310,253,3.04,328.57,1.24,0,0,290,0,0,0,37128,580,0.93,-0.2,0.16,-6.44,-11.92,5.11,-12.63,-72.83,-0.39,-1.41,0.56,-0.88,-4.27,Right Fall while Sitting
08:43.8,118,214,321,310,253,3.04,328.57,1.24,0,0,289,0,0,0,55113,869,0.94,-0.26,0.16,-4.81,-6.04,19.47,-15.67,-70.46,-0.91,-2.4,3.05,-1.5,-5.12,Right Fall while Sitting
08:43.9,338,142,213,310,253,3.04,328.57,1.24,0,0,289,0,0,0,73098,1158,0.98,-0.3,0.17,-3.37,-9.27,18.5,-17.48,-69.05,-1.26,-3.78,5.4,-1.9,-6.39,Right Fall while Sitting
08:44.0,217,161,241.5,310,254,3.03,330.3,1.24,0,0,285,0,0,0,88787,1443,0.94,-0.35,0.11,-3.56,-13.22,16.37,-20.83,-67.2,-1.62,-5.65,7.51,-2.39,-8.11,Right Fall while Sitting
08:44.2,694,267,400.5,694,255,3.01,332.03,1.25,0,0,287,0,0,0,105620,1730,0.93,-0.38,0.08,-5.38,-13.33,24.63,-22.84,-65.6,-2.22,-7.55,10.67,-3.05,-9.87,Right Fall while Sitting
08:44.3,826,360,540,826,255,3.01,332.03,1.25,0,0,287,0,0,0,122453,2017,0.92,-0.44,0.05,-4.54,-12,28.61,-26.42,-62.38,-2.71,-9.27,14.28,-3.66,-11.4,Right Fall while Sitting
08:44.4,933,442,663,933,255,3.01,332.03,1.25,0,0,289,0,0,0,140438,2306,0.88,-0.51,0.04,-0.69,-3.26,30.05,-30.55,-58.34,-2.73,-9.92,18.07,-3.84,-11.85,Right Fall while Sitting
08:44.5,462,445,667.5,933,254,3.03,330.3,1.24,0,0,288,0,0,0,157846,2594,0.85,-0.57,0.04,1.35,-1.4,24.37,-34.27,-54.66,-2.49,-10.34,21.17,-3.77,-12.11,Right Fall while Sitting
08:44.7,5,396,594,933,254,3.03,330.3,1.24,20724.28,254,287,132.16,288,17466,0,0,0.82,-0.61,0.02,1.45,-5.08,20.67,-37.09,-51.89,-2.24,-11.22,23.85,-3.64,-12.85,Right Fall while Sitting
08:44.8,324,388,582,933,255,3.01,332.03,1.25,20724.28,254,285,132.16,288,17466,15689,285,0.8,-0.64,-0.01,-6.14,-6.92,22.98,-39.32,-49.67,-2.94,-12.34,26.82,-4.4,-13.83,Right Fall while Sitting
08:44.9,985,443,664.5,985,255,3.01,332.03,1.25,20724.28,254,285,132.16,288,17466,31378,570,0.78,-0.68,0.02,4.15,-3.41,26.34,-41.77,-47.2,-2.35,-13.02,30.24,-3.92,-14.38,Right Fall while Sitting
08:45.0,667,461,691.5,985,246,3.16,316.6,1.2,20724.28,254,287,132.16,288,17466,48211,857,0.75,-0.73,0.02,2.6,0.69,16.41,-44.59,-44.38,-1.95,-13.18,32.41,-3.65,-14.43,Right Fall while Sitting
08:45.2,338,426,639,985,250,3.09,323.42,1.22,20724.28,254,284,132.16,288,17466,63331,1141,0.72,-0.74,0,1.06,-2.4,8.05,-46.11,-42.89,-1.75,-13.73,33.51,-3.52,-14.9,Right Fall while Sitting
08:45.3,345,420,630,985,252,3.06,326.85,1.23,20724.28,254,284,132.16,288,17466,78451,1425,0.71,-0.76,0,-0.51,1.39,6.47,-47.45,-41.55,-1.74,-13.81,34.42,-3.57,-14.92,Right Fall while Sitting
08:45.4,823,447,670.5,985,253,3.04,328.57,1.24,20724.28,254,285,132.16,288,17466,94140,1710,0.7,-0.77,0.02,-4.97,-0.53,3.19,-48.07,-40.91,-2.3,-14.13,34.92,-4.13,-15.2,Right Fall while Sitting
08:45.5,533,452,678,985,252,3.06,326.85,1.23,20724.28,254,288,132.16,288,17466,111548,1998,0.67,-0.77,0.01,-2.72,-2.37,4.82,-49.28,-39.71,-2.57,-14.68,35.63,-4.44,-15.68,Right Fall while Sitting
08:45.7,53,429,643.5,985,253,3.04,328.57,1.24,20724.28,254,283,132.16,288,17466,126101,2281,0.68,-0.78,0.01,-1.16,-6.86,3.98,-49.47,-39.53,-2.64,-15.79,36.23,-4.52,-16.74,Right Fall while Sitting
08:45.8,701,444,666,985,253,3.04,328.57,1.24,20724.28,254,284,132.16,288,17466,141221,2565,0.66,-0.78,-0.02,-2.98,-1.18,3.58,-50.25,-38.72,-2.95,-16.19,36.78,-4.84,-17.09,Right Fall while Sitting
08:45.9,801,463,694.5,985,254,3.03,330.3,1.24,20724.26,252,286,125.49,285,15747,0,0,0.66,-0.79,-0.01,-2.05,-1.47,6.03,-50.79,-38.21,-3.13,-16.63,37.63,-5.04,-17.49,Right Fall while Sitting
08:46.0,264,453,679.5,985,252,3.06,326.85,1.23,20724.26,252,284,125.49,285,15747,15120,284,0.67,-0.81,0.01,1.63,-1.79,2.82,-50.99,-38,-2.86,-17.1,38.08,-4.78,-17.94,Right Fall while Sitting
08:46.2,458,453,679.5,985,250,3.09,323.42,1.22,20724.26,252,281,125.49,285,15747,28545,565,0.67,-0.81,-0.04,-0.31,-0.8,-3.94,-51.15,-37.78,-2.83,-17.45,37.69,-4.76,-18.27,Right Fall while Sitting
08:46.3,877,472,708,985,252,3.06,326.85,1.23,20724.26,252,284,125.49,285,15747,43665,849,0.63,-0.79,-0.03,-5.19,-1.44,-0.02,-51.92,-37.04,-3.4,-17.88,37.79,-5.34,-18.65,Right Fall while Sitting
08:46.4,787,486,729,985,252,3.06,326.85,1.23,20724.26,252,287,125.49,285,15747,60498,1136,0.67,-0.8,-0.03,-2.84,-1.13,3.17,-50.95,-38.01,-3.69,-18.28,38.29,-5.58,-19.07,Right Fall while Sitting
08:46.5,47,467,700.5,985,252,3.06,326.85,1.23,20724.26,252,283,125.49,285,15747,75051,1419,0.65,-0.81,-0.03,-2.56,-0.5,-2.57,-51.68,-37.26,-3.94,-18.59,38.06,-5.85,-19.34,Right Fall while Sitting
08:46.7,530,470,705,985,254,3.03,330.3,1.24,20724.26,252,283,125.49,285,15747,89604,1702,0.63,-0.8,-0.04,-1.56,1.49,-1.06,-52.19,-36.72,-4.07,-18.66,38.03,-5.99,-19.38,Right Fall while Sitting
08:46.8,968,489,733.5,985,254,3.03,330.3,1.24,20724.26,252,286,125.49,285,15747,105864,1988,0.64,-0.8,-0.02,-0.94,1.58,3.02,-52.07,-36.9,-4.12,-18.71,38.51,-6.03,-19.44,Right Fall while Sitting
08:46.9,238,480,720,985,254,3.03,330.3,1.24,20724.26,252,286,125.49,285,15747,122124,2274,0.65,-0.81,-0.03,-1.82,-0.59,-0.2,-51.93,-37.03,-4.28,-19.04,38.58,-6.18,-19.76,Right Fall while Sitting
08:47.0,265,472,708,985,254,3.03,330.3,1.24,20724.26,252,284,125.49,285,15747,137244,2558,0.64,-0.81,-0.03,-1.19,1.73,-5.99,-52.23,-36.71,-4.36,-19.07,37.93,-6.27,-19.78,Right Fall while Sitting
08:47.2,874,486,729,985,255,3.01,332.03,1.25,20724.27,252,285,123.66,284,15292,0,0,0.65,-0.79,-0.03,0.16,2.08,-6.7,-51.05,-37.89,-4.27,-19.06,37.19,-6.14,-19.82,Right Fall while Sitting
08:47.3,816,497,745.5,985,254,3.03,330.3,1.24,20724.27,252,287,123.66,284,15292,16833,287,0.65,-0.79,-0.03,-1.16,1.98,-6.18,-50.8,-38.15,-4.34,-19.06,36.51,-6.2,-19.83,Right Fall while Sitting
08:47.4,43,482,723,985,253,3.04,328.57,1.24,20724.27,252,286,123.66,284,15292,33093,573,0.67,-0.78,-0.01,-1.7,3.44,-6.64,-49.83,-39.16,-4.48,-18.88,35.78,-6.3,-19.7,Right Fall while Sitting
08:47.6,249,475,712.5,985,253,3.04,328.57,1.24,20724.27,252,278,123.66,284,15292,44841,851,0.69,-0.78,-0.01,3.02,6.2,-12.97,-49.05,-39.95,-4.04,-18.36,34.25,-5.84,-19.22,Right Fall while Sitting
08:47.7,793,485,727.5,985,254,3.03,330.3,1.24,20724.27,252,282,123.66,284,15292,58829,1133,0.7,-0.76,0.05,10.76,15.36,-22.91,-47.86,-41,-2.61,-16.68,31.47,-4.42,-17.65,Right Fall while Sitting
08:47.8,530,486,729,985,251,3.08,325.13,1.23,20724.27,252,283,123.66,284,15292,73382,1416,0.74,-0.73,0.03,4.24,14.74,-27.42,-44.96,-43.98,-2.01,-15.07,28.11,-3.72,-16.23,Right Fall while Sitting
08:47.9,51,473,709.5,985,252,3.06,326.85,1.23,20724.27,252,280,123.66,284,15292,86246,1696,0.79,-0.67,0.1,0.88,12.39,-38.57,-40.73,-47.75,-1.83,-13.76,23.35,-3.38,-15.12,Right Fall while Sitting
08:48.0,652,478,717,985,253,3.04,328.57,1.24,20724.27,252,282,123.66,284,15292,100234,1978,0.84,-0.58,0.11,4.89,10.5,-43.79,-35.06,-53.28,-1.14,-12.69,17.93,-2.5,-14.31,Right Fall while Sitting
08:48.2,761,486,729,985,253,3.04,328.57,1.24,20724.27,252,283,123.66,284,15292,114787,2261,0.88,-0.51,0.14,4.78,7.2,-42.98,-30.31,-57.49,-0.47,-12.04,12.62,-1.66,-13.85,Right Fall while Sitting
08:48.3,11,473,709.5,985,252,3.06,326.85,1.23,20724.27,252,282,123.66,284,15292,128775,2543,0.92,-0.42,0.16,1,6.48,-42.56,-25.01,-62.24,-0.27,-11.47,7.35,-1.26,-13.5,Right Fall while Sitting
08:48.4,267,468,702,985,253,3.04,328.57,1.24,20724.26,252,278,118.54,282,14051,0,0,0.92,-0.35,0.2,7.04,1.44,-40.32,-20.95,-64.86,0.67,-11.54,2.45,-0.19,-13.67,Right Fall while Sitting
08:48.6,841,477,715.5,985,253,3.04,328.57,1.24,20724.26,252,280,118.54,282,14051,12864,280,0.98,-0.28,0.15,-3.51,-0.26,-53.22,-16.06,-70.65,0.31,-11.82,-4.05,-0.35,-14.17,Right Fall while Sitting
08:48.7,750,484,726,985,252,3.06,326.85,1.23,20724.26,252,280,118.54,282,14051,25728,560,1.08,-0.13,0.03,-10.76,5.44,-61.93,-7.21,-81.63,-0.98,-11.39,-11.75,-1.23,-14.2,Right Fall while Sitting
08:48.8,148,476,714,985,252,3.06,326.85,1.23,20724.26,252,280,118.54,282,14051,38592,840,1.01,0.04,0.1,-17.91,10.69,-29.34,1.44,-82.3,-3.16,-10.29,-15.35,-2.98,-13.17,Right Fall while Sitting
08:48.9,508,477,715.5,985,252,3.06,326.85,1.23,20724.26,252,280,118.54,282,14051,51456,1120,0.91,0.06,0.29,-13.53,0.92,13.72,2.86,-70.34,-4.8,-10.43,-13.52,-4.49,-12.83,Right Fall while Sitting
08:49.1,974,488,732,985,254,3.03,330.3,1.24,20724.26,252,281,118.54,282,14051,64881,1401,1,-0.06,0.25,10.74,-2.89,11.05,-3.76,-74.14,-3.39,-11.04,-12.04,-3.4,-13.56,Right Fall while Sitting
08:49.2,450,487,730.5,985,253,3.04,328.57,1.24,20724.26,252,282,118.54,282,14051,78869,1683,1,-0.1,0.2,-4.94,-12.42,6.94,-6.34,-75.85,-3.94,-12.86,-11.07,-4.04,-15.38,Right Fall while Sitting
08:49.3,226,482,723,985,256,3,333.77,1.25,20724.26,252,280,118.54,282,14051,91733,1963,0.99,-0.08,0.18,-5.01,-11.28,-3.89,-5.29,-77,-4.5,-14.53,-11.46,-4.53,-17.03,Right Fall while Sitting
08:49.4,779,488,732,985,255,3.01,332.03,1.25,20724.26,252,280,118.54,282,14051,104597,2243,0.98,-0.08,0.13,-7.43,-8.63,1.78,-5.02,-79.83,-5.36,-15.87,-11.14,-5.35,-18.43,Right Fall while Sitting
08:49.6,818,495,742.5,985,254,3.03,330.3,1.24,20724.26,252,283,118.54,282,14051,119150,2526,1,-0.09,0.12,-0.6,3.77,0.3,-5.86,-79.84,-5.37,-15.65,-11,-5.39,-18.22,Right Fall while Sitting
08:49.7,34,485,727.5,985,253,3.04,328.57,1.24,20724.27,253,281,115.14,280,13256,0,0,0.99,-0.1,0.15,-2.76,7.83,-6.78,-6.39,-78.25,-5.64,-14.92,-11.74,-5.67,-17.46,Right Fall while Sitting
08:49.8,129,478,717,985,254,3.03,330.3,1.24,20724.27,253,279,115.14,280,13256,12305,279,0.99,-0.05,0.17,-5.82,-3.57,-2.62,-3.62,-78.45,-6.31,-15.63,-11.97,-6.2,-18.14,Right Fall while Sitting
08:49.9,656,482,723,985,255,3.01,332.03,1.25,20724.27,253,281,115.14,280,13256,25730,560,0.98,-0.07,0.17,1.07,-5.92,8.17,-4.45,-77.89,-6.1,-16.62,-10.85,-6.04,-19.07,Right Fall while Sitting
08:50.1,783,487,730.5,985,254,3.03,330.3,1.24,20724.27,253,282,115.14,280,13256,39718,842,1,-0.11,0.12,3.85,-8.87,12.59,-7.07,-78.92,-5.55,-17.99,-9.17,-5.61,-20.42,Right Fall while Sitting
08:50.2,12,478,717,985,255,3.01,332.03,1.25,20724.27,253,281,115.14,280,13256,53143,1123,1,-0.15,0.08,2.5,-2.47,3.52,-9.18,-78.65,-5.16,-18.55,-8.63,-5.33,-20.95,Right Fall while Sitting
08:50.3,43,470,705,985,252,3.06,326.85,1.23,20724.27,253,259,115.14,280,13256,54688,1382,1.01,-0.12,0.07,-2.76,-1.54,0.69,-7.54,-80.28,-5.44,-18.99,-8.44,-5.52,-21.44,Right Fall while Sitting
08:52.9,997,997,1495.5,997,250,3.09,323.42,1.22,0,0,275,0,0,0,20178,550,1.03,-0.07,-0.04,-0.39,16.68,-3.75,-4.35,-84.04,0.48,2.05,-0.55,0.28,-1.4,Forward Fall while Sitting
08:53.0,973,985,1477.5,997,251,3.08,325.13,1.23,0,0,279,0,0,0,32483,829,1,-0.08,-0.01,-1.76,10.02,-3.48,-4.97,-83.97,0.33,3.03,-0.88,0.12,-0.45,Forward Fall while Sitting
08:53.1,486,818,1227,997,251,3.08,325.13,1.23,0,0,281,0,0,0,45908,1110,1.03,-0.07,0.03,-13.71,-29.07,-1.22,-4.65,-84.07,-1.29,-0.8,-0.93,-1.42,-4.13,Forward Fall while Sitting
08:53.2,338,614,921,997,251,3.08,325.13,1.23,0,0,280,0,0,0,58772,1390,1,-0.07,-0.1,-17.33,-55.61,0.75,-4.64,-81.63,-3.35,-7.88,-0.74,-3.4,-10.83,Forward Fall while Sitting
08:53.4,248,540,810,997,252,3.06,326.85,1.23,0,0,277,0,0,0,69965,1667,1.01,-0.06,-0.22,-1.86,-50.34,-4.79,-3.86,-75.89,-3.51,-14.37,-1.24,-3.53,-16.83,Forward Fall while Sitting
08:53.5,409,518,777,997,251,3.08,325.13,1.23,0,0,273,0,0,0,78958,1940,0.99,-0.08,-0.3,-10.4,-43.86,-3.45,-4.87,-71,-4.73,-20.06,-1.57,-4.74,-22.1,Forward Fall while Sitting
08:53.6,998,587,880.5,998,252,3.06,326.85,1.23,0,0,278,0,0,0,90706,2218,0.95,-0.05,-0.43,-11.05,-34.47,-0.31,-3.23,-64.12,-6.01,-24.51,-1.51,-5.9,-26.09,Forward Fall while Sitting
08:53.7,987,637,955.5,998,251,3.08,325.13,1.23,0,0,279,0,0,0,103011,2497,0.69,-0.11,-0.19,-10.24,-35.54,2.12,-9.41,-70.54,-7.21,-29.16,-1.15,-7.3,-30.82,Forward Fall while Sitting
08:53.9,438,615,922.5,998,250,3.09,323.42,1.22,20724.24,251,283,108.43,278,11755,0,0,0.84,-0.04,-0.5,-4.57,-48.5,11.94,-3.15,-57.31,-7.71,-35.47,0.44,-7.53,-36.35,Forward Fall while Sitting
08:54.0,338,553,829.5,998,222,3.61,277.15,1.09,20724.24,251,204,108.43,278,11755,4294943376,204,0.87,-0.07,-0.69,-0.56,-47.05,11.82,-4.37,-49.78,-7.71,-41.7,2.05,-7.58,-42.03,Forward Fall while Sitting
08:54.1,999,594,891,999,235,3.35,298.22,1.15,20724.24,251,279,108.43,278,11755,4294955681,483,0.78,-0.09,-0.76,-4.04,-48.61,9.4,-5.45,-43.84,-8.15,-48.08,3.33,-8.04,-47.91,Forward Fall while Sitting
08:54.2,1000,627,940.5,1000,244,3.19,313.22,1.19,20724.24,251,282,108.43,278,11755,2373,765,0.64,-0.14,-0.75,-0.6,-38.7,11.02,-8.9,-38.33,-8.16,-53.21,4.82,-8.19,-52.61,Forward Fall while Sitting
08:54.4,195,594,891,1000,245,3.18,314.91,1.2,20724.24,251,281,108.43,278,11755,15798,1046,0.67,-0.11,-0.95,-0.1,-38.52,9.44,-6.16,-33.45,-8.1,-58.32,6.11,-8.02,-57.32,Forward Fall while Sitting
08:54.5,338,552,828,1000,235,3.35,298.22,1.15,20724.24,251,217,108.43,278,11755,4294964647,1263,0.47,-0.17,-0.85,-2.32,-35.71,3.21,-10.38,-27.07,-8.32,-63.07,6.61,-8.4,-61.63,Forward Fall while Sitting
08:54.6,338,515,772.5,1000,194,4.27,234.02,0.95,20724.24,251,198,108.43,278,11755,4294938315,1461,0.5,-0.15,-0.92,2.05,-23.89,3.66,-8.88,-26.68,-7.99,-66.36,7.18,-8.02,-64.77,Forward Fall while Sitting
08:54.7,338,483,724.5,1000,180,4.68,213.52,0.88,20724.24,251,196,108.43,278,11755,4294911195,1657,0.46,-0.18,-1,3.04,-21.81,4.35,-9.85,-22.8,-7.53,-69.36,7.82,-7.63,-67.49,Forward Fall while Sitting
08:54.9,1001,513,769.5,1001,220,3.65,273.97,1.08,20724.24,251,276,108.43,278,11755,4294921835,1933,0.43,-0.18,-1.03,-5.79,-25.16,3.56,-9.83,-20.98,-8.2,-72.8,8.38,-8.26,-70.73,Forward Fall while Sitting
08:55.0,1001,540,810,1001,245,3.18,314.91,1.2,20724.24,251,280,108.43,278,11755,4294934699,2213,0.41,-0.18,-1.04,-5.87,-18.56,9.2,-9.8,-19.38,-8.87,-75.39,9.63,-8.9,-73.15,Forward Fall while Sitting
08:55.1,338,512,768,1001,211,3.85,259.85,1.03,20724.09,223,205,20724.17,241,429491104,0,0,0.35,-0.16,-1.03,-7.53,-25.39,11.63,-8.91,-16.92,-9.75,-78.85,11.2,-9.71,-76.37,Forward Fall while Sitting
08:55.3,338,486,729,1001,185,4.53,220.76,0.9,20724.09,223,180,20724.17,241,429491104,32400,180,0.28,-0.17,-1.03,2.27,-20.07,2.13,-9.87,-13.31,-9.39,-81.63,11.57,-9.41,-78.89,Forward Fall while Sitting
08:55.4,999,511,766.5,1001,207,3.94,253.68,1.01,20724.09,223,271,20724.17,241,429491104,40305,451,-0.44,-0.19,-0.42,9.94,-13.36,5.37,-18.29,44.59,-8.06,-83.58,12.35,-8.47,-78.45,Forward Fall while Sitting
08:55.5,998,533,799.5,1001,243,3.21,311.54,1.19,20724.09,223,289,20724.17,241,429491104,58290,740,0.2,-0.19,-1.08,-3.4,-7.13,1.73,-10.34,-8.84,-8.42,-84.74,12.67,-8.49,-81.7,Forward Fall while Sitting
08:55.6,998,553,829.5,1001,254,3.03,330.3,1.24,20724.09,223,284,20724.17,241,429491104,73410,1024,0.17,-0.19,-1.05,-1.48,-1.73,-0.65,-10.77,-7.22,-8.53,-85.21,12.69,-8.62,-82.09,Forward Fall while Sitting
08:55.8,997,571,856.5,1001,257,2.98,335.51,1.26,20724.09,223,284,20724.17,241,429491104,88530,1308,0.15,-0.19,-1.07,0.39,-4.41,-0.27,-10.31,-6.5,-8.41,-86.02,12.75,-8.49,-82.84,Forward Fall while Sitting
08:55.9,761,579,868.5,1001,257,2.98,335.51,1.26,20724.09,223,288,20724.17,241,429491104,105938,1596,0.16,-0.19,-1.07,-0.47,-0.28,-1.37,-10.32,-6.91,-8.4,-86.31,12.68,-8.48,-83.14,Forward Fall while Sitting
08:56.0,338,557,835.5,1001,257,2.98,335.51,1.26,20724.09,223,280,20724.17,241,429491104,118802,1876,0.17,-0.19,-1.05,-1.82,2.9,-2.17,-10.63,-7.38,-8.56,-86.2,12.5,-8.64,-83.05,Forward Fall while Sitting
08:56.1,798,566,849,1001,257,2.98,335.51,1.26,20724.09,223,281,20724.17,241,429491104,132227,2157,0.17,-0.18,-1.08,-0.6,2.54,-4.1,-9.76,-7.28,-8.57,-86.13,12.08,-8.61,-82.98,Forward Fall while Sitting
08:56.3,280,555,832.5,1001,256,3,333.77,1.25,20724.09,223,285,20724.17,241,429491104,147916,2442,0.18,-0.2,-1.1,-5.39,18.72,-3.11,-10.57,-7.35,-9.18,-84.01,11.79,-9.24,-80.94,Forward Fall while Sitting
08:56.4,338,536,804,1001,255,3.01,332.03,1.25,20724.16,242,278,126.36,272,15965,0,0,0.24,-0.17,-1.04,-8.75,36.72,-4.62,-9.74,-11.22,-10.2,-79.7,11.31,-10.18,-76.96,Forward Fall while Sitting
08:56.5,262,527,790.5,1001,255,3.01,332.03,1.25,20724.16,242,279,126.36,272,15965,12305,279,0.33,-0.16,-1.06,-5.69,52.13,-5.44,-8.88,-15.36,-10.84,-73.44,10.73,-10.76,-71.11,Forward Fall while Sitting
08:56.6,734,534,801,1001,255,3.01,332.03,1.25,20724.16,242,280,126.36,272,15965,25169,559,0.47,-0.14,-0.97,-10.66,50.85,-6.02,-8.22,-23.73,-12.11,-67.28,10.07,-11.95,-65.54,Forward Fall while Sitting
08:56.8,338,517,775.5,1001,254,3.03,330.3,1.24,20724.16,242,279,126.36,272,15965,37474,838,0.55,-0.15,-0.95,-9.85,52.8,-8.72,-8.38,-28.27,-13.29,-60.83,9.07,-13.09,-59.53,Forward Fall while Sitting
08:56.9,582,519,778.5,1001,255,3.01,332.03,1.25,20724.16,242,277,126.36,272,15965,48667,1115,0.62,-0.09,-0.88,-10.98,48.06,-8.74,-5.34,-33.13,-14.6,-55.03,8.07,-14.23,-54.15,Forward Fall while Sitting
08:57.0,993,533,799.5,1001,255,3.01,332.03,1.25,20724.16,242,278,126.36,272,15965,60415,1393,0.67,-0.08,-0.81,-4.05,53.08,-4.57,-5.16,-38.02,-15.04,-48.59,7.59,-14.65,-48.17,Forward Fall while Sitting
08:57.2,32,519,778.5,1001,253,3.04,328.57,1.24,20724.16,242,279,126.36,272,15965,72720,1672,0.73,-0.05,-0.68,-4.1,55.04,0.92,-3.64,-45.11,-15.49,-41.91,7.8,-15.01,-42.04,Forward Fall while Sitting
08:57.3,168,509,763.5,1001,254,3.03,330.3,1.24,20724.16,242,274,126.36,272,15965,82260,1946,0.88,-0.09,-0.64,-2.18,46.13,-1.82,-5.19,-52.11,-15.69,-36.35,7.67,-15.27,-36.98,Forward Fall while Sitting
08:57.4,978,521,781.5,1001,254,3.03,330.3,1.24,20724.16,242,276,126.36,272,15965,92900,2222,0.9,-0.07,-0.56,-2.6,48.8,-5.47,-4.25,-56.26,-15.95,-30.45,7.08,-15.48,-31.48,Forward Fall while Sitting
08:57.5,321,516,774,1001,253,3.04,328.57,1.24,20724.16,242,280,126.36,272,15965,105764,2502,0.94,-0.07,-0.44,-1.38,59.34,-2.16,-4.19,-63.07,-16.05,-23.17,6.91,-15.58,-24.76,Forward Fall while Sitting
08:57.7,338,503,754.5,1001,254,3.03,330.3,1.24,20724.28,254,275,107.63,277,11584,0,0,0.95,-0.08,-0.31,4.82,39.67,2.19,-4.91,-69.82,-15.39,-18.5,7.28,-14.97,-20.55,Forward Fall while Sitting
08:57.8,184,495,742.5,1001,254,3.03,330.3,1.24,20724.28,254,276,107.63,277,11584,10640,276,1.1,-0.09,-0.39,2.32,41.47,4.73,-4.82,-68.58,-15.02,-13.52,7.97,-14.61,-15.73,Forward Fall while Sitting
08:57.9,994,507,760.5,1001,255,3.01,332.03,1.25,20724.28,254,278,107.63,277,11584,22388,554,1.02,-0.08,-0.13,5.44,56.06,5.31,-5.3,-79.9,-14.27,-6.71,8.74,-13.91,-9.64,Forward Fall while Sitting
08:58.0,400,505,757.5,1001,254,3.03,330.3,1.24,20724.28,254,280,107.63,277,11584,35252,834,1.02,-0.11,-0.01,1.97,48.45,7.08,-6.62,-82.36,-13.95,-0.91,9.73,-13.66,-4.16,Forward Fall while Sitting
08:58.2,338,493,739.5,1001,255,3.01,332.03,1.25,20724.28,254,275,107.63,277,11584,45341,1109,1.03,-0.17,0.13,4.44,3.92,29.42,-9.77,-76.73,-13.33,-0.67,13.5,-13.18,-3.71,Forward Fall while Sitting
08:58.3,739,498,747,1001,257,2.98,335.51,1.26,20724.28,254,275,107.63,277,11584,55430,1384,1.03,-0.21,0.03,13.16,12.07,-1.79,-12.33,-76.53,-11.6,0.6,13.38,-11.63,-2.48,Forward Fall while Sitting
08:58.4,994,509,763.5,1001,260,2.93,340.76,1.27,20724.28,254,286,107.63,277,11584,71690,1670,0.96,-0.2,0.1,20.15,41.21,-4.53,-12.06,-75.47,-8.99,5.54,12.91,-9.11,2.3,Forward Fall while Sitting
08:58.5,550,510,765,1001,261,2.92,342.52,1.28,20724.28,254,288,107.63,277,11584,89098,1958,0.93,-0.16,0.18,14.08,43.73,-7.27,-10.41,-73.83,-7.16,10.76,12.1,-7.29,7.38,Forward Fall while Sitting
08:58.7,338,499,748.5,1001,260,2.93,340.76,1.27,20724.28,254,283,107.63,277,11584,103651,2241,0.96,-0.16,0.29,-9.71,6.44,-6.29,-9.8,-69.48,-8.3,11.31,11.41,-8.36,8.08,Forward Fall while Sitting
08:58.8,674,503,754.5,1001,260,2.93,340.76,1.27,20724.28,254,281,107.63,277,11584,117076,2522,1,-0.13,0.29,-9.44,-5.81,-3.76,-7.48,-70.63,-9.42,10.33,11.03,-9.34,7.09,Forward Fall while Sitting
08:58.9,678,507,760.5,1001,258,2.97,337.25,1.26,26.93,257,282,114.48,280,13105,0,0,0.91,-0.13,0.27,-10.52,-4.58,-5.37,-8.33,-70.19,-10.64,9.52,10.47,-10.55,6.33,Forward Fall while Sitting
08:59.0,235,501,751.5,1001,257,2.98,335.51,1.26,26.93,257,284,114.48,280,13105,15120,284,0.97,-0.15,0.21,-13.21,-14.3,20.14,-9.31,-73.36,-12.23,7.48,13.09,-12.11,4.25,Forward Fall while Sitting
08:59.2,8,491,736.5,1001,256,3,333.77,1.25,26.93,257,281,114.48,280,13105,28545,565,1.02,-0.23,0.18,-5.75,-15.79,9.98,-12.89,-72.51,-12.87,5.28,14.42,-12.87,2.17,Forward Fall while Sitting
08:59.3,541,492,738,1001,256,3,333.77,1.25,26.93,257,281,114.48,280,13105,41970,846,1,-0.24,0.19,1.18,-3.87,-1.95,-13.92,-71.28,-12.65,4.54,14.28,-12.7,1.51,Forward Fall while Sitting
08:59.4,924,501,751.5,1001,256,3,333.77,1.25,26.93,257,282,114.48,280,13105,55958,1128,0.97,-0.2,0.16,2.06,-10.81,-5.98,-11.9,-73.81,-12.32,2.94,13.63,-12.31,-0.13,Forward Fall while Sitting
08:59.5,544,501,751.5,1001,255,3.01,332.03,1.25,26.93,257,283,114.48,280,13105,70511,1411,0.94,-0.19,0.1,0.21,-9.67,5.56,-12.24,-75.35,-12.23,1.47,14.43,-12.23,-1.6,Forward Fall while Sitting
08:59.7,338,492,738,1001,255,3.01,332.03,1.25,26.93,257,281,114.48,280,13105,83936,1692,0.99,-0.2,0.12,3.08,1.82,1.36,-12.12,-74.92,-11.77,1.45,14.7,-11.79,-1.61,Forward Fall while Sitting
