Datetime, ECGRaw , AvgECG , ampECG , MAX , GSRRaw , Resistance , GSR(kohm) , SCL , GSRRMS , GSRMAV , EMGRaw , EMGRMS , EMGMAV , EMGVAR , EMGSSI , IEMG , AccX , AccY, AccZ , GyroX , GyroY , GyroZ , Aroll , Apitch , Groll , Gpitch, Gyaw , Combroll , Combpitch,Features
08:49.0,582,582,873,582,269,2.8,356.76,1.31,0,0,178,0,0,0,62309,353,1.01,0.03,0.11,-0.5,-0.65,-1.09,1.37,-82.05,-0.09,-0.7,0.11,-0.03,-3.95,Standing
08:49.1,875,728,1092,875,280,2.65,376.85,1.37,0,0,181,0,0,0,95070,534,0.99,0.03,0.1,-1.34,0.72,-0.36,1.03,-82.37,-0.19,-0.85,0.17,-0.14,-4.11,Standing
08:49.2,762,739,1108.5,875,269,2.8,356.76,1.31,0,0,180,0,0,0,127470,714,1,0.04,0.09,-1.25,1.84,-2.06,1.45,-82.62,-0.27,-0.87,0.01,-0.2,-4.14,Standing
08:49.4,521,685,1027.5,875,259,2.95,339.01,1.27,0,0,178,0,0,0,159154,892,1,0.04,0.11,-2.08,1.13,-1.53,1.88,-81.87,-0.46,-0.98,-0.08,-0.36,-4.21,Standing
08:49.5,566,661,991.5,875,253,3.04,328.57,1.24,0,0,168,0,0,0,187378,1060,1,0.03,0.11,-2.33,-1.61,0.01,1.39,-81.87,-0.67,-1.42,0.02,-0.59,-4.64,Standing
08:49.6,589,649,973.5,875,254,3.03,330.3,1.24,0,0,179,0,0,0,219419,1239,1,0.04,0.09,-2.4,1.09,-1.25,1.44,-82.66,-0.9,-1.53,-0.04,-0.8,-4.78,Standing
08:49.7,546,634,951,875,257,2.98,335.51,1.26,0,0,181,0,0,0,252180,1420,1,0.03,0.11,-1.22,0.76,-1.27,0.95,-81.94,-0.98,-1.68,-0.1,-0.9,-4.9,Standing
08:49.8,445,610,915,875,261,2.92,342.52,1.28,0,0,183,0,0,0,220133,1603,1.01,0.04,0.1,-3.4,-0.85,-0.34,1.47,-82.39,-1.33,-2.04,-0.04,-1.22,-5.25,Standing
08:50.0,384,585,877.5,875,265,2.86,349.6,1.3,57.25,262,186,137.55,178,18918,0,0,1.01,0.03,0.11,-3.08,2.79,-3.36,1.28,-81.72,-1.64,-1.94,-0.36,-1.52,-5.13,Standing
08:50.1,449,571,856.5,875,264,2.88,347.83,1.29,57.25,262,186,137.55,178,18918,4294936356,186,0.99,0.04,0.1,-2.76,-1.94,-1.31,1.94,-82.28,-1.91,-2.43,-0.42,-1.76,-5.62,Standing
08:50.2,552,570,855,875,254,3.03,330.3,1.24,57.25,262,164,137.55,178,18918,4294963252,350,1,0.04,0.1,-1.58,-0.04,-0.1,1.44,-82.52,-2.04,-2.69,-0.34,-1.9,-5.88,Standing
08:50.3,534,567,850.5,875,256,3,333.77,1.25,57.25,262,183,137.55,178,18918,4294931205,533,1,0.03,0.09,-1.93,0.69,-1.96,1.17,-83.03,-2.21,-2.85,-0.49,-2.08,-6.06,Standing
08:50.5,426,556,834,875,265,2.86,349.6,1.3,57.25,262,189,137.55,178,18918,4294901390,722,1,0.04,0.08,-1.7,0.69,-0.41,1.86,-83.15,-2.35,-3.01,-0.44,-2.19,-6.22,Standing
08:50.6,497,552,828,875,267,2.83,353.17,1.3,57.25,262,188,137.55,178,18918,4294871198,910,1.01,0.03,0.1,-2.53,0.92,-1.68,1.39,-82.43,-2.6,-3.15,-0.55,-2.44,-6.32,Standing
08:50.7,579,553,829.5,875,257,2.98,335.51,1.26,57.25,262,167,137.55,178,18918,4294899087,1077,1,0.04,0.1,-0.82,1.86,-0.16,1.54,-82.48,-2.63,-3.17,-0.47,-2.47,-6.34,Standing
08:50.8,586,555,832.5,875,258,2.97,337.25,1.26,57.25,262,185,137.55,178,18918,4294867776,1262,1,0.03,0.11,-1.82,0.66,-1.56,1.25,-82.15,-2.79,-3.33,-0.57,-2.63,-6.49,Standing
08:51.0,456,549,823.5,875,267,2.83,353.17,1.3,57.25,262,190,137.55,178,18918,4294838340,1452,1,0.04,0.11,-1.44,0.91,1.15,1.48,-81.96,-2.9,-3.47,-0.32,-2.72,-6.61,Standing
08:51.1,495,546,819,875,269,2.8,356.76,1.31,57.25,262,189,137.55,178,18918,4294808525,1641,1.02,0.02,0.1,-2.34,0.08,-1.59,0.51,-82.59,-3.12,-3.71,-0.42,-2.98,-6.86,Standing
08:51.2,546,546,819,875,258,2.97,337.25,1.26,53.59,261,169,20723.99,181,429483712,0,0,1,0.03,0.08,-3.45,1.66,-1.38,1.1,-83.36,-3.48,-3.75,-0.5,-3.3,-6.93,Standing
08:51.3,556,547,820.5,875,258,2.97,337.25,1.26,53.59,261,185,20723.99,181,429483712,4294935985,185,1.01,0.02,0.1,-3.01,1.73,-1.85,0.63,-82.54,-3.79,-3.78,-0.63,-3.61,-6.93,Standing
08:51.5,375,539,808.5,875,269,2.8,356.76,1.31,53.59,261,189,20723.99,181,429483712,4294906170,374,0.99,0.04,0.09,-2.32,0.31,-1.73,1.44,-82.92,-4.01,-4,-0.75,-3.79,-7.15,Standing
08:51.6,467,535,802.5,875,267,2.83,353.17,1.3,53.59,261,188,20723.99,181,429483712,4294875978,562,1,0.04,0.1,-1.94,0.15,0.05,1.56,-82.11,-4.19,-4.23,-0.64,-3.96,-7.35,Standing
08:51.7,568,537,805.5,875,256,3,333.77,1.25,53.59,261,173,20723.99,181,429483712,4294905907,735,1,0.02,0.11,-2.36,-0.18,-0.34,0.77,-81.76,-4.41,-4.5,-0.59,-4.2,-7.59,Standing
08:51.8,509,536,804,875,264,2.88,347.83,1.29,53.59,261,187,20723.99,181,429483712,4294875340,922,1,0.03,0.09,-1.63,0.6,-0.45,0.97,-83.04,-4.55,-4.68,-0.54,-4.33,-7.81,Standing
08:52.0,333,527,790.5,875,270,2.79,358.57,1.32,53.59,261,190,20723.99,181,429483712,4294845904,1112,1.02,0.03,0.09,-1.5,0.18,-1.41,1.09,-82.98,-4.66,-4.91,-0.62,-4.43,-8.03,Standing
08:52.1,507,527,790.5,875,257,2.98,335.51,1.26,53.59,261,168,20723.99,181,429483712,4294874128,1280,1.01,0.03,0.09,-2.56,1,-0.31,1.07,-82.82,-4.92,-5.04,-0.56,-4.68,-8.15,Standing
08:52.2,531,527,790.5,875,260,2.93,340.76,1.27,53.59,261,188,20723.99,181,429483712,4294843936,1468,1,0.03,0.09,-1.12,1.31,-1.98,1.2,-82.74,-4.99,-5.12,-0.71,-4.74,-8.23,Standing
08:52.4,509,526,789,875,270,2.79,358.57,1.32,53.59,261,192,20723.99,181,429483712,4294815264,1660,1,0.02,0.09,-1.1,-0.11,-1.01,0.74,-82.85,-5.06,-5.39,-0.74,-4.82,-8.49,Standing
08:52.5,431,523,784.5,875,260,2.93,340.76,1.27,60.93,263,188,20723.86,184,429478496,0,0,1.01,0.03,0.09,-0.57,2.21,-1.81,1.36,-83.18,-5.06,-5.36,-0.87,-4.8,-8.48,Standing
08:52.6,554,524,786,875,255,3.01,332.03,1.25,60.93,263,175,20723.86,184,429478496,30625,175,1.01,0.05,0.11,2.32,4.79,-1.2,2.04,-81.7,-4.7,-5.01,-0.92,-4.43,-8.08,Standing
08:52.7,502,523,784.5,875,263,2.89,346.05,1.29,60.93,263,188,20723.86,184,429478496,433,363,1.05,0.01,0.15,-6.36,4.64,1.45,-0.22,-80.35,-5.42,-4.68,-0.64,-5.21,-7.71,Standing
08:52.8,483,522,783,875,270,2.79,358.57,1.32,60.93,263,192,20723.86,184,429478496,4294939057,555,1.03,0.02,0.15,-12.31,-1.46,-7.28,0.54,-79.81,-6.9,-5.12,-1.45,-6.61,-8.11,Standing
08:53.0,440,519,778.5,875,260,2.93,340.76,1.27,60.93,263,188,20723.86,184,429478496,4294908865,743,1,-0.03,0.18,-9.76,16.75,4.82,-2.28,-78.32,-8.06,-3.26,-0.75,-7.83,-6.26,Standing
08:53.1,555,520,780,875,258,2.97,337.25,1.26,60.93,263,188,20723.86,184,429478496,4294878673,931,1.07,0,0.14,-8.47,-3.08,3.42,-0.72,-80.9,-9.06,-3.9,-0.22,-8.73,-6.98,Standing
08:53.2,521,520,780,875,270,2.79,358.57,1.32,60.93,263,195,20723.86,184,429478496,4294851162,1126,1.07,0,0.1,-2.98,-7.19,-7.92,-0.8,-82.92,-9.37,-5.07,-1.12,-9.02,-8.18,Standing
08:53.4,580,522,783,875,263,2.89,346.05,1.29,60.93,263,190,20723.86,184,429478496,4294821726,1316,0.96,0.03,0.08,4.82,5.82,-15.02,1.26,-83.28,-8.68,-4.58,-2.93,-8.28,-7.73,Standing
08:53.5,464,520,780,875,257,2.98,335.51,1.26,60.93,263,185,20723.86,184,429478496,4294790415,1501,0.91,0.08,0.08,-9,-3.6,-2.46,4.54,-81.27,-9.75,-5.29,-3.14,-9.17,-8.33,Standing
08:53.6,437,518,777,875,268,2.82,354.97,1.31,60.93,263,192,20723.86,184,429478496,4294761743,1693,0.95,0.1,0.13,1.63,-25.5,5.74,5.64,-78.24,-9.47,-8.73,-2.32,-8.87,-11.51,Standing
08:53.7,512,518,777,875,266,2.85,351.39,1.3,60.49,263,189,20723.74,188,429473184,0,0,1.03,0.13,0.07,19.34,20,2.6,6.67,-80.23,-6.98,-6.48,-1.9,-6.44,-9.43,Standing
08:53.9,339,514,771,875,255,3.01,332.03,1.25,60.49,263,157,20723.74,188,429473184,24649,157,0.98,0.08,0.08,2.57,-10.43,3.17,4.31,-81.63,-6.59,-8.03,-1.4,-6.16,-10.97,Standing
08:54.0,249,507,760.5,875,257,2.98,335.51,1.26,60.49,263,179,20723.74,188,429473184,56690,336,1,0.1,-0.02,-6.17,-17.78,10.36,4.91,-82.86,-7.29,-10.5,-0.01,-6.8,-13.4,Standing
08:54.1,331,503,754.5,875,267,2.83,353.17,1.3,60.49,263,184,20723.74,188,429473184,25010,520,0.86,-0.01,0.18,-12.4,-31.3,19.34,-1.39,-76.61,-8.78,-14.7,2.53,-8.49,-17.18,Standing
08:54.2,554,504,756,875,261,2.92,342.52,1.28,60.49,263,186,20723.74,188,429473184,4294961366,706,0.97,-0.04,0.01,-15.73,-8.21,8.68,-2.91,-85.99,-10.71,-15.99,3.73,-10.4,-18.79,Standing
08:54.4,372,501,751.5,875,254,3.03,330.3,1.24,60.49,263,193,20723.74,188,429473184,4294933079,899,0.97,-0.1,-0.06,-15.86,17.79,4.14,-6.46,-81.59,-12.65,-13.99,4.35,-12.41,-16.69,Standing
08:54.5,208,495,742.5,875,265,2.86,349.6,1.3,60.49,263,197,20723.74,188,429473184,4294906352,1096,1,-0.11,-0.05,-28.4,-13.1,17.7,-6.59,-81.76,-16.22,-15.92,6.72,-15.83,-18.56,Standing
08:54.6,261,489,733.5,875,251,3.08,325.13,1.23,60.49,263,198,20723.74,188,429473184,4294880020,1294,1.07,-0.12,-0.05,-22.05,19.08,-4.15,-6.88,-81.57,-18.95,-13.75,6.29,-18.47,-16.46,Standing
08:54.7,320,486,729,875,251,3.08,325.13,1.23,60.49,263,230,20723.74,188,429473184,4294867384,1524,0.99,-0.08,-0.03,-36.71,7.82,-0.76,-5.27,-83.5,-23.58,-13.01,6.3,-22.84,-15.83,Standing
08:54.9,442,485,727.5,875,260,2.93,340.76,1.27,60.49,263,207,20723.74,188,429473184,4294844697,1731,1.04,-0.09,-0.03,-27.02,-5.92,-6.49,-5.55,-83.12,-26.94,-14.01,5.57,-26.08,-16.78,Standing
08:55.0,454,484,726,875,245,3.18,314.91,1.2,18.68,256,197,20723.94,192,429481792,0,0,0.98,-0.09,-0.02,-19.65,2.95,-8.69,-6.02,-82.9,-29.34,-13.89,4.58,-28.41,-16.65,Standing
08:55.1,415,483,724.5,875,251,3.08,325.13,1.23,18.68,256,198,20723.94,192,429481792,4294940964,198,1.03,-0.12,-0.02,-14.21,4.66,-0.37,-7.35,-81.58,-31.07,-13.55,4.63,-30.12,-16.28,Standing
08:55.3,457,482,723,875,258,2.97,337.25,1.26,18.68,256,201,20723.94,192,429481792,4294915829,399,1,-0.12,0.04,-4.11,1.18,3.57,-7.53,-81.17,-31.52,-13.66,5.19,-30.56,-16.36,Standing
08:55.4,482,482,723,875,244,3.19,313.22,1.19,18.68,256,198,20723.94,192,429481792,4294889497,597,0.98,-0.11,-0.01,0.5,0.25,-7.89,-6.81,-82.13,-31.39,-13.88,4.29,-30.41,-16.61,Standing
08:55.5,446,482,723,875,249,3.11,321.71,1.22,18.68,256,204,20723.94,192,429481792,4294865577,801,1,-0.08,0.02,-7.65,3.11,-6.4,-5.35,-83.55,-32.29,-13.74,3.57,-31.21,-16.53,Standing
08:55.6,675,485,727.5,875,258,2.97,337.25,1.26,18.68,256,257,20723.94,192,429481792,4294866090,1058,1.02,-0.08,-0.01,-4.02,2.03,4.54,-5.21,-83.77,-32.73,-13.73,4.25,-31.63,-16.54,Standing
08:55.8,956,494,741,956,245,3.18,314.91,1.2,18.68,256,203,20723.94,192,429481792,4294841763,1261,1.01,-0.08,-0.03,2.86,9.18,-2.42,-5.16,-83.52,-32.3,-12.82,4.04,-31.21,-15.65,Standing
08:55.9,772,499,748.5,956,252,3.06,326.85,1.23,18.68,256,206,20723.94,192,429481792,4294818663,1467,0.99,-0.1,0.01,-1.82,5,0.88,-6.51,-82.45,-32.46,-12.44,4.25,-31.42,-15.24,Standing
08:56.0,716,503,754.5,956,259,2.95,339.01,1.27,18.68,256,261,20723.94,192,429481792,4294821248,1728,1.03,-0.07,0.02,6.44,17.21,-2.24,-4.66,-84.19,-31.57,-10.52,4.07,-30.5,-13.47,Standing
08:56.1,679,506,759,956,245,3.18,314.91,1.2,18.68,256,204,20723.94,192,429481792,4294797328,1932,1.01,-0.08,0.03,-16,-16.47,-2.84,-4.85,-83.9,-33.53,-12.87,3.81,-32.39,-15.71,Standing
08:56.3,608,507,760.5,956,256,3,333.77,1.25,20724.25,251,257,20723.9,218,429479776,0,0,1.03,-0.06,0.03,-1.01,-5.36,-1.37,-3.96,-84.54,-33.59,-13.8,3.74,-32.4,-16.63,Standing
08:56.4,845,513,769.5,956,259,2.95,339.01,1.27,20724.25,251,262,20723.9,218,429479776,3108,262,0.99,-0.08,0.02,-1.57,12.41,-0.78,-4.98,-83.83,-33.72,-12.48,3.74,-32.57,-15.33,Standing
08:56.5,545,513,769.5,956,246,3.16,316.6,1.2,20724.25,251,206,20723.9,218,429479776,4294947304,468,1.02,-0.09,0.04,-4.44,-2.51,1.28,-5.51,-82.99,-34.22,-13.05,4.01,-33.07,-15.85,Standing
08:56.6,497,513,769.5,956,255,3.01,332.03,1.25,20724.25,251,253,20723.9,218,429479776,4294945777,721,1.02,-0.09,0.05,2.77,-0.77,0.24,-5.81,-82.53,-33.79,-13.4,4.14,-32.67,-16.17,Standing
08:56.8,550,514,771,956,258,2.97,337.25,1.26,20724.25,251,263,20723.9,218,429479776,4294949410,984,1.02,-0.08,0.03,-1.1,-0.79,-0.47,-5.09,-83.5,-33.86,-13.76,4.18,-32.71,-16.55,Standing
08:56.9,493,513,769.5,956,246,3.16,316.6,1.2,20724.25,251,208,20723.9,218,429479776,4294927138,1192,0.99,-0.08,0,-0.8,0.85,-0.63,-5.36,-83.63,-33.89,-13.91,4.2,-32.75,-16.7,Standing
08:57.0,438,512,768,956,259,2.95,339.01,1.27,20724.25,251,264,20723.9,218,429479776,4294931298,1456,1.01,-0.09,0.02,-1.84,1.73,0.3,-5.81,-83.09,-34.05,-13.94,4.33,-32.92,-16.71,Standing
08:57.2,523,512,768,956,253,3.04,328.57,1.24,20724.25,251,210,20723.9,218,429479776,4294909862,1666,1.01,-0.09,0.03,-1.84,0.31,0.62,-5.72,-83.02,-34.22,-14.16,4.51,-33.08,-16.91,Standing
08:57.3,532,513,769.5,956,249,3.11,321.71,1.22,20724.25,251,209,20723.9,218,429479776,4294888007,1875,1.02,-0.09,0.03,-2.11,-0.79,1.01,-5.87,-82.81,-34.41,-14.51,4.74,-33.27,-17.24,Standing
08:57.4,434,512,768,956,261,2.92,342.52,1.28,20724.25,251,264,20723.9,218,429479776,4294892167,2139,1,-0.1,0.02,-1.05,3.35,0.21,-6.18,-82.71,-34.48,-14.34,4.87,-33.35,-17.07,Standing
08:57.5,511,512,768,956,248,3.13,320,1.21,20724.27,253,209,20724.07,234,429487040,0,0,1.03,-0.1,0.03,-2.96,1.55,0.19,-6.18,-82.59,-34.78,-14.39,4.99,-33.63,-17.12,Standing
08:57.7,566,512,768,956,248,3.13,320,1.21,20724.27,253,210,20724.07,234,429487040,4294945860,210,1.01,-0.11,0.03,-3.66,1.95,-0.46,-6.74,-82.08,-35.17,-14.4,5.04,-34.03,-17.11,Standing
08:57.8,461,512,768,956,261,2.92,342.52,1.28,20724.27,253,265,20724.07,234,429487040,4294950549,475,1.01,-0.12,0.05,-2.64,1.55,-3.42,-7.1,-81.28,-35.44,-14.46,4.7,-34.3,-17.13,Standing
08:57.9,540,512,768,956,249,3.11,321.71,1.22,20724.27,253,212,20724.07,234,429487040,4294929957,687,1,-0.1,0.05,-0.49,1.6,0.51,-6.24,-82.07,-35.43,-14.51,4.87,-34.26,-17.21,Standing
08:58.0,523,512,768,956,252,3.06,326.85,1.23,20724.27,253,217,20724.07,234,429487040,4294911510,904,1.01,-0.11,0.03,-0.11,0.22,2.1,-7.08,-81.69,-35.37,-14.74,5.24,-34.24,-17.41,Standing
08:58.2,535,512,768,956,262,2.9,344.28,1.28,20724.27,253,266,20724.07,234,429487040,4294916730,1170,1,-0.11,0.03,-2.89,1.26,0.57,-6.95,-81.8,-35.66,-14.83,5.41,-34.51,-17.51,Standing
08:58.3,538,513,769.5,956,247,3.14,318.3,1.21,20724.27,253,213,20724.07,234,429487040,4294896563,1383,1.01,-0.12,0.04,-2.49,2.76,0.8,-7.11,-81.59,-35.91,-14.73,5.61,-34.76,-17.41,Standing
08:58.4,460,512,768,956,256,3,333.77,1.25,20724.27,253,259,20724.07,234,429487040,4294898108,1642,1.02,-0.12,0.05,-2.32,2.02,-0.11,-7.12,-81.34,-36.13,-14.73,5.7,-34.97,-17.39,Standing
08:58.6,491,512,768,956,259,2.95,339.01,1.27,20724.27,253,242,20724.07,234,429487040,4294891136,1884,0.99,-0.12,0.03,-2.31,-0.63,-2.53,-7.61,-81.21,-36.36,-15.07,5.47,-35.21,-17.71,Standing
08:58.7,575,513,769.5,956,248,3.13,320,1.21,20724.27,253,216,20724.07,234,429487040,4294872256,2100,1.02,-0.1,0.04,-2.19,3.27,-0.56,-6.45,-82.16,-36.56,-14.9,5.5,-35.36,-17.59,Standing
08:58.8,415,511,766.5,956,261,2.92,342.52,1.28,20724.28,254,265,20724.08,236,429487680,0,0,1.02,-0.13,0.05,4.94,10.65,0.73,-7.68,-80.73,-35.87,-13.81,5.7,-34.74,-16.49,Standing
08:58.9,464,511,766.5,956,259,2.95,339.01,1.27,20724.28,254,245,20724.08,236,429487680,4294961785,245,0.99,-0.13,0.08,-4.44,-2.39,-5.28,-7.86,-79.65,-36.37,-14.37,5.13,-35.22,-16.98,Standing
08:59.1,536,511,766.5,956,249,3.11,321.71,1.22,20724.28,254,217,20724.08,236,429487680,4294943338,462,1,-0.1,0.06,-2.92,0.18,0.08,-6.49,-81.58,-36.66,-14.6,5.24,-35.46,-17.28,Standing
08:59.2,480,511,766.5,956,261,2.92,342.52,1.28,20724.28,254,269,20724.08,236,429487680,4294950163,731,0.99,-0.13,0.07,-2.5,-3.18,0.36,-8.23,-79.71,-36.91,-15.27,5.38,-35.77,-17.85,Standing
08:59.3,544,511,766.5,956,254,3.03,330.3,1.24,20724.28,254,218,20724.08,236,429487680,4294932151,949,1.02,-0.12,0.06,-0.41,2.88,1.09,-7.42,-80.72,-36.89,-15.16,5.62,-35.72,-17.78,Standing
08:59.4,507,511,766.5,956,251,3.08,325.13,1.23,20724.28,254,217,20724.08,236,429487680,4294913704,1166,1.03,-0.13,0.07,-1.92,-0.39,-2.05,-7.57,-80.4,-37.07,-15.46,5.46,-35.89,-18.06,Standing
08:59.6,512,511,766.5,956,265,2.86,349.6,1.3,20724.28,254,265,20724.08,236,429487680,4294918393,1431,1.01,-0.13,0.07,-1.73,0.05,-4.42,-7.93,-80.05,-37.22,-15.71,5,-36.04,-18.28,Standing
08:59.7,640,512,768,956,252,3.06,326.85,1.23,20724.28,254,220,20724.08,236,429487680,4294901257,1651,1,-0.11,0.06,-0.34,0.98,-1.32,-6.92,-81.27,-37.19,-15.84,4.93,-35.98,-18.46,Standing
08:59.8,662,514,771,956,258,2.97,337.25,1.26,20724.28,254,247,20724.08,236,429487680,4294896730,1898,1,-0.11,0.05,-1.27,-1.02,0.71,-6.95,-81.5,-37.28,-16.22,5.12,-36.07,-18.83,Standing
09:00.0,509,514,771,956,264,2.88,347.83,1.29,20724.28,254,263,20724.08,236,429487680,4294900363,2161,1.02,-0.13,0.03,-4.47,-1.69,-0.06,-7.64,-81.1,-37.78,-16.7,5.21,-36.57,-19.27,Standing
09:00.1,565,515,772.5,956,251,3.08,325.13,1.23,15.33,256,222,20724.1,238,429488416,0,0,1.01,-0.12,0.05,-1.7,4.57,-3.05,-7.49,-81.01,-37.92,-16.37,4.93,-36.71,-18.96,Standing
09:00.2,510,515,772.5,956,258,2.97,337.25,1.26,15.33,256,250,20724.1,238,429488416,4294964260,250,1.01,-0.11,0.05,-1.4,1.23,-1.66,-6.96,-81.35,-38.03,-16.47,4.82,-36.79,-19.07,Standing
09:00.3,599,516,774,956,265,2.86,349.6,1.3,15.33,256,263,20724.1,238,429488416,597,513,1.01,-0.11,0.05,-1.04,0.66,-1.19,-6.99,-81.43,-38.09,-16.64,4.77,-36.85,-19.23,Standing
09:00.5,511,515,772.5,956,252,3.06,326.85,1.23,15.33,256,229,20724.1,238,429488416,4294954798,742,1.02,-0.11,0.04,-1.35,0.47,-0.47,-6.85,-81.69,-38.19,-16.83,4.81,-36.94,-19.43,Standing
09:00.6,523,516,774,956,256,3,333.77,1.25,15.33,256,228,20724.1,238,429488416,4294941246,970,1.02,-0.11,0.04,-0.3,1.3,-2.92,-7.03,-81.52,-38.16,-16.92,4.54,-36.91,-19.51,Standing
09:00.7,542,516,774,956,266,2.85,351.39,1.3,15.33,256,261,20724.1,238,429488416,4294943831,1231,1.01,-0.09,0.03,-2.24,0.34,-1.98,-5.88,-82.88,-38.37,-17.14,4.39,-37.07,-19.76,Standing
09:00.8,625,517,775.5,956,252,3.06,326.85,1.23,15.33,256,231,20724.1,238,429488416,4294931656,1462,1.01,-0.1,0.01,-2.61,0.96,-2.37,-6.38,-82.59,-38.63,-17.27,4.19,-37.34,-19.88,Standing
09:01.0,496,517,775.5,956,258,2.97,337.25,1.26,15.33,256,243,20724.1,238,429488416,4294925169,1705,1.01,-0.1,0.04,-1.08,2.54,-1.86,-6.43,-82.12,-38.7,-17.2,4.05,-37.41,-19.79,Standing
09:01.1,521,517,775.5,956,266,2.85,351.39,1.3,15.33,256,261,20724.1,238,429488416,4294927754,1966,1,-0.1,0.06,-2.28,1.76,-2.47,-6.22,-81.71,-38.91,-17.23,3.84,-37.61,-19.81,Standing
09:01.2,604,518,777,956,253,3.04,328.57,1.24,15.33,256,250,20724.1,238,429488416,4294924718,2216,1.01,-0.1,0.05,-1.23,1.84,-3.17,-6.08,-82.21,-39,-17.25,3.54,-37.68,-19.85,Standing
09:01.4,501,518,777,956,263,2.89,346.05,1.29,39.01,258,262,20724.21,247,429492768,0,0,1.01,-0.09,0.07,0.77,2.92,-3.53,-5.86,-81.75,-38.83,-17.14,3.19,-37.51,-19.72,Standing
09:01.5,522,518,777,956,270,2.79,358.57,1.32,39.01,258,265,20724.21,247,429492768,4689,265,1.01,-0.08,0.05,1.49,-1.15,-3.15,-5.14,-82.91,-38.57,-17.53,2.9,-37.24,-20.15,Standing
09:01.6,511,517,775.5,956,259,2.95,339.01,1.27,39.01,258,244,20724.21,247,429492768,4294965985,509,1.01,-0.08,0.04,-1.53,-4.28,-1.02,-4.91,-83.54,-38.7,-18.33,2.87,-37.35,-20.94,Standing
09:01.7,482,513,769.5,956,258,2.97,337.25,1.26,39.01,258,231,20724.21,247,429492768,4294953810,740,1.01,-0.07,0.02,0.24,2.27,0.09,-4.7,-84.15,-38.6,-18.3,2.98,-37.24,-20.93,Standing
09:01.9,427,510,765,956,269,2.8,356.76,1.31,39.01,258,263,20724.21,247,429492768,4294957443,1003,1.02,-0.09,0.05,-1.08,0.24,-0.4,-5.57,-82.77,-38.66,-18.52,3.03,-37.34,-21.09,Standing
09:02.0,485,509,763.5,956,258,2.97,337.25,1.26,39.01,258,261,20724.21,247,429492768,4294960028,1264,1.03,-0.09,0.05,-1.5,0.31,-2.82,-5.34,-82.99,-38.78,-18.73,2.77,-37.44,-21.3,Standing
09:12.9,646,646,969,646,254,3.03,330.3,1.24,0,0,217,0,0,0,4294929969,433,0.93,0.45,-0.05,-3.38,0.89,-3.68,25.47,-62.18,-0.16,0.24,-0.6,0.87,-2.25,Left Fall while Standing
09:13.0,568,607,910.5,646,259,2.95,339.01,1.27,0,0,268,0,0,0,4294936257,701,0.89,0.46,-0.03,-4.64,-3.91,-7.73,26.88,-60.89,-0.66,-0.48,-1.46,0.44,-2.9,Left Fall while Standing
09:13.1,531,581,871.5,646,262,2.9,344.28,1.28,0,0,268,0,0,0,4294942545,969,0.88,0.48,-0.04,-1.67,2.56,-2.63,28.08,-59.66,-0.8,-0.41,-1.68,0.36,-2.78,Left Fall while Standing
09:13.3,520,566,849,646,256,3,333.77,1.25,0,0,243,0,0,0,4294936058,1212,0.91,0.45,-0.04,-1.39,2.89,-0.73,25.8,-61.95,-0.9,-0.3,-1.68,0.17,-2.77,Left Fall while Standing
09:13.4,490,551,826.5,646,249,3.11,321.71,1.22,0,0,214,0,0,0,4294916318,1426,0.9,0.46,-0.02,-0.42,-0.18,-4.14,26.45,-61.37,-0.88,-0.57,-2.09,0.21,-3,Left Fall while Standing
09:13.5,508,543,814.5,646,249,3.11,321.71,1.22,0,0,216,0,0,0,4294897438,1642,0.9,0.47,-0.05,-0.53,-2,-4.28,27.27,-60.43,-0.88,-1.07,-2.52,0.25,-3.44,Left Fall while Standing
09:13.6,498,537,805.5,646,255,3.01,332.03,1.25,0,0,217,0,0,0,4294878991,1859,0.89,0.48,-0.05,-0.82,0.55,-5.36,27.7,-59.95,-0.91,-1.25,-3.09,0.23,-3.6,Left Fall while Standing
09:13.8,496,532,798,646,261,2.92,342.52,1.28,0,0,269,0,0,0,4294885816,2128,0.87,0.48,-0.06,0.1,1.41,-4.89,28.38,-59.24,-0.83,-1.32,-3.59,0.34,-3.64,Left Fall while Standing
09:13.9,469,525,787.5,646,262,2.9,344.28,1.28,20724.3,255,269,20724.12,239,429489248,0,0,0.87,0.51,-0.05,-2.64,3.73,-4.08,29.51,-58.14,-1.09,-1.1,-4,0.13,-3.39,Left Fall while Standing
09:14.0,464,519,778.5,646,249,3.11,321.71,1.22,20724.3,255,216,20724.12,239,429489248,4294948416,216,0.87,0.5,-0.05,-0.56,2.16,-3.84,29.43,-58.27,-1.09,-1.08,-4.39,0.13,-3.37,Left Fall while Standing
09:14.1,514,518,777,646,247,3.14,318.3,1.21,20724.3,255,217,20724.12,239,429489248,4294929969,433,0.87,0.5,-0.04,0.08,-1.27,-3.65,29.44,-58.29,-1.01,-1.5,-4.75,0.21,-3.77,Left Fall while Standing
09:14.3,482,515,772.5,646,258,2.97,337.25,1.26,20724.3,255,267,20724.12,239,429489248,4294935722,700,0.86,0.52,-0.05,0.4,-4.36,-7.36,30.36,-57.29,-0.89,-2.31,-5.58,0.36,-4.51,Left Fall while Standing
09:14.4,463,511,766.5,646,247,3.14,318.3,1.21,20724.3,255,217,20724.12,239,429489248,4294917275,917,0.84,0.53,-0.09,1.5,-1.4,-5.2,31.42,-55.9,-0.63,-2.73,-6.14,0.65,-4.86,Left Fall while Standing
09:14.5,509,511,766.5,646,245,3.18,314.91,1.2,20724.3,255,217,20724.12,239,429489248,4294898828,1134,0.84,0.52,-0.07,-2.22,3.07,0.38,31.14,-56.43,-0.84,-2.6,-5.99,0.44,-4.75,Left Fall while Standing
09:14.6,434,506,759,646,255,3.01,332.03,1.25,20724.3,255,217,20724.12,239,429489248,4294880381,1351,0.89,0.52,-0.06,-1.23,7.55,-5.73,29.94,-57.65,-0.92,-1.89,-6.62,0.31,-4.12,Left Fall while Standing
09:14.8,198,486,729,646,242,3.23,309.86,1.18,20724.3,255,213,20724.12,239,429489248,4294860214,1564,0.84,0.56,-0.07,-4.02,-3.6,-4.96,32.86,-54.71,-1.36,-2.61,-7.15,0.01,-4.69,Left Fall while Standing
09:14.9,360,479,718.5,646,239,3.28,304.85,1.17,20724.3,255,213,20724.12,239,429489248,4294840047,1777,0.85,0.53,-0.05,0.08,-3.93,1.84,31.27,-56.39,-1.28,-3.36,-6.81,0.02,-5.48,Left Fall while Standing
09:15.0,352,472,708,646,251,3.08,325.13,1.23,20724.3,255,254,20724.12,239,429489248,4294839027,2031,0.85,0.54,-0.1,-0.82,-2.16,-4.6,31.78,-55.47,-1.32,-3.88,-7.29,0.01,-5.95,Left Fall while Standing
09:15.2,449,471,706.5,646,239,3.28,304.85,1.17,20724.2,247,864,20724.06,289,429486464,0,0,0.85,0.55,-0.09,0.4,-6.93,-3.54,32.23,-55.13,-1.2,-5,-7.64,0.14,-7.01,Left Fall while Standing
09:15.3,1001,497,745.5,1001,260,2.93,340.76,1.27,20724.2,247,867,20724.06,289,429486464,30793,867,0.83,0.54,-0.12,-3.81,-8.5,-0.29,32.45,-54.53,-1.61,-6.33,-7.57,-0.25,-8.26,Left Fall while Standing
09:15.4,1001,521,781.5,1001,273,2.75,364,1.33,20724.2,247,853,20724.06,289,429486464,37506,1720,0.83,0.55,-0.11,-1.47,3.75,-3.76,32.78,-54.28,-1.72,-6.11,-7.95,-0.34,-8.04,Left Fall while Standing
09:15.5,1001,543,814.5,1001,268,2.82,354.97,1.31,20724.2,247,309,20724.06,289,429486464,67451,2029,0.84,0.56,-0.13,-3.39,-4.5,-4.04,33.04,-53.75,-2.08,-6.94,-8.36,-0.68,-8.81,Left Fall while Standing
09:15.7,962,561,841.5,1001,257,2.98,335.51,1.26,20724.2,247,295,20724.06,289,429486464,88940,2324,0.82,0.56,-0.12,-2.12,-0.84,-2.81,33.51,-53.47,-2.28,-7.3,-8.62,-0.85,-9.14,Left Fall while Standing
09:15.8,440,556,834,1001,266,2.85,351.39,1.3,20724.2,247,292,20724.06,289,429486464,108668,2616,0.84,0.55,-0.11,-4.79,2.51,-2.03,32.39,-54.64,-2.82,-7.23,-8.77,-1.41,-9.13,Left Fall while Standing
09:15.9,214,542,813,1001,265,2.86,349.6,1.3,20724.2,247,291,20724.06,289,429486464,127813,2907,0.82,0.57,-0.11,-3.93,4.98,-3.17,33.8,-53.32,-3.24,-6.85,-9.08,-1.76,-8.71,Left Fall while Standing
09:16.0,108,526,789,1001,252,3.06,326.85,1.23,20724.2,247,291,20724.06,289,429486464,146958,3198,0.83,0.57,-0.09,-5.4,-1.43,2.12,34.02,-53.35,-3.85,-7.29,-8.71,-2.34,-9.13,Left Fall while Standing
09:16.2,55,508,762,1001,262,2.9,344.28,1.28,20724.2,247,290,20724.06,289,429486464,165522,3488,0.82,0.55,-0.07,-2.96,0.32,12.14,33.25,-54.25,-4.16,-7.5,-7.08,-2.66,-9.37,Left Fall while Standing
09:16.3,102,494,741,1001,265,2.86,349.6,1.3,20724.2,247,291,20724.06,289,429486464,184667,3779,0.88,0.52,-0.07,-5.2,7.94,6.23,30.03,-57.51,-4.75,-6.74,-6.19,-3.36,-8.77,Left Fall while Standing
09:16.4,104,480,720,1001,251,3.08,325.13,1.23,55.67,261,291,142.76,407,20380,0,0,0.85,0.53,-0.09,-1.51,11.49,2.79,31.18,-56.16,-4.86,-5.58,-5.75,-3.42,-7.6,Left Fall while Standing
09:16.5,312,475,712.5,1001,272,2.76,362.18,1.33,55.67,261,290,142.76,407,20380,18564,290,0.85,0.51,-0.04,-4.5,1.61,7.95,30.13,-57.59,-5.35,-5.62,-4.67,-3.93,-7.7,Left Fall while Standing
09:16.7,572,478,717,1001,289,2.54,393.73,1.41,55.67,261,289,142.76,407,20380,36549,579,0.89,0.51,-0.07,-2.49,6.67,15.14,28.85,-58.72,-5.59,-5.04,-2.67,-4.22,-7.19,Left Fall while Standing
09:16.8,622,482,723,1001,296,2.46,407.15,1.45,55.67,261,290,142.76,407,20380,55113,869,0.91,0.43,-0.05,-5.45,8.28,17.66,24.8,-62.89,-6.2,-4.26,-0.39,-4.96,-6.61,Left Fall while Standing
09:16.9,542,484,726,1001,289,2.54,393.73,1.41,55.67,261,289,142.76,407,20380,73098,1158,0.91,0.41,-0.01,-3.89,12.15,9.95,23.83,-64,-6.62,-2.99,0.96,-5.4,-5.43,Left Fall while Standing
09:17.0,416,482,723,1001,284,2.6,384.3,1.39,55.67,261,289,142.76,407,20380,91083,1447,0.87,0.42,0.07,-3.17,6.47,10.27,25.08,-62.37,-6.94,-2.43,2.34,-5.66,-4.83,Left Fall while Standing
09:17.2,437,481,721.5,1001,291,2.52,397.54,1.42,55.67,261,289,142.76,407,20380,109068,1736,0.93,0.39,0,-4.44,-2.68,19.98,22,-65.84,-7.43,-3.02,4.93,-6.25,-5.53,Left Fall while Standing
09:17.3,472,480,720,1001,298,2.43,411.03,1.46,55.67,261,289,142.76,407,20380,127053,2025,0.92,0.3,0,0.31,9.47,37.25,17.72,-70.12,-7.32,-2.09,9.69,-6.32,-4.81,Left Fall while Standing
09:17.4,490,481,721.5,1001,296,2.46,407.15,1.45,55.67,261,289,142.76,407,20380,145038,2314,0.98,0.25,-0.01,-6.73,14.25,23.61,13.71,-74.12,-8.08,-0.57,12.71,-7.21,-3.51,Left Fall while Standing
09:17.5,399,478,717,1001,287,2.56,389.95,1.4,55.67,261,288,142.76,407,20380,162446,2602,0.99,0.2,0.04,-3.84,8.42,14.78,10.76,-76.88,-8.49,0.24,14.66,-7.72,-2.85,Left Fall while Standing
09:17.7,467,478,717,1001,294,2.48,403.29,1.44,135.59,289,288,134.11,289,17984,0,0,1.01,0.15,0.08,-10.09,-6.6,14.33,8.02,-78.82,-9.68,-0.83,16.54,-8.97,-3.95,Left Fall while Standing
09:17.8,501,479,718.5,1001,302,2.39,418.86,1.48,135.59,289,288,134.11,289,17984,17408,288,1.01,0.13,0.05,-8.4,-8.89,12.53,6.93,-80.46,-10.65,-2.19,18.2,-9.95,-5.32,Left Fall while Standing
09:17.9,519,480,720,1001,308,2.32,430.77,1.51,135.59,289,288,134.11,289,17984,34816,576,1,0.1,0.02,-10.58,-8.07,16.79,5.02,-82.64,-11.91,-3.45,20.4,-11.23,-6.62,Left Fall while Standing
09:18.0,477,480,720,1001,301,2.4,416.9,1.47,135.59,289,288,134.11,289,17984,52224,864,0.99,0.05,0.04,-19.33,-0.65,19.03,2.38,-84.78,-14.25,-3.78,22.88,-13.59,-7.02,Left Fall while Standing
09:18.2,480,480,720,1001,299,2.42,412.98,1.46,135.59,289,288,134.11,289,17984,69632,1152,1.02,0.02,-0.01,-15.8,-0.79,26.78,0.42,-87.3,-16.14,-4.13,26.29,-15.48,-7.45,Left Fall while Standing
09:18.3,350,477,715.5,1001,303,2.38,420.83,1.48,135.59,289,288,134.11,289,17984,87040,1440,1.11,-0.07,-0.06,-6.52,6.45,24.44,-4.26,-83.68,-16.89,-3.57,29.47,-16.39,-6.77,Left Fall while Standing
09:18.4,301,473,709.5,1001,303,2.38,420.83,1.48,135.59,289,288,134.11,289,17984,104448,1728,1,-0.1,0,-6.38,7.09,15.08,-6.43,-82.57,-17.62,-2.93,31.46,-17.17,-6.12,Left Fall while Standing
09:18.5,345,470,705,1001,290,2.53,395.63,1.42,135.59,289,288,134.11,289,17984,121856,2016,1.03,-0.14,0,-11.18,-0.24,8.59,-8.43,-80.57,-18.96,-3.21,32.64,-18.54,-6.31,Left Fall while Standing
09:18.7,392,468,702,1001,293,2.49,401.37,1.43,135.59,289,288,134.11,289,17984,139264,2304,1.03,-0.17,-0.01,-11.66,2,1.94,-9.83,-79.16,-20.36,-3.21,32.98,-19.94,-6.25,Left Fall while Standing
09:18.8,398,467,700.5,1001,300,2.41,414.94,1.47,135.59,289,289,134.11,289,17984,157249,2593,0.99,-0.16,0.02,-9.6,5.46,-1.06,-9.9,-79.04,-21.5,-2.78,32.95,-21.03,-5.83,Left Fall while Standing
09:18.9,450,466,699,1001,295,2.47,405.22,1.44,155.34,299,289,132.37,288,17522,0,0,0.99,-0.17,0.06,-11.48,-1.18,1.53,-10.38,-78.06,-22.85,-3.17,33.24,-22.35,-6.17,Left Fall while Standing
09:19.0,521,468,702,1001,288,2.55,391.84,1.41,155.34,299,288,132.37,288,17522,17408,288,1,-0.18,0.03,-9.6,-4.37,5.6,-10.47,-78.36,-23.98,-3.97,34.03,-23.44,-6.94,Left Fall while Standing
09:19.2,529,469,703.5,1001,295,2.47,405.22,1.44,155.34,299,288,132.37,288,17522,34816,576,1,-0.2,0.02,-10.12,-6.54,6.47,-11.76,-77.19,-25.18,-5.04,34.95,-24.65,-7.93,Left Fall while Standing
09:19.3,569,471,706.5,1001,304,2.37,422.81,1.49,155.34,299,288,132.37,288,17522,52224,864,1.01,-0.23,0,-7.26,-3.39,5.95,-13.43,-75.57,-26.02,-5.72,35.79,-25.52,-8.51,Left Fall while Standing
09:19.4,553,472,708,1001,298,2.43,411.03,1.46,155.34,299,288,132.37,288,17522,69632,1152,1.02,-0.25,-0.01,-3.01,-3.26,-0.38,-14.65,-74.34,-26.33,-6.38,35.84,-25.86,-9.1,Left Fall while Standing
09:19.5,601,475,712.5,1001,293,2.49,401.37,1.43,155.34,299,288,132.37,288,17522,87040,1440,1,-0.23,0.02,2.47,3.63,-1.66,-13.4,-75.56,-25.95,-6.17,35.73,-25.45,-8.95,Left Fall while Standing
09:19.7,514,475,712.5,1001,300,2.41,414.94,1.47,155.34,299,288,132.37,288,17522,104448,1728,1.02,-0.24,-0.01,1.11,-0.06,-0.17,-14.09,-74.89,-25.74,-6.43,35.81,-25.27,-9.17,Left Fall while Standing
09:19.8,560,477,715.5,1001,303,2.38,420.83,1.48,155.34,299,289,132.37,288,17522,122433,2017,1.02,-0.24,-0.02,3.13,4.08,-3.21,-14.02,-74.95,-25.27,-6.17,35.51,-24.82,-8.92,Left Fall while Standing
09:19.9,832,483,724.5,1001,292,2.5,399.45,1.43,155.34,299,288,132.37,288,17522,139841,2305,1.01,-0.22,0,0.34,0.76,-2.8,-13,-76,-25.16,-6.32,35.25,-24.68,-9.11,Left Fall while Standing
09:20.0,525,484,726,1001,294,2.48,403.29,1.44,155.34,299,288,132.37,288,17522,157249,2593,1,-0.23,0,-0.87,0.5,-5.46,-13.7,-75.3,-25.2,-6.51,34.67,-24.74,-9.26,Left Fall while Standing
09:20.2,480,484,726,1001,302,2.39,418.86,1.48,150.46,296,288,132.16,288,17464,0,0,1.02,-0.21,0.01,1.29,4.49,-8.23,-12.3,-76.7,-24.97,-6.2,33.74,-24.46,-9.02,Left Fall while Standing
09:20.3,492,484,726,1001,301,2.4,416.9,1.47,150.46,296,288,132.16,288,17464,17408,288,1,-0.17,-0.02,0.72,1.98,-7.11,-10.5,-78.45,-24.81,-6.2,32.95,-24.24,-9.09,Left Fall while Standing
09:20.4,501,484,726,1001,292,2.5,399.45,1.43,150.46,296,288,132.16,288,17464,34816,576,0.99,-0.16,-0.02,-1.53,1.58,-2.92,-10.02,-78.9,-24.93,-6.26,32.69,-24.34,-9.16,Left Fall while Standing
09:23.2,500,500,750,500,303,2.38,420.83,1.48,0,0,288,0,0,0,34816,576,1.03,-0.08,0,0.47,5.18,2.9,-5.15,-83.84,0.88,0.6,1.76,0.64,-2.77,Right Fall while Standing
09:23.4,509,504,756,509,305,2.35,424.79,1.49,0,0,288,0,0,0,52224,864,1.02,-0.08,-0.01,-3.82,1.03,-2.08,-4.96,-84.03,0.48,0.49,1.6,0.26,-2.9,Right Fall while Standing
09:23.5,488,499,748.5,509,304,2.37,422.81,1.49,0,0,288,0,0,0,69632,1152,0.98,-0.11,0,-2.76,6.02,9.26,-6.83,-82.17,0.21,0.98,2.84,-0.07,-2.35,Right Fall while Standing
09:23.6,516,503,754.5,516,301,2.4,416.9,1.47,0,0,288,0,0,0,87040,1440,1.01,-0.09,0.01,1.29,15.82,9.98,-5.8,-83.13,0.43,2.67,4.15,0.19,-0.77,Right Fall while Standing
09:23.7,739,550,825,739,296,2.46,407.15,1.45,0,0,288,0,0,0,104448,1728,1.02,-0.16,0.06,-14.15,3.22,8.72,-9.72,-78.65,-1.22,2.82,5.31,-1.56,-0.44,Right Fall while Standing
09:23.8,407,526,789,739,290,2.53,395.63,1.42,0,0,288,0,0,0,121856,2016,0.99,-0.16,0.07,0.97,6.48,4.55,-9.95,-78.29,-1.04,3.36,5.97,-1.39,0.1,Right Fall while Standing
09:24.0,378,505,757.5,739,288,2.55,391.84,1.41,0,0,288,0,0,0,139264,2304,1,-0.19,0.08,-6.24,-2.78,4.33,-11.36,-76.7,-1.73,2.78,6.59,-2.12,-0.4,Right Fall while Standing
09:24.1,381,489,733.5,739,290,2.53,395.63,1.42,0,0,288,0,0,0,156672,2592,0.99,-0.22,0.07,-0.21,-3.1,13.62,-13.19,-75.12,-1.69,2.15,8.36,-2.15,-0.94,Right Fall while Standing
09:24.2,341,473,709.5,739,294,2.48,403.29,1.44,149.9,296,288,131.94,288,17407,0,0,0.98,-0.22,0.03,-1.82,23.61,17.26,-12.97,-75.88,-1.84,4.83,10.6,-2.29,1.6,Right Fall while Standing
09:24.3,370,462,693,739,298,2.43,411.03,1.46,149.9,296,288,131.94,288,17407,17408,288,0.95,-0.25,0.1,4.28,12.77,11.19,-14.99,-72.86,-1.24,6.17,12.09,-1.79,3.01,Right Fall while Standing
09:24.5,437,460,690,739,295,2.47,405.22,1.44,149.9,296,288,131.94,288,17407,34816,576,0.96,-0.29,0.15,0.66,25.66,28.58,-17.17,-69.54,-1.09,9.12,15.76,-1.73,5.98,Right Fall while Standing
09:24.6,505,464,696,739,286,2.58,388.06,1.4,149.9,296,288,131.94,288,17407,52224,864,0.87,-0.37,0.24,-5.56,15.62,19.61,-22.87,-61.6,-1.71,10.81,18.29,-2.56,7.92,Right Fall while Standing
09:24.7,524,468,702,739,290,2.53,395.63,1.42,149.9,296,288,131.94,288,17407,69632,1152,0.96,-0.41,0.14,-5.4,7.65,19.07,-23.79,-63.85,-2.32,11.52,20.79,-3.18,8.51,Right Fall while Standing
09:24.8,562,475,712.5,739,296,2.46,407.15,1.45,149.9,296,288,131.94,288,17407,87040,1440,0.83,-0.45,0.25,-5.39,5.21,21.46,-28.2,-56.59,-2.92,11.92,23.55,-3.93,9.18,Right Fall while Standing
09:25.0,452,473,709.5,739,297,2.44,409.09,1.45,149.9,296,288,131.94,288,17407,104448,1728,0.84,-0.5,0.23,-6.73,3.63,15.89,-30.46,-55.21,-3.69,12.13,25.63,-4.76,9.43,Right Fall while Standing
09:25.1,532,477,715.5,739,287,2.56,389.95,1.4,149.9,296,288,131.94,288,17407,121856,2016,0.85,-0.51,0.24,-6.15,-0.37,12.85,-30.71,-54.77,-4.39,11.83,27.34,-5.44,9.17,Right Fall while Standing
09:25.2,611,485,727.5,739,290,2.53,395.63,1.42,149.9,296,288,131.94,288,17407,139264,2304,0.81,-0.55,0.21,-7.53,-0.6,18.15,-33.6,-52.72,-5.26,11.51,29.71,-6.39,8.94,Right Fall while Standing
09:25.3,572,490,735,739,297,2.44,409.09,1.45,149.9,296,288,131.94,288,17407,156672,2592,0.83,-0.57,0.18,-8.42,1.98,15.02,-34.31,-52.72,-6.24,11.5,31.68,-7.37,8.93,Right Fall while Standing
09:25.5,644,498,747,739,300,2.41,414.94,1.47,143.83,293,289,132.16,288,17464,0,0,0.78,-0.62,0.2,1.01,-0.16,12.79,-38.07,-48.64,-6.05,11.24,33.37,-7.33,8.84,Right Fall while Standing
09:25.6,555,501,751.5,739,291,2.52,397.54,1.42,143.83,293,288,132.16,288,17464,17408,288,0.78,-0.66,0.16,-7.66,-6.57,11.68,-40.14,-47.39,-6.93,10.17,34.91,-8.26,7.87,Right Fall while Standing
09:25.7,599,505,757.5,739,286,2.58,388.06,1.4,143.83,293,288,132.16,288,17464,34816,576,0.74,-0.67,0.22,-3.33,1.05,5.51,-41.53,-44.9,-7.28,10.05,35.7,-8.65,7.86,Right Fall while Standing
09:25.8,532,507,760.5,739,293,2.49,401.37,1.43,143.83,293,288,132.16,288,17464,52224,864,0.72,-0.66,0.14,-4.62,2.85,5.31,-42.61,-45.19,-7.78,10.16,36.46,-9.18,7.95,Right Fall while Standing
09:26.0,504,506,759,739,299,2.42,412.98,1.46,143.83,293,288,132.16,288,17464,69632,1152,0.71,-0.67,0.23,-10.63,-3.85,12.36,-42.83,-43.21,-9.03,9.44,38.09,-10.38,7.33,Right Fall while Standing
09:26.1,384,501,751.5,739,294,2.48,403.29,1.44,143.83,293,288,132.16,288,17464,87040,1440,0.75,-0.71,0.2,4.56,-0.41,2.98,-42.98,-44.02,-8.39,9.13,38.57,-9.77,7.01,Right Fall while Standing
09:26.2,565,504,756,739,286,2.58,388.06,1.4,143.83,293,288,132.16,288,17464,104448,1728,0.7,-0.71,0.12,4.31,0.37,0.04,-45.78,-42.44,-7.78,8.93,38.67,-9.3,6.87,Right Fall while Standing
09:26.3,563,506,759,739,290,2.53,395.63,1.42,143.83,293,288,132.16,288,17464,121856,2016,0.67,-0.7,0.18,-9.62,-1.2,5.43,-45.77,-41.42,-8.92,8.53,39.45,-10.39,6.53,Right Fall while Standing
09:26.5,502,506,759,739,296,2.46,407.15,1.45,143.83,293,288,132.16,288,17464,139264,2304,0.73,-0.71,0.15,-8.14,-0.23,5.57,-44.32,-43.47,-9.86,8.25,40.24,-11.24,6.18,Right Fall while Standing
09:26.6,551,507,760.5,739,296,2.46,407.15,1.45,143.83,293,288,132.16,288,17464,156672,2592,0.69,-0.74,0.18,-0.05,1.56,0.26,-46.8,-40.37,-9.8,8.2,40.37,-11.28,6.25,Right Fall while Standing
09:26.7,554,509,763.5,739,286,2.58,388.06,1.4,139.9,291,288,131.94,288,17407,0,0,0.69,-0.74,0.14,0.83,0.47,-2.6,-46.71,-41.17,-9.63,8.01,40.15,-11.11,6.04,Right Fall while Standing
09:26.8,608,512,768,739,286,2.58,388.06,1.4,139.9,291,288,131.94,288,17407,17408,288,0.71,-0.75,0.12,-6.2,-1.45,-1.2,-46.45,-41.74,-10.33,7.58,40.1,-11.77,5.61,Right Fall while Standing
09:27.0,449,510,765,739,291,2.52,397.54,1.42,139.9,291,288,131.94,288,17407,34816,576,0.66,-0.74,0.16,-6.4,-0.59,1.63,-47.91,-39.68,-11.06,7.26,40.4,-12.53,5.38,Right Fall while Standing
09:27.1,380,506,759,739,295,2.47,405.22,1.44,139.9,291,288,131.94,288,17407,52224,864,0.7,-0.74,0.14,-6.69,0.5,4.63,-46.68,-41.29,-11.82,7.07,41.08,-13.22,5.13,Right Fall while Standing
09:27.2,477,505,757.5,739,293,2.49,401.37,1.43,139.9,291,288,131.94,288,17407,69632,1152,0.72,-0.75,0.14,0.49,0.7,-5.3,-46.05,-41.89,-11.69,6.91,40.52,-13.06,4.95,Right Fall while Standing
09:27.3,671,510,765,739,297,2.44,409.09,1.45,139.9,291,287,131.94,288,17407,86465,1439,0.67,-0.74,0.1,-3.15,0.53,-5.15,-47.81,-40.57,-12.01,6.72,39.98,-13.44,4.83,Right Fall while Standing
09:27.5,639,514,771,739,306,2.34,426.78,1.5,139.9,291,287,131.94,288,17407,103298,1726,0.69,-0.73,0.14,7,20.8,-11.36,-46.6,-41.37,-11.06,9.09,38.64,-12.48,7.07,Right Fall while Standing
09:27.6,592,516,774,739,312,2.28,438.82,1.52,139.9,291,287,131.94,288,17407,120131,2013,0.72,-0.72,0.19,-18.74,-5.21,-8.4,-44.72,-42.41,-13.33,8.19,37.69,-14.59,6.17,Right Fall while Standing
09:27.7,527,516,774,739,302,2.39,418.86,1.48,139.9,291,287,131.94,288,17407,136964,2300,0.69,-0.68,0.13,-0.1,2.63,-3.89,-44.67,-43.29,-13.27,8.27,37.3,-14.53,6.21,Right Fall while Standing
09:27.8,502,516,774,739,293,2.49,401.37,1.43,139.9,291,287,131.94,288,17407,153797,2587,0.74,-0.7,0.14,-1.14,-4.67,-2.53,-43.71,-44.2,-13.35,7.44,37.08,-14.56,5.37,Right Fall while Standing
09:28.0,354,512,768,739,298,2.43,411.03,1.46,151.34,297,287,130.63,287,17062,0,0,0.7,-0.72,0.1,1.72,-6.79,0.76,-45.97,-42.43,-13.06,6.35,37.28,-14.38,4.4,Right Fall while Standing
09:28.1,359,508,762,739,301,2.4,416.9,1.47,151.34,297,288,130.63,287,17062,17408,288,0.73,-0.7,0.11,-4.9,1.5,-2.82,-44.17,-44.19,-13.61,6.28,37.02,-14.83,4.26,Right Fall while Standing
09:28.2,400,505,757.5,739,296,2.46,407.15,1.45,151.34,297,288,130.63,287,17062,34816,576,0.75,-0.73,0.13,-4.52,-0.61,-3.84,-44.37,-43.77,-14.1,5.96,36.64,-15.31,3.97,Right Fall while Standing
09:28.3,542,506,759,739,288,2.55,391.84,1.41,151.34,297,287,130.63,287,17062,51649,863,0.76,-0.69,0.13,-0.21,-3.24,-11.21,-42.51,-45.52,-14.05,5.3,35.34,-15.19,3.27,Right Fall while Standing
09:28.5,554,507,760.5,739,296,2.46,407.15,1.45,151.34,297,288,130.63,287,17062,69057,1151,0.71,-0.66,0.1,-0.4,0.74,-9.4,-42.94,-45.5,-14.03,5.15,34.27,-15.19,3.12,Right Fall while Standing
09:28.6,510,507,760.5,739,304,2.37,422.81,1.49,151.34,297,288,130.63,287,17062,86465,1439,0.73,-0.68,0.1,-6.5,-3.05,-1.31,-43.52,-44.93,-14.78,4.52,34.2,-15.93,2.54,Right Fall while Standing
09:28.7,579,509,763.5,739,301,2.4,416.9,1.47,151.34,297,288,130.63,287,17062,103873,1727,0.74,-0.68,0.13,-3.02,4.96,0.07,-42.55,-45.44,-15.08,4.89,34.31,-16.18,2.87,Right Fall while Standing
09:28.8,642,512,768,739,293,2.49,401.37,1.43,151.34,297,288,130.63,287,17062,121281,2015,0.75,-0.7,0.1,-5.18,-2.66,3.46,-43.63,-44.79,-15.66,4.3,34.84,-16.78,2.34,Right Fall while Standing
09:29.0,554,513,769.5,739,298,2.43,411.03,1.46,151.34,297,288,130.63,287,17062,138689,2303,0.75,-0.68,0.11,0.73,4.2,-1.67,-42.44,-45.85,-15.5,4.58,34.73,-16.58,2.56,Right Fall while Standing
09:29.1,453,511,766.5,739,303,2.38,420.83,1.48,151.34,297,288,130.63,287,17062,156097,2591,0.75,-0.68,0.09,-1.76,1.99,-0.31,-42.64,-45.9,-15.65,4.58,34.79,-16.73,2.56,Right Fall while Standing
09:29.2,434,510,765,739,298,2.43,411.03,1.46,152.22,297,288,131.72,287,17349,0,0,0.73,-0.69,0.09,-3.53,4.13,-0.65,-43.66,-44.84,-16.02,4.84,34.81,-17.12,2.85,Right Fall while Standing
09:29.3,501,510,765,739,290,2.53,395.63,1.42,152.22,297,288,131.72,287,17349,17408,288,0.74,-0.69,0.09,-6.08,0.31,-0.38,-43.24,-45.33,-16.71,4.63,34.86,-17.77,2.63,Right Fall while Standing
09:29.5,504,509,763.5,739,293,2.49,401.37,1.43,152.22,297,288,131.72,287,17349,34816,576,0.75,-0.7,0.11,-5.12,3.12,-2.52,-43.22,-45.08,-17.28,4.77,34.64,-18.32,2.78,Right Fall while Standing
09:29.6,455,508,762,739,299,2.42,412.98,1.46,152.22,297,287,131.72,287,17349,51649,863,0.73,-0.7,0.13,-2.63,5.02,-5.34,-43.8,-44.23,-17.54,5.15,34.07,-18.59,3.17,Right Fall while Standing
09:29.7,437,507,760.5,739,300,2.41,414.94,1.47,152.22,297,288,131.72,287,17349,69057,1151,0.74,-0.68,0.11,-4.27,-2.62,-0.87,-42.65,-45.7,-18,4.57,34.06,-18.99,2.56,Right Fall while Standing
09:29.8,497,507,760.5,739,289,2.54,393.73,1.41,152.22,297,288,131.72,287,17349,86465,1439,0.74,-0.69,0.09,-1.82,1.73,0.18,-43.31,-45.2,-18.16,4.54,34.18,-19.17,2.55,Right Fall while Standing
09:29.9,536,507,760.5,739,289,2.54,393.73,1.41,152.22,297,288,131.72,287,17349,103873,1727,0.75,-0.7,0.1,-3.51,0.88,-1.29,-43.33,-45.11,-18.53,4.4,34.12,-19.52,2.42,Right Fall while Standing
09:30.1,462,507,760.5,739,295,2.47,405.22,1.44,152.22,297,288,131.72,287,17349,121281,2015,0.76,-0.69,0.1,-3.51,0.79,-2.63,-42.6,-45.85,-18.9,4.25,33.89,-19.85,2.24,Right Fall while Standing
09:30.2,478,506,759,739,297,2.44,409.09,1.45,152.22,297,288,131.72,287,17349,138689,2303,0.75,-0.69,0.09,-1.38,1.15,-3.83,-43.14,-45.44,-19,4.14,33.51,-19.97,2.16,Right Fall while Standing
09:30.3,544,507,760.5,739,287,2.56,389.95,1.4,152.22,297,288,131.72,287,17349,156097,2591,0.75,-0.68,0.1,-1.56,0.95,-4.69,-42.48,-46.02,-19.12,4.01,33.02,-20.06,2.01,Right Fall while Standing
09:30.5,583,508,762,739,289,2.54,393.73,1.41,142.18,292,288,131.72,287,17349,0,0,0.76,-0.69,0.1,-3.95,0.31,-2.17,-42.57,-45.93,-19.54,3.8,32.85,-20.47,1.81,Right Fall while Standing
09:30.6,512,508,762,739,295,2.47,405.22,1.44,142.18,292,287,131.72,287,17349,16833,287,0.75,-0.69,0.09,-2.2,-0.85,-3.95,-42.87,-45.73,-19.75,3.45,32.46,-20.67,1.48,Right Fall while Standing
09:30.7,475,507,760.5,739,299,2.42,412.98,1.46,142.18,292,288,131.72,287,17349,34241,575,0.76,-0.68,0.09,-3.37,1.6,-4.51,-42.19,-46.32,-20.1,3.4,31.99,-20.98,1.41,Right Fall while Standing
09:30.8,507,507,760.5,739,291,2.52,397.54,1.42,142.18,292,288,131.72,287,17349,51649,863,0.75,-0.66,0.1,-3.38,1.81,-3.88,-41.69,-46.71,-20.45,3.37,31.61,-21.3,1.37,Right Fall while Standing
09:30.9,584,509,763.5,739,287,2.56,389.95,1.4,142.18,292,288,131.72,287,17349,69057,1151,0.76,-0.68,0.09,-3.83,-0.58,-1.65,-42.21,-46.32,-20.86,3.05,31.5,-21.71,1.07,Right Fall while Standing
09:31.1,467,508,762,739,293,2.49,401.37,1.43,142.18,292,288,131.72,287,17349,86465,1439,0.77,-0.67,0.1,-1.73,-0.76,-3.5,-41.57,-46.88,-21.01,2.7,31.16,-21.83,0.72,Right Fall while Standing
09:31.2,370,506,759,739,297,2.44,409.09,1.45,142.18,292,288,131.72,287,17349,103873,1727,0.76,-0.67,0.1,-0.69,-0.15,-3.26,-41.66,-46.81,-21.02,2.43,30.85,-21.85,0.46,Right Fall while Standing
09:31.3,426,505,757.5,739,285,2.59,386.18,1.39,142.18,292,288,131.72,287,17349,121281,2015,0.78,-0.66,0.08,1.01,4.5,-6.53,-40.67,-47.94,-20.83,2.74,30.13,-21.62,0.72,Right Fall while Standing
09:31.5,445,504,756,739,278,2.68,373.15,1.36,142.18,292,288,131.72,287,17349,138689,2303,0.78,-0.64,0.08,1.05,6.11,-11.57,-39.77,-48.85,-20.63,3.26,28.79,-21.39,1.17,Right Fall while Standing
09:31.6,360,502,753,739,285,2.59,386.18,1.39,142.18,292,288,131.72,287,17349,156097,2591,0.84,-0.61,0.14,5.24,5.68,-24.72,-36.03,-51.88,-19.9,3.72,25.77,-20.54,1.5,Right Fall while Standing
09:31.7,429,501,751.5,739,291,2.52,397.54,1.42,136.59,290,288,131.72,287,17349,0,0,0.83,-0.52,0.12,6.4,-3.02,-29.31,-32.48,-55.66,-19.04,3.1,22.26,-19.58,0.75,Right Fall while Standing
09:31.8,562,501,751.5,739,287,2.56,389.95,1.4,136.59,290,288,131.72,287,17349,17408,288,0.91,-0.51,0.16,-2.27,-8.35,-29.18,-29.55,-58.02,-19.25,1.81,18.72,-19.67,-0.58,Right Fall while Standing
09:32.0,679,504,756,739,282,2.63,380.57,1.38,136.59,290,288,131.72,287,17349,34816,576,0.94,-0.45,0.13,14.18,11.39,-40.23,-26.08,-61.83,-17.41,2.98,13.79,-17.76,0.39,Right Fall while Standing
09:32.1,610,505,757.5,739,289,2.54,393.73,1.41,136.59,290,288,131.72,287,17349,52224,864,0.85,-0.39,0.17,2.04,-7.26,-31.02,-24.83,-61.92,-17.09,1.83,10.01,-17.4,-0.72,Right Fall while Standing
09:32.2,832,510,765,832,295,2.47,405.22,1.44,136.59,290,288,131.72,287,17349,69632,1152,0.94,-0.33,0.11,2.11,-6.79,-21.78,-19.91,-68.06,-16.75,0.73,7.38,-16.88,-2.02,Right Fall while Standing
09:32.3,524,510,765,832,286,2.58,388.06,1.4,136.59,290,288,131.72,287,17349,87040,1440,1.03,-0.3,0.07,7,9.66,-13.32,-17.05,-71.54,-15.8,1.69,5.8,-15.85,-1.24,Right Fall while Standing
09:32.5,573,511,766.5,832,279,2.67,375,1.36,136.59,290,288,131.72,287,17349,104448,1728,0.96,-0.26,0.15,0.82,9.18,-18.75,-15.74,-70.89,-15.63,2.59,3.56,-15.63,-0.35,Right Fall while Standing
09:32.6,373,509,763.5,832,281,2.64,378.71,1.37,136.59,290,288,131.72,287,17349,121856,2016,0.99,-0.22,0.16,-6.66,-9.6,-21.5,-12.79,-73.29,-16.39,1.14,0.97,-16.24,-1.84,Right Fall while Standing
09:32.7,226,505,757.5,832,279,2.67,375,1.36,136.59,290,289,131.72,287,17349,139841,2305,1.03,-0.19,0.16,-5.98,0.42,-18.57,-11.19,-74.81,-17.07,0.94,-1.27,-16.84,-2.09,Right Fall while Standing
09:32.8,367,504,756,832,268,2.82,354.97,1.31,136.59,290,288,131.72,287,17349,157249,2593,0.99,-0.15,0.16,-0.6,3.37,-26.63,-9.02,-75.93,-17.08,1.11,-4.5,-16.75,-1.97,Right Fall while Standing
09:33.0,512,504,756,832,266,2.85,351.39,1.3,116.66,281,289,132.37,288,17522,0,0,0.97,-0.08,0.14,-4.18,-4.04,-27.62,-5.5,-78.98,-17.53,0.37,-7.82,-17.04,-2.81,Right Fall while Standing
09:33.1,493,504,756,832,275,2.72,367.65,1.34,116.66,281,288,132.37,288,17522,17408,288,0.96,-0.03,0.14,-10.43,-8.21,-19.33,-2.29,-80.26,-18.76,-0.91,-10.14,-18.1,-4.08,Right Fall while Standing
09:33.2,493,503,754.5,832,280,2.65,376.85,1.37,116.66,281,289,132.37,288,17522,35393,577,0.96,0,0.13,-14.01,-15.85,-6.16,-0.84,-80.61,-20.45,-3.16,-10.82,-19.67,-6.26,Right Fall while Standing
09:33.3,971,509,763.5,971,265,2.86,349.6,1.3,116.66,281,289,132.37,288,17522,53378,866,1.02,-0.01,0.09,-3.07,2.04,-6.52,-1.15,-83.5,-20.77,-3.15,-11.54,-19.98,-6.37,Right Fall while Standing
09:33.5,647,511,766.5,971,263,2.89,346.05,1.29,116.66,281,289,132.37,288,17522,71363,1155,1.01,0.03,0.1,-4.8,2.73,-5.44,0.86,-82.38,-21.3,-3.06,-12.12,-20.41,-6.24,Right Fall while Standing
09:33.6,551,511,766.5,971,271,2.77,360.37,1.32,116.66,281,289,132.37,288,17522,89348,1444,1.01,0.01,0.08,-3.6,-0.92,-1.15,-0.08,-83.7,-21.68,-3.43,-12.17,-20.82,-6.64,Right Fall while Standing
09:33.7,510,511,766.5,971,273,2.75,364,1.33,116.66,281,290,132.37,288,17522,107912,1734,1.01,0.02,0.08,-2.49,-2.49,-1.82,0.71,-83.71,-21.92,-3.99,-12.3,-21.02,-7.18,Right Fall while Standing
09:38.4,999,999,1498.5,999,331,2.09,478.32,1.62,0,0,287,0,0,0,33666,574,1.02,-0.06,-0.05,-5.79,-1.67,-2.53,-3.92,-83.93,-0.24,0.13,-0.12,-0.39,-3.23,Forward Fall while Standing
09:38.5,933,966,1449,999,328,2.12,471.94,1.6,0,0,287,0,0,0,50499,861,1.02,-0.05,-0.06,-4.53,6.54,-2.74,-3.19,-84.14,-0.73,0.69,-0.36,-0.83,-2.71,Forward Fall while Standing
09:38.7,747,893,1339.5,999,328,2.12,471.94,1.6,0,0,287,0,0,0,67332,1148,1.04,-0.02,-0.04,-9.32,3.81,-0.31,-1.83,-86.04,-1.81,0.91,-0.31,-1.81,-2.57,Forward Fall while Standing
09:38.8,495,793,1189.5,999,327,2.13,469.83,1.6,0,0,286,0,0,0,83592,1434,1.02,-0.02,-0.04,-6.15,-2.4,-3.67,-1.58,-85.92,-2.5,0.37,-0.66,-2.46,-3.08,Forward Fall while Standing
09:38.9,398,714,1071,999,326,2.14,467.72,1.59,0,0,286,0,0,0,99852,1720,1,-0.02,-0.03,-11.98,-8.65,-1.95,-1.5,-86.48,-3.9,-0.94,-0.8,-3.81,-4.36,Forward Fall while Standing
09:39.0,342,652,978,999,318,2.22,451.06,1.55,0,0,286,0,0,0,116112,2006,1,-0.01,-0.09,-8.71,-21.62,-3.76,-1.15,-83.37,-4.9,-3.85,-1.17,-4.75,-7.03,Forward Fall while Standing
09:39.2,231,592,888,999,312,2.28,438.82,1.52,0,0,286,0,0,0,132372,2292,1,-0.02,-0.08,-13.78,-18.65,-0.61,-2.01,-83.73,-6.53,-6.39,-1.15,-6.35,-9.48,Forward Fall while Standing
09:39.3,339,560,840,999,319,2.21,453.13,1.56,0,0,286,0,0,0,148632,2578,1,-0.04,-0.12,-6.57,-11.02,3.85,-3.11,-81.36,-7.28,-8,-0.57,-7.11,-10.94,Forward Fall while Standing
09:39.4,451,548,822,999,336,2.04,489.08,1.64,20723.83,324,286,128.41,286,16488,0,0,1,-0.06,-0.15,0.92,-22.97,1.5,-4.11,-79.33,-7.09,-11.1,-0.29,-6.97,-13.83,Forward Fall while Standing
09:39.5,433,536,804,999,329,2.11,474.06,1.61,20723.83,324,286,128.41,286,16488,16260,286,1.02,-0.1,-0.31,-4.45,-15.44,-0.62,-6.05,-70.55,-7.58,-13.3,-0.27,-7.52,-15.59,Forward Fall while Standing
09:39.7,250,510,765,999,311,2.29,436.8,1.52,20723.83,324,286,128.41,286,16488,32520,572,0.94,-0.08,-0.28,5.82,-37.11,1.37,-5.29,-71.41,-6.78,-18.22,0.01,-6.72,-20.35,Forward Fall while Standing
09:39.8,314,494,741,999,311,2.29,436.8,1.52,20723.83,324,286,128.41,286,16488,48780,858,0.98,-0.07,-0.27,11.75,-32.79,6.27,-4.41,-72.83,-5.24,-22.57,0.89,-5.21,-24.58,Forward Fall while Standing
09:39.9,404,487,730.5,999,309,2.31,432.77,1.51,20723.83,324,287,128.41,286,16488,65613,1145,0.95,-0.11,-0.47,12.15,-31.37,6.79,-6.36,-61.33,-3.64,-26.78,1.85,-3.75,-28.16,Forward Fall while Standing
09:40.0,127,461,691.5,999,293,2.49,401.37,1.43,20723.83,324,287,128.41,286,16488,82446,1432,1.02,-0.13,-0.79,3.31,-48.47,6.08,-6.52,-50.34,-3.15,-33.08,2.7,-3.29,-33.77,Forward Fall while Standing
09:40.2,168,442,663,999,297,2.44,409.09,1.45,20723.83,324,287,128.41,286,16488,99279,1719,0.89,-0.12,-0.64,6.95,-26.95,11.05,-6.89,-52.36,-2.21,-36.73,4.2,-2.4,-37.36,Forward Fall while Standing
09:40.3,546,448,672,999,311,2.29,436.8,1.52,20723.83,324,287,128.41,286,16488,116112,2006,0.84,-0.17,-0.68,-3.44,-29.4,8.29,-9.72,-48.65,-2.57,-40.69,5.34,-2.86,-41.01,Forward Fall while Standing
09:40.4,703,463,694.5,999,311,2.29,436.8,1.52,20723.83,324,287,128.41,286,16488,132945,2293,0.84,-0.17,-0.74,-7.62,-31.64,8.51,-9.1,-46.23,-3.46,-44.93,6.51,-3.69,-44.98,Forward Fall while Standing
09:40.5,683,475,712.5,999,305,2.35,424.79,1.49,20723.83,324,287,128.41,286,16488,149778,2580,0.79,-0.19,-0.75,-7.69,-21.63,8.42,-10.22,-43.93,-4.35,-47.88,7.66,-4.59,-47.72,Forward Fall while Standing
09:40.7,723,488,732,999,312,2.28,438.82,1.52,153.01,308,287,129.08,286,16660,0,0,0.72,-0.21,-0.78,-1.83,-28.23,2.38,-12.04,-40.08,-4.51,-51.66,8.06,-4.81,-51.2,Forward Fall while Standing
09:40.8,830,505,757.5,999,319,2.21,453.13,1.56,153.01,308,287,129.08,286,16660,16833,287,0.62,-0.18,-0.8,-8.51,-26.49,-0.87,-10.85,-35.27,-5.51,-55.22,8.05,-5.72,-54.42,Forward Fall while Standing
09:40.9,744,517,775.5,999,319,2.21,453.13,1.56,153.01,308,287,129.08,286,16660,33666,574,0.59,-0.2,-0.87,2.47,-26.11,1.28,-11.18,-31.97,-5.12,-58.76,8.31,-5.37,-57.69,Forward Fall while Standing
09:41.0,691,525,787.5,999,324,2.16,463.52,1.58,153.01,308,287,129.08,286,16660,50499,861,0.48,-0.19,-0.85,2.53,-16.31,2.88,-11.55,-27.29,-4.74,-61.03,8.77,-5.01,-59.68,Forward Fall while Standing
09:41.2,742,534,801,999,331,2.09,478.32,1.62,153.01,308,287,129.08,286,16660,67332,1148,0.56,-0.19,-0.96,-4.3,-14.02,4.34,-10.5,-28.07,-5.21,-63.04,9.41,-5.42,-61.64,Forward Fall while Standing
09:41.3,662,539,808.5,999,323,2.17,461.43,1.58,153.01,308,287,129.08,286,16660,84165,1435,0.47,-0.21,-0.91,-0.85,-12.25,5.31,-12.21,-25.14,-5.24,-64.83,10.17,-5.52,-63.24,Forward Fall while Standing
09:41.4,279,529,793.5,999,306,2.34,426.78,1.5,153.01,308,287,129.08,286,16660,100998,1722,0.48,-0.22,-0.98,-1.98,-13.27,3.31,-11.87,-24.08,-5.42,-66.76,10.69,-5.68,-65.05,Forward Fall while Standing
09:41.5,230,517,775.5,999,310,2.3,434.78,1.52,153.01,308,287,129.08,286,16660,117831,2009,0.43,-0.22,-0.97,-5.32,-13.32,7.37,-12.52,-21.81,-6.02,-68.67,11.71,-6.28,-66.8,Forward Fall while Standing
09:41.7,586,520,780,999,321,2.19,457.26,1.57,153.01,308,287,129.08,286,16660,134664,2296,0.4,-0.24,-0.95,0.13,-12.16,6.06,-13.8,-20.84,-5.93,-70.46,12.57,-6.25,-68.47,Forward Fall while Standing
09:41.8,701,526,789,999,321,2.19,457.26,1.57,153.01,308,288,129.08,286,16660,152072,2584,0.31,-0.23,-0.93,-1.73,-7.83,-0.9,-13.62,-16.49,-6.08,-71.69,12.56,-6.38,-69.49,Forward Fall while Standing
09:41.9,501,525,787.5,999,317,2.23,449.01,1.55,20723.91,319,287,129.96,287,16889,0,0,0.28,-0.24,-0.94,1.63,-0.51,2.65,-14.21,-14.81,-5.81,-72.01,12.99,-6.14,-69.72,Forward Fall while Standing
09:42.0,548,526,789,999,326,2.14,467.72,1.59,20723.91,319,287,129.96,287,16889,16833,287,0.37,-0.26,-0.99,0.12,0.1,-0.28,-14.15,-18.35,-5.72,-72.25,13.05,-6.06,-70.09,Forward Fall while Standing
09:42.2,761,534,801,999,333,2.07,482.61,1.63,20723.91,319,287,129.96,287,16889,33666,574,0.35,-0.25,-1,-0.6,-1.9,-1.41,-13.69,-17.06,-5.73,-72.74,12.97,-6.04,-70.51,Forward Fall while Standing
09:42.3,562,535,802.5,999,325,2.15,465.62,1.59,20723.91,319,287,129.96,287,16889,50499,861,0.36,-0.24,-1.01,-1.02,-4.24,-0.6,-13.3,-17.65,-5.78,-73.52,13,-6.08,-71.29,Forward Fall while Standing
09:42.4,399,530,795,999,322,2.18,459.34,1.57,20723.91,319,287,129.96,287,16889,67332,1148,0.35,-0.26,-1.01,-1.57,2.33,-0.66,-14.28,-16.86,-5.91,-73.48,13.01,-6.25,-71.22,Forward Fall while Standing
09:42.5,370,526,789,999,325,2.15,465.62,1.59,20723.91,319,287,129.96,287,16889,84165,1435,0.36,-0.26,-0.98,-2.85,-3.05,-3.76,-14.76,-17.79,-6.2,-74.12,12.64,-6.54,-71.87,Forward Fall while Standing
09:42.7,440,523,784.5,999,324,2.16,463.52,1.58,20723.91,319,287,129.96,287,16889,100998,1722,0.32,-0.23,-1,-2.4,-3.15,-3.94,-13.06,-15.64,-6.43,-74.77,12.24,-6.7,-72.4,Forward Fall while Standing
09:42.8,270,516,774,999,311,2.29,436.8,1.52,20723.91,319,287,129.96,287,16889,117831,2009,0.33,-0.24,-1.02,-3.81,-1.92,-0.69,-13.09,-15.89,-6.84,-75.26,12.26,-7.09,-72.89,Forward Fall while Standing
09:42.9,198,508,762,999,311,2.29,436.8,1.52,20723.91,319,287,129.96,287,16889,134664,2296,0.33,-0.23,-1.01,-5.36,-2.79,-0.26,-12.66,-16.34,-7.45,-75.87,12.32,-7.65,-73.48,Forward Fall while Standing
09:43.1,375,504,756,999,313,2.27,440.85,1.53,20723.91,319,288,129.96,287,16889,152072,2584,0.3,-0.23,-1,-4.98,-5.97,0.6,-12.94,-14.68,-8,-76.87,12.5,-8.2,-74.38,Forward Fall while Standing
09:43.2,606,507,760.5,999,306,2.34,426.78,1.5,20724.24,319,288,130.18,287,16947,0,0,0.3,-0.22,-1.05,-2.82,-1.79,-0.1,-12,-14.23,-8.29,-77.34,12.58,-8.43,-74.82,Forward Fall while Standing
09:43.3,429,505,757.5,999,320,2.2,455.19,1.56,20724.24,319,287,130.18,287,16947,16833,287,0.31,-0.22,-1.05,-3.22,-2.85,-2.63,-12.17,-14.44,-8.62,-77.96,12.35,-8.76,-75.42,Forward Fall while Standing
09:43.4,692,509,763.5,999,342,1.99,502.2,1.67,20724.24,319,286,130.18,287,16947,33093,573,0.28,-0.22,-1.01,-3.01,-1.99,-2.05,-12.25,-13.7,-8.93,-78.45,12.2,-9.06,-75.86,Forward Fall while Standing
09:43.6,638,512,768,999,345,1.97,508.85,1.69,20724.24,319,286,130.18,287,16947,49353,859,0.27,-0.21,-1.02,-2.5,0.16,-1.15,-11.96,-13.12,-9.17,-78.69,12.15,-9.28,-76.06,Forward Fall while Standing
09:43.7,409,510,765,999,338,2.03,493.43,1.65,20724.24,319,285,130.18,287,16947,65042,1144,0.28,-0.23,-1.02,-4.63,-2.13,-1.51,-12.65,-13.39,-9.69,-79.21,12.06,-9.8,-76.57,Forward Fall while Standing
09:43.8,451,509,763.5,999,343,1.98,504.41,1.68,20724.24,319,285,130.18,287,16947,80731,1429,0.28,-0.21,-1.01,-0.63,-0.62,-2.29,-12.01,-13.36,-9.69,-79.54,11.87,-9.79,-76.89,Forward Fall while Standing
09:43.9,562,510,765,999,347,1.95,513.31,1.7,20724.24,319,285,130.18,287,16947,96420,1714,0.26,-0.21,-1.01,-2.77,1.19,-1.09,-12.08,-12.67,-9.97,-79.64,11.83,-10.06,-76.96,Forward Fall while Standing
09:44.1,424,508,762,999,341,2,500,1.67,20724.24,319,285,130.18,287,16947,112109,1999,0.27,-0.21,-1.02,-1.6,-0.08,-2.34,-12.06,-13.04,-10.1,-79.9,11.64,-10.18,-77.23,Forward Fall while Standing
09:44.2,407,506,759,999,344,1.97,506.63,1.68,20724.24,319,285,130.18,287,16947,127798,2284,0.28,-0.2,-1.02,-2.33,0.56,-3.31,-11.51,-13.26,-10.33,-80.08,11.32,-10.37,-77.41,Forward Fall while Standing
09:44.3,622,508,762,999,352,1.91,524.59,1.72,20724.24,319,285,130.18,287,16947,143487,2569,0.27,-0.22,-1.05,-2.32,5.25,-2.95,-12.11,-12.57,-10.55,-79.67,11.04,-10.61,-76.99,Forward Fall while Standing
09:44.4,648,511,766.5,999,343,1.98,504.41,1.68,20723.96,341,285,126.16,285,15916,0,0,0.29,-0.22,-1.04,-1.18,6.81,-3.48,-11.91,-13.54,-10.63,-79.07,10.71,-10.68,-76.45,Forward Fall while Standing
09:44.6,466,510,765,999,341,2,500,1.67,20723.96,341,285,126.16,285,15916,15689,285,0.3,-0.2,-1.08,-5.21,14.22,-3.58,-10.52,-13.84,-11.21,-77.53,10.36,-11.19,-74.98,Forward Fall while Standing
09:44.7,567,511,766.5,999,350,1.92,520.06,1.71,20723.96,341,285,126.16,285,15916,31378,570,0.34,-0.2,-0.98,-2.28,12.04,-3.39,-11.51,-17.38,-11.43,-76.26,10.03,-11.43,-73.91,Forward Fall while Standing
09:44.8,833,517,775.5,999,335,2.05,486.92,1.64,20723.96,341,285,126.16,285,15916,47067,855,0.35,-0.2,-1.02,1.29,11.34,-3.76,-11.15,-17.05,-11.2,-75.09,9.65,-11.2,-72.77,Forward Fall while Standing
09:44.9,498,517,775.5,999,314,2.26,442.88,1.53,20723.96,341,285,126.16,285,15916,62756,1140,0.38,-0.2,-1.02,-6.69,7.4,1.04,-10.95,-18.32,-11.97,-74.41,9.89,-11.93,-72.16,Forward Fall while Standing
09:45.1,152,510,765,999,307,2.33,428.77,1.5,20723.96,341,286,126.16,285,15916,79016,1426,0.38,-0.2,-1.01,-2.13,5.02,-1.51,-11.21,-18.93,-12.17,-74.03,9.79,-12.13,-71.82,Forward Fall while Standing
09:45.2,310,507,760.5,999,309,2.31,432.77,1.51,20723.96,341,287,126.16,285,15916,95849,1713,0.41,-0.19,-1,-4.76,5.08,-0.22,-10.68,-20.47,-12.7,-73.64,9.87,-12.62,-71.51,Forward Fall while Standing
09:45.3,319,503,754.5,999,301,2.4,416.9,1.47,20723.96,341,287,126.16,285,15916,112682,2000,0.41,-0.2,-0.99,-3.44,8.33,-2.65,-11.21,-20.28,-13.06,-72.84,9.63,-12.99,-70.74,Forward Fall while Standing
09:45.4,367,501,751.5,999,301,2.4,416.9,1.47,20723.96,341,287,126.16,285,15916,129515,2287,0.44,-0.19,-0.98,-4.34,10.44,-1.81,-10.42,-22.03,-13.54,-71.78,9.5,-13.41,-69.79,Forward Fall while Standing
09:45.6,550,502,753,999,309,2.31,432.77,1.51,20723.96,341,287,126.16,285,15916,146348,2574,0.44,-0.17,-0.97,2.9,11.01,-5.09,-9.91,-22.41,-13.1,-70.64,8.96,-12.97,-68.71,Forward Fall while Standing
09:45.7,541,502,753,999,303,2.38,420.83,1.48,95.04,317,287,127.74,286,16317,0,0,0.45,-0.23,-0.98,3.44,11.19,-1.98,-12.78,-22.67,-12.6,-69.5,8.81,-12.61,-67.62,Forward Fall while Standing
09:45.8,396,501,751.5,999,290,2.53,395.63,1.42,95.04,317,287,127.74,286,16317,16833,287,0.45,-0.17,-0.96,1.47,11.93,-3.09,-9.89,-22.9,-12.35,-68.26,8.52,-12.25,-66.45,Forward Fall while Standing
09:45.9,313,497,745.5,999,291,2.52,397.54,1.42,95.04,317,287,127.74,286,16317,33666,574,0.57,-0.2,-1.02,-2.08,8.07,2.84,-10.34,-27.19,-12.54,-67.5,8.98,-12.45,-65.89,Forward Fall while Standing
09:46.1,453,497,745.5,999,297,2.44,409.09,1.45,95.04,317,288,127.74,286,16317,51074,862,0.5,-0.2,-0.92,-0.8,16.24,-2.11,-11.62,-26.54,-12.57,-65.72,8.82,-12.53,-64.15,Forward Fall while Standing
09:46.2,585,498,747,999,296,2.46,407.15,1.45,95.04,317,288,127.74,286,16317,68482,1150,0.49,-0.2,-0.93,-4.36,2.56,1.24,-11.62,-25.54,-13.05,-65.65,9.07,-12.99,-64.05,Forward Fall while Standing
09:46.3,483,498,747,999,288,2.55,391.84,1.41,95.04,317,288,127.74,286,16317,85890,1438,0.56,-0.19,-0.88,1.51,10.21,3.18,-11.01,-30.12,-12.79,-64.62,9.57,-12.71,-63.24,Forward Fall while Standing
09:46.4,467,497,745.5,999,291,2.52,397.54,1.42,95.04,317,287,127.74,286,16317,102723,1725,0.53,-0.24,-0.92,-0.41,1.47,-0.11,-13.16,-27.71,-12.77,-64.68,9.65,-12.78,-63.2,Forward Fall while Standing
09:46.6,622,499,748.5,999,296,2.46,407.15,1.45,95.04,317,288,127.74,286,16317,120131,2013,0.53,-0.22,-0.89,-1.65,6.92,-3.85,-12.34,-28.52,-12.9,-64.06,9.27,-12.88,-62.64,Forward Fall while Standing
09:46.7,839,504,756,999,286,2.58,388.06,1.4,95.04,317,288,127.74,286,16317,137539,2301,0.53,-0.22,-0.93,1.01,2.17,-1.24,-12.35,-27.58,-12.71,-64.04,9.21,-12.69,-62.58,Forward Fall while Standing
09:46.8,478,504,756,999,287,2.56,389.95,1.4,95.04,317,288,127.74,286,16317,154947,2589,0.55,-0.22,-0.92,-3.03,2.84,-1.95,-12.15,-28.58,-13.02,-63.94,9.06,-12.98,-62.52,Forward Fall while Standing
09:46.9,673,506,759,999,298,2.43,411.03,1.46,140.52,292,287,131.06,287,17177,0,0,0.57,-0.22,-0.9,-1.79,4.05,0.08,-12.39,-29.75,-13.17,-63.68,9.17,-13.14,-62.32,Forward Fall while Standing
09:47.1,722,509,763.5,999,300,2.41,414.94,1.47,140.52,292,288,131.06,287,17177,17408,288,0.57,-0.23,-0.89,2.91,9.55,-4.15,-12.78,-30.01,-12.74,-62.74,8.75,-12.74,-61.43,Forward Fall while Standing
09:47.2,500,509,763.5,999,288,2.55,391.84,1.41,140.52,292,287,131.06,287,17177,34241,575,0.59,-0.22,-0.95,-4.37,5.31,-5.11,-11.88,-29.4,-13.21,-62.32,8.21,-13.16,-61.01,Forward Fall while Standing
09:47.3,355,507,760.5,999,285,2.59,386.18,1.39,140.52,292,288,131.06,287,17177,51649,863,0.6,-0.2,-0.92,-7.72,9.25,-4.41,-10.95,-30.92,-14.11,-61.41,7.76,-13.99,-60.19,Forward Fall while Standing
09:47.5,385,505,757.5,999,292,2.5,399.45,1.43,140.52,292,287,131.06,287,17177,68482,1150,0.62,-0.2,-0.85,-6.73,17.37,-4.57,-11.38,-33.71,-14.89,-59.47,7.28,-14.75,-58.44,Forward Fall while Standing
09:47.6,453,505,757.5,999,289,2.54,393.73,1.41,140.52,292,288,131.06,287,17177,85890,1438,0.63,-0.19,-0.87,-9.56,16.78,-3.96,-10.62,-33.61,-16.03,-57.61,6.88,-15.81,-56.65,Forward Fall while Standing
09:47.7,344,503,754.5,999,278,2.68,373.15,1.36,140.52,292,287,131.06,287,17177,102723,1725,0.67,-0.16,-0.81,-7.03,16.95,-4.53,-9.37,-37.34,-16.84,-55.73,6.41,-16.54,-54.99,Forward Fall while Standing
09:47.8,404,501,751.5,999,287,2.56,389.95,1.4,140.52,292,287,131.06,287,17177,119556,2012,0.71,-0.15,-0.79,-0.55,15.21,-9.82,-8.6,-39.64,-16.84,-54.08,5.28,-16.51,-53.5,Forward Fall while Standing
09:48.0,490,501,751.5,999,293,2.49,401.37,1.43,140.52,292,288,131.06,287,17177,136964,2300,0.73,-0.16,-0.79,4.66,23.66,-9.15,-8.87,-40.85,-16.19,-51.37,4.23,-15.89,-50.95,Forward Fall while Standing
09:48.1,602,502,753,999,283,2.61,382.43,1.38,140.52,292,288,131.06,287,17177,154372,2588,0.77,-0.16,-0.75,3.11,20.3,-8.42,-9.02,-43.72,-15.72,-49.06,3.27,-15.46,-48.85,Forward Fall while Standing
09:48.2,440,502,753,999,280,2.65,376.85,1.37,130.99,287,288,131.06,287,17177,0,0,0.81,-0.15,-0.72,-0.02,21,-10.09,-8.61,-46.2,-15.66,-46.71,2.12,-15.38,-46.69,Forward Fall while Standing
09:48.3,346,500,750,999,287,2.56,389.95,1.4,130.99,287,287,131.06,287,17177,16833,287,1,-0.1,-0.78,-4.69,28.71,-12.25,-4.97,-50.27,-16.18,-43.34,0.68,-15.73,-43.62,Forward Fall while Standing
09:48.5,429,499,748.5,999,292,2.5,399.45,1.43,130.99,287,288,131.06,287,17177,34241,575,0.91,-0.12,-0.64,2.13,34.82,-15.15,-6.86,-52.78,-15.84,-39.21,-1.13,-15.48,-39.75,Forward Fall while Standing
09:48.6,289,496,744,999,286,2.58,388.06,1.4,130.99,287,287,131.06,287,17177,51074,862,0.94,-0.07,-0.57,-3,31.9,-16.3,-4.47,-57.22,-16.14,-35.47,-3.07,-15.68,-36.34,Forward Fall while Standing
09:48.7,184,492,738,999,311,2.29,436.8,1.52,130.99,287,286,131.06,287,17177,67334,1148,0.91,-0.02,-0.5,-6.3,29.9,-20.56,-1.85,-59.33,-16.87,-31.92,-5.58,-16.27,-33.02,Forward Fall while Standing
09:48.8,785,496,744,999,326,2.14,467.72,1.59,130.99,287,286,131.06,287,17177,83594,1434,0.74,0.01,-0.3,-2.09,35.64,3.74,0.05,-66.67,-17.07,-27.69,-5.01,-16.38,-29.24,Forward Fall while Standing
09:49.0,654,498,747,999,304,2.37,422.81,1.49,130.99,287,286,131.06,287,17177,99854,1720,0.93,-0.05,-0.37,-11.21,42.89,3.08,-3.56,-66.65,-18.4,-22.57,-4.53,-17.8,-24.34,Forward Fall while Standing
09:49.1,576,499,748.5,999,295,2.47,405.22,1.44,130.99,287,286,131.06,287,17177,116114,2006,0.92,-0.04,-0.25,-10.05,18.31,6.56,-2.89,-73.34,-19.59,-20.52,-3.6,-18.93,-22.63,Forward Fall while Standing
09:49.2,730,501,751.5,999,301,2.4,416.9,1.47,130.99,287,286,131.06,287,17177,132374,2292,1.13,-0.15,-0.12,2.51,29.76,24.27,-8.23,-78.82,-19.21,-17.02,-0.44,-18.77,-19.49,Forward Fall while Standing
09:49.3,420,500,750,999,300,2.41,414.94,1.47,130.99,287,287,131.06,287,17177,149207,2579,1.22,-0.03,-0.44,3.56,24.85,12.46,-2.03,-68.54,-18.69,-14.14,1.23,-18.02,-16.32,Forward Fall while Standing
09:49.5,464,500,750,999,285,2.59,386.18,1.39,131.45,298,286,128.63,286,16545,0,0,1.05,-0.15,-0.07,-4.94,-5.61,6.75,-8.68,-79.46,-19.23,-15.09,2.16,-18.81,-17.66,Forward Fall while Standing
09:49.6,488,500,750,999,281,2.64,378.71,1.37,131.45,298,286,128.63,286,16545,16260,286,1.05,-0.18,-0.09,-0.69,7.23,-3.54,-10.44,-77.4,-19.25,-14.43,1.81,-18.89,-16.95,Forward Fall while Standing
09:49.7,454,499,748.5,999,288,2.55,391.84,1.41,131.45,298,286,128.63,286,16545,32520,572,1.03,-0.17,-0.13,-3.46,4.22,-7.24,-9.88,-76.63,-19.61,-14.15,1.01,-19.22,-16.65,Forward Fall while Standing
09:49.8,596,500,750,999,287,2.56,389.95,1.4,131.45,298,287,128.63,286,16545,49353,859,0.95,-0.11,-0.13,-11.11,6.12,-1.59,-7.2,-78.11,-20.93,-13.63,0.91,-20.38,-16.21,Forward Fall while Standing
09:50.0,269,498,747,999,277,2.69,371.31,1.35,131.45,298,287,128.63,286,16545,66186,1146,1.01,-0.14,-0.11,-9.44,4.45,2.91,-8.22,-78.6,-22.05,-13.32,1.37,-21.49,-15.94,Forward Fall while Standing
09:50.1,359,496,744,999,284,2.6,384.3,1.39,131.45,298,287,128.63,286,16545,83019,1433,1.03,-0.15,-0.04,-4.42,14.16,-1.81,-8.85,-79.86,-22.52,-11.82,1.25,-21.98,-14.54,Forward Fall while Standing
09:50.2,450,496,744,999,294,2.48,403.29,1.44,131.45,298,287,128.63,286,16545,99852,1720,1.01,-0.12,-0.04,-4.82,5.44,-1.08,-7.15,-81.48,-23.06,-11.38,1.21,-22.42,-14.19,Forward Fall while Standing
09:50.3,458,496,744,999,290,2.53,395.63,1.42,131.45,298,287,128.63,286,16545,116685,2007,1.08,-0.14,-0.03,-1.69,0.02,1.15,-7.73,-81.15,-23.2,-11.63,1.45,-22.58,-14.41,Forward Fall while Standing
09:50.5,456,495,742.5,999,281,2.64,378.71,1.37,131.45,298,286,128.63,286,16545,132945,2293,1.02,-0.14,-0.03,5.47,4.3,2.44,-8.26,-80.6,-22.45,-11.35,1.86,-21.88,-14.12,Forward Fall while Standing
09:50.6,415,494,741,999,287,2.56,389.95,1.4,131.45,298,286,128.63,286,16545,149205,2579,1.03,-0.14,-0.04,2.67,1.05,1.21,-8.33,-80.38,-22.04,-11.47,2.11,-21.49,-14.22,Forward Fall while Standing
09:50.7,331,493,739.5,999,293,2.49,401.37,1.43,128.07,286,287,128.85,286,16602,0,0,1.03,-0.15,-0.06,-0.31,1.15,-1.27,-8.79,-79.66,-22.01,-11.57,2.05,-21.48,-14.29,Forward Fall while Standing
09:50.8,307,491,736.5,999,287,2.56,389.95,1.4,128.07,286,287,128.85,286,16602,16833,287,1.02,-0.14,-0.05,2.24,2.04,-1.9,-8.53,-80.02,-21.66,-11.57,1.91,-21.14,-14.3,Forward Fall while Standing
09:51.0,326,484,726,999,278,2.68,373.15,1.36,128.07,286,287,128.85,286,16602,33666,574,1.01,-0.14,-0.04,0.95,-0.11,-0.63,-8.46,-80.21,-21.47,-11.83,1.93,-20.95,-14.56,Forward Fall while Standing
09:51.1,336,478,717,999,286,2.58,388.06,1.4,128.07,286,286,128.85,286,16602,49926,860,1.01,-0.13,-0.07,-0.82,-1.89,-0.61,-7.9,-80.21,-21.51,-12.32,1.95,-20.96,-15.03,Forward Fall while Standing
09:51.2,362,474,711,999,292,2.5,399.45,1.43,128.07,286,286,128.85,286,16602,66186,1146,1.01,-0.15,-0.03,1.55,4.31,0.25,-8.8,-80.08,-21.24,-12.03,2.08,-20.74,-14.75,Forward Fall while Standing
09:51.3,488,474,711,999,284,2.6,384.3,1.39,128.07,286,287,128.85,286,16602,83019,1433,1,-0.15,-0.01,4.54,2.73,-0.01,-8.91,-80.08,-20.6,-11.94,2.18,-20.13,-14.66,Forward Fall while Standing
09:51.5,538,476,714,999,278,2.68,373.15,1.36,128.07,286,286,128.85,286,16602,99279,1719,1.01,-0.14,-0.02,18.45,19.05,0.58,-8.29,-80.64,-18.23,-9.8,2.35,-17.83,-12.64,Forward Fall while Standing
09:51.6,573,478,717,999,286,2.58,388.06,1.4,128.07,286,286,128.85,286,16602,115539,2005,1.02,-0.15,0.04,23.81,28.44,-3.34,-9.18,-79.51,-15.16,-6.47,2.03,-14.92,-9.4,Forward Fall while Standing
09:51.7,582,481,721.5,999,291,2.52,397.54,1.42,128.07,286,287,128.85,286,16602,132372,2292,1.08,-0.13,0.01,36.15,23.12,-11.64,-7.29,-81.7,-10.57,-3.83,0.67,-10.44,-6.95,Forward Fall while Standing
10:03.5,620,620,930,620,308,2.32,430.77,1.51,0,0,285,0,0,0,31949,571,1.01,-0.04,0.08,4.81,1.32,-0.64,-3.05,-83.48,-0.39,-1.92,1.6,-0.49,-5.18,Sitting
10:03.7,593,606,909,620,311,2.29,436.8,1.52,0,0,285,0,0,0,47638,856,1.01,-0.04,0.07,-16.33,-4.5,-2.84,-3.01,-83.56,-2.33,-2.72,1.35,-2.35,-5.95,Sitting
10:03.8,550,587,880.5,620,312,2.28,438.82,1.52,0,0,285,0,0,0,63327,1141,0.99,-0.08,0.21,3.99,6.14,2.13,-4.83,-75.65,-1.77,-2.21,1.71,-1.89,-5.15,Sitting
10:03.9,599,590,885,620,312,2.28,438.82,1.52,0,0,285,0,0,0,79016,1426,1.03,-0.07,0.14,-1.34,2.08,0.79,-4.65,-79.69,-1.86,-2.2,1.9,-1.97,-5.3,Sitting
10:04.0,542,580,870,620,312,2.28,438.82,1.52,0,0,285,0,0,0,94705,1711,1,-0.03,0.08,-3.66,4.42,-8.44,-2.28,-83.49,-2.24,-1.9,0.96,-2.24,-5.17,Sitting
10:04.1,536,573,859.5,620,309,2.31,432.77,1.51,0,0,285,0,0,0,110394,1996,0.98,-0.03,0.13,-12.02,-1.79,-8.27,-2.04,-80.66,-3.63,-2.36,0.05,-3.57,-5.49,Sitting
10:04.3,519,565,847.5,620,302,2.39,418.86,1.48,0,0,285,0,0,0,126083,2281,0.98,-0.05,0.19,-1.33,-9.96,6.24,-3.57,-76.93,-3.72,-3.85,0.93,-3.72,-6.77,Sitting
10:04.4,524,560,840,620,297,2.44,409.09,1.45,0,0,285,0,0,0,141772,2566,1.04,-0.07,0.13,-3.6,-12.56,2.77,-4.65,-80.25,-4.09,-5.62,1.36,-4.12,-8.61,Sitting
10:04.5,537,557,835.5,620,296,2.46,407.15,1.45,169.74,307,285,125.48,285,15745,0,0,1.02,-0.02,0.02,5.91,-1.6,-5.24,-1.91,-86.57,-3.29,-6.07,0.81,-3.24,-9.29,Sitting
10:04.6,449,546,819,620,299,2.42,412.98,1.46,169.74,307,285,125.48,285,15745,15689,285,0.99,-0.03,0.08,0.29,7.58,-7.67,-2.25,-83.59,-3.19,-5.37,-0.05,-3.15,-8.5,Sitting
10:04.8,439,537,805.5,620,303,2.38,420.83,1.48,169.74,307,285,125.48,285,15745,31378,570,0.99,-0.01,0.22,5.67,9,-4.5,-1.39,-75.76,-2.41,-4.5,-0.51,-2.37,-7.35,Sitting
10:04.9,682,549,823.5,682,303,2.38,420.83,1.48,169.74,307,285,125.48,285,15745,47067,855,1.04,-0.01,0.07,-3.06,1.87,2.61,-1.35,-84.65,-2.73,-4.52,-0.09,-2.67,-7.72,Sitting
10:05.0,511,546,819,682,298,2.43,411.03,1.46,169.74,307,285,125.48,285,15745,62756,1140,1,-0.02,0.11,-0.67,1.18,-6.68,-1.86,-81.75,-2.74,-4.62,-0.82,-2.7,-7.71,Sitting
10:05.1,518,544,816,682,300,2.41,414.94,1.47,169.74,307,285,125.48,285,15745,78445,1425,1,0.02,0.07,-1.26,10.21,-3.76,0.28,-84.35,-2.83,-3.6,-1.19,-2.7,-6.83,Sitting
10:05.3,470,539,808.5,682,307,2.33,428.77,1.5,169.74,307,285,125.48,285,15745,94134,1710,1.01,0,0.1,-9.52,3.79,-3.67,-0.77,-82.69,-3.95,-3.37,-1.55,-3.82,-6.54,Sitting
10:05.4,552,540,810,682,311,2.29,436.8,1.52,169.74,307,285,125.48,285,15745,109823,1995,0.99,0.01,0.15,-2.07,12.4,-7.81,-0.29,-79.62,-4.14,-2.07,-2.43,-3.98,-5.17,Sitting
10:05.5,450,534,801,682,303,2.38,420.83,1.48,169.74,307,285,125.48,285,15745,125512,2280,0.97,0.01,0.18,5.07,8.93,-0.4,0.16,-77.86,-3.43,-1.2,-2.38,-3.29,-4.27,Sitting
10:05.6,512,533,799.5,682,301,2.4,416.9,1.47,169.74,307,285,125.48,285,15745,141201,2565,1.01,0,0.22,1.96,-2.34,0.2,-0.48,-76.11,-3.12,-1.74,-2.26,-3.01,-4.72,Sitting
10:05.8,378,525,787.5,682,307,2.33,428.77,1.5,162.51,303,285,125.26,285,15688,0,0,0.99,0.02,0.19,3.96,-3.9,-0.58,0.53,-77.74,-2.56,-2.47,-2.23,-2.44,-5.48,Sitting
10:05.9,430,520,780,682,311,2.29,436.8,1.52,162.51,303,285,125.26,285,15688,15689,285,0.99,0.02,0.17,4.42,-5.94,-0.39,0.4,-78.68,-1.95,-3.45,-2.18,-1.85,-6.46,Sitting
10:06.0,493,519,778.5,682,310,2.3,434.78,1.52,162.51,303,285,125.26,285,15688,31378,570,1.01,0.03,0.11,1.66,-3.08,-1.04,1.04,-81.99,-1.67,-4.09,-2.21,-1.56,-7.2,Sitting
10:06.1,499,518,777,682,303,2.38,420.83,1.48,162.51,303,285,125.26,285,15688,47067,855,0.98,0.03,0.12,1.27,-0.85,0.29,1.03,-81.06,-1.44,-4.44,-2.08,-1.34,-7.51,Sitting
10:06.3,554,519,778.5,682,302,2.39,418.86,1.48,162.51,303,285,125.26,285,15688,62756,1140,1.01,0.01,0.12,-1.92,0.49,-0.95,0.2,-81.57,-1.61,-4.63,-2.1,-1.54,-7.71,Sitting
10:06.4,500,519,778.5,682,307,2.33,428.77,1.5,162.51,303,285,125.26,285,15688,78445,1425,0.98,0.03,0.13,-3.32,1.35,-0.92,0.89,-80.74,-1.95,-4.71,-2.11,-1.84,-7.75,Sitting
10:06.5,520,519,778.5,682,312,2.28,438.82,1.52,162.51,303,285,125.26,285,15688,94134,1710,1.01,0.01,0.13,-3.65,-0.31,0,-0.03,-81.18,-2.34,-5,-2.01,-2.25,-8.05,Sitting
10:06.6,542,519,778.5,682,308,2.32,430.77,1.51,162.51,303,285,125.26,285,15688,109823,1995,1,0.02,0.12,-1.96,-1.17,-2.64,0.54,-81.39,-2.51,-5.39,-2.24,-2.39,-8.43,Sitting
10:06.8,563,521,781.5,682,301,2.4,416.9,1.47,162.51,303,285,125.26,285,15688,125512,2280,0.99,0.02,0.12,-0.56,-0.05,0.31,0.52,-81.46,-2.51,-5.65,-2.11,-2.39,-8.68,Sitting
10:06.9,517,521,781.5,682,305,2.35,424.79,1.49,162.51,303,285,125.26,285,15688,141201,2565,1.01,0.01,0.12,-2.5,-1.43,-0.73,0.07,-81.89,-2.76,-6.08,-2.1,-2.64,-9.11,Sitting
10:07.0,434,518,777,682,311,2.29,436.8,1.52,169.49,307,285,125.26,285,15688,0,0,1,0.02,0.09,-1.42,-0.1,-1.9,0.41,-82.91,-2.86,-6.33,-2.23,-2.73,-9.4,Sitting
10:07.1,490,517,775.5,682,311,2.29,436.8,1.52,169.49,307,285,125.26,285,15688,15689,285,1,0.02,0.11,-0.33,1.84,0.2,0.56,-82.16,-2.83,-6.35,-2.11,-2.7,-9.38,Sitting
10:07.3,475,516,774,682,305,2.35,424.79,1.49,169.49,307,285,125.26,285,15688,31378,570,1.02,0.02,0.12,0.27,0.78,-1.18,0.4,-81.61,-2.73,-6.5,-2.16,-2.61,-9.51,Sitting
10:07.4,570,517,775.5,682,301,2.4,416.9,1.47,169.49,307,285,125.26,285,15688,47067,855,1,0.02,0.1,-2.47,0.82,-0.78,0.77,-82.82,-2.97,-6.65,-2.16,-2.82,-9.7,Sitting
10:07.5,530,518,777,682,306,2.34,426.78,1.5,169.49,307,285,125.26,285,15688,62756,1140,1,0.01,0.12,-2.6,1.5,-0.27,-0.05,-81.81,-3.22,-6.71,-2.09,-3.1,-9.72,Sitting
10:07.6,524,518,777,682,312,2.28,438.82,1.52,169.49,307,285,125.26,285,15688,78445,1425,1,0.01,0.12,-2.43,1.8,0.29,-0.22,-81.7,-3.46,-6.74,-1.96,-3.33,-9.74,Sitting
10:07.7,456,516,774,682,312,2.28,438.82,1.52,169.49,307,285,125.26,285,15688,94134,1710,1.02,0.01,0.11,-3.45,0.72,-1.62,-0.24,-82.11,-3.81,-6.9,-2.06,-3.67,-9.9,Sitting
10:07.9,499,516,774,682,306,2.34,426.78,1.5,169.49,307,285,125.26,285,15688,109823,1995,0.98,0.02,0.11,-3.19,1.82,-0.49,0.38,-81.96,-4.14,-6.92,-2.02,-3.96,-9.92,Sitting
10:08.0,524,516,774,682,307,2.33,428.77,1.5,169.49,307,285,125.26,285,15688,125512,2280,1.01,0,0.12,-0.4,1.64,0.61,-0.79,-81.63,-4.12,-6.96,-1.85,-3.99,-9.95,Sitting
10:08.1,494,515,772.5,682,314,2.26,442.88,1.53,169.49,307,285,125.26,285,15688,141201,2565,1.01,0.01,0.13,-0.48,1.47,-4.73,0.19,-81.06,-4.11,-7.03,-2.34,-3.94,-9.99,Sitting
10:08.2,532,516,774,682,316,2.24,446.96,1.54,129.83,309,285,125.26,285,15688,0,0,0.99,0.02,0.11,-1.13,1.4,2.25,0.58,-81.85,-4.18,-7.1,-1.97,-3.99,-10.09,Sitting
10:08.4,506,515,772.5,682,312,2.28,438.82,1.52,129.83,309,285,125.26,285,15688,15689,285,1.03,-0.01,0.12,-0.14,1.11,-0.29,-1.16,-81.66,-4.13,-7.21,-1.9,-4.01,-10.19,Sitting
10:08.5,613,518,777,682,306,2.34,426.78,1.5,129.83,309,285,125.26,285,15688,31378,570,0.98,0.03,0.12,-1.76,-0.21,-2.79,1.14,-81.32,-4.28,-7.49,-2.15,-4.06,-10.44,Sitting
10:08.6,594,520,780,682,309,2.31,432.77,1.51,129.83,309,285,125.26,285,15688,47067,855,1.02,-0.02,0.13,-0.86,0.49,2.81,-1.44,-80.93,-4.32,-7.68,-1.7,-4.2,-10.61,Sitting
10:08.7,571,521,781.5,682,311,2.29,436.8,1.52,129.83,309,285,125.26,285,15688,62756,1140,1.03,0,0.13,-1.27,0.05,-2.74,-0.73,-81.2,-4.41,-7.92,-1.95,-4.26,-10.85,Sitting
10:08.9,709,525,787.5,709,307,2.33,428.77,1.5,129.83,309,285,125.26,285,15688,78445,1425,0.97,0.02,0.11,-3.3,-0.24,0.32,0.54,-82.03,-4.75,-8.2,-1.81,-4.54,-11.15,Sitting
10:09.0,490,524,786,709,297,2.44,409.09,1.45,129.83,309,285,125.26,285,15688,94134,1710,1.03,-0.01,0.11,-1.94,0.85,-0.92,-1.39,-82.08,-4.92,-8.34,-1.82,-4.78,-11.29,Sitting
10:09.1,438,522,783,709,303,2.38,420.83,1.48,129.83,309,285,125.26,285,15688,109823,1995,0.98,0.02,0.12,-2.41,1.51,-4.68,0.76,-81.2,-5.15,-8.4,-2.31,-4.92,-11.32,Sitting
10:09.2,367,519,778.5,709,312,2.28,438.82,1.52,129.83,309,285,125.26,285,15688,125512,2280,1.01,0,0.11,-4.17,0.24,3.45,-0.44,-82.18,-5.6,-8.62,-1.78,-5.4,-11.57,Sitting
10:09.4,376,516,774,709,314,2.26,442.88,1.53,129.83,309,285,125.26,285,15688,141201,2565,1.03,-0.02,0.12,-1.86,1.09,-2.02,-1.42,-81.73,-5.76,-8.74,-1.94,-5.59,-11.66,Sitting
10:09.5,405,514,771,709,306,2.34,426.78,1.5,150.37,307,285,125.26,285,15688,0,0,0.98,0.02,0.11,-1.42,1.8,-2.4,0.6,-81.8,-5.87,-8.76,-2.14,-5.61,-11.68,Sitting
10:09.6,455,513,769.5,709,305,2.35,424.79,1.49,150.37,307,285,125.26,285,15688,15689,285,1.02,-0.01,0.11,-0.73,0.51,2.34,-1.11,-82.07,-5.89,-8.95,-1.75,-5.7,-11.87,Sitting
10:09.7,439,511,766.5,709,311,2.29,436.8,1.52,150.37,307,285,125.26,285,15688,31378,570,1,0,0.12,-1.84,-0.35,-3.66,-0.76,-81.44,-6.05,-9.24,-2.1,-5.84,-12.13,Sitting
10:09.9,477,510,765,709,316,2.24,446.96,1.54,150.37,307,285,125.26,285,15688,47067,855,1,0.01,0.11,-2.24,-0.39,1.4,0,-81.85,-6.26,-9.54,-1.83,-6.01,-12.43,Sitting
10:10.0,487,510,765,709,311,2.29,436.8,1.52,150.37,307,285,125.26,285,15688,62756,1140,1.04,-0.01,0.11,-1.35,-0.64,-1.11,-1.37,-82.44,-6.36,-9.87,-1.87,-6.16,-12.77,Sitting
10:10.1,577,511,766.5,709,305,2.35,424.79,1.49,150.37,307,285,125.26,285,15688,78445,1425,0.98,0.01,0.12,-1.17,1.29,-2.44,-0.2,-81.57,-6.44,-9.96,-2.07,-6.19,-12.82,Sitting
10:10.2,524,511,766.5,709,310,2.3,434.78,1.52,150.37,307,285,125.26,285,15688,94134,1710,1.02,-0.01,0.12,-1.16,0.82,1.23,-1.36,-81.48,-6.51,-10.1,-1.82,-6.3,-12.96,Sitting
10:10.4,521,512,768,709,316,2.24,446.96,1.54,150.37,307,285,125.26,285,15688,109823,1995,1.02,-0.01,0.11,-2.24,0.52,-3.15,-0.91,-82.36,-6.72,-10.29,-2.11,-6.49,-13.17,Sitting
10:10.5,492,511,766.5,709,311,2.29,436.8,1.52,150.37,307,285,125.26,285,15688,125512,2280,0.98,0.01,0.1,-1.69,1.01,-0.4,-0.17,-82.4,-6.86,-10.41,-2.06,-6.6,-13.29,Sitting
10:10.6,568,512,768,709,306,2.34,426.78,1.5,150.37,307,284,125.26,285,15688,140632,2564,1.03,-0.02,0.1,-1.21,-0.31,-0.11,-1.55,-82.81,-6.94,-10.7,-1.98,-6.73,-13.59,Sitting
10:10.7,537,513,769.5,709,312,2.28,438.82,1.52,132.88,310,285,125.03,284,15631,0,0,0.99,0.01,0.11,-2.91,0.42,-4.05,0.06,-82.05,-7.24,-10.9,-2.38,-6.94,-13.74,Sitting
10:10.9,521,513,769.5,709,316,2.24,446.96,1.54,132.88,310,285,125.03,284,15631,15689,285,0.99,0,0.1,-2.49,0.25,2.28,-0.8,-82.5,-7.48,-11.12,-2,-7.21,-13.97,Sitting
10:11.0,514,513,769.5,709,314,2.26,442.88,1.53,132.88,310,285,125.03,284,15631,31378,570,1.04,-0.01,0.1,-2.31,0.15,-2.6,-1.35,-83.12,-7.7,-11.35,-2.23,-7.44,-14.22,Sitting
10:11.1,536,513,769.5,709,307,2.33,428.77,1.5,132.88,310,285,125.03,284,15631,47067,855,0.98,0,0.11,-2.05,1.27,0.42,-0.59,-81.83,-7.88,-11.44,-2.07,-7.59,-14.25,Sitting
10:11.2,508,513,769.5,709,310,2.3,434.78,1.52,132.88,310,285,125.03,284,15631,62756,1140,1.01,-0.02,0.11,-0.66,0.76,-1.88,-1.69,-82.36,-7.89,-11.59,-2.21,-7.65,-14.42,Sitting
10:11.4,470,512,768,709,316,2.24,446.96,1.54,132.88,310,285,125.03,284,15631,78445,1425,0.98,0.01,0.1,-0.72,2.05,-2.69,-0.08,-82.36,-7.91,-11.59,-2.45,-7.6,-14.42,Sitting
10:11.5,522,512,768,709,315,2.25,444.92,1.54,132.88,310,285,125.03,284,15631,94134,1710,0.95,0.01,0.12,-1.54,-4.37,9.47,0.14,-81.05,-8.04,-12.38,-1.16,-7.71,-15.13,Sitting
10:11.6,825,517,775.5,825,308,2.32,430.77,1.51,132.88,310,285,125.03,284,15631,109823,1995,1.12,-0.05,0.05,-14.06,-16.73,19.26,-3.36,-84.6,-9.72,-14.72,1.34,-9.47,-17.52,Sitting
10:11.7,512,517,775.5,825,311,2.29,436.8,1.52,132.88,310,285,125.03,284,15631,125512,2280,1.02,-0.1,0.05,2.56,-13.47,3.11,-6.38,-82.02,-9.33,-16.67,1.83,-9.21,-19.29,Sitting
10:11.9,479,517,775.5,825,317,2.23,449.01,1.55,132.88,310,285,125.03,284,15631,141201,2565,1.03,-0.1,0.04,2.62,-5.58,-1.85,-6.21,-82.35,-8.94,-17.61,1.7,-8.83,-20.2,Sitting
10:12.0,483,516,774,825,315,2.25,444.92,1.54,20724.14,312,285,125.26,285,15688,0,0,1.03,-0.07,0.01,-7.02,-5.68,-8.58,-4.51,-84.46,-9.74,-18.57,0.74,-9.53,-21.2,Sitting
10:12.1,525,516,774,825,309,2.31,432.77,1.51,20724.14,312,285,125.26,285,15688,15689,285,1,-0.02,-0.01,-6.79,4.08,-6.57,-1.88,-86.87,-10.52,-18.3,0.01,-10.18,-21.05,Sitting
10:12.2,506,516,774,825,311,2.29,436.8,1.52,20724.14,312,285,125.26,285,15688,31378,570,0.99,-0.03,0.03,3.24,12.13,-0.82,-2.48,-85.86,-10.05,-17.04,0,-9.75,-19.79,Sitting
10:12.4,524,516,774,825,318,2.22,451.06,1.55,20724.14,312,285,125.26,285,15688,47067,855,1.03,-0.07,0.08,-3.24,8.53,-2.85,-4.54,-82.55,-10.39,-16.21,-0.26,-10.15,-18.87,Sitting
10:12.5,483,516,774,825,315,2.25,444.92,1.54,20724.14,312,285,125.26,285,15688,62756,1140,1.03,-0.04,0.09,-1.59,8.04,-9.4,-2.75,-82.79,-10.51,-15.46,-1.33,-10.2,-18.15,Sitting
10:12.6,542,516,774,825,308,2.32,430.77,1.51,20724.14,312,284,125.26,285,15688,77876,1424,0.98,0.02,0.1,-0.33,6.69,-7.35,0.5,-82.72,-10.49,-14.87,-2.16,-10.05,-17.58,Sitting
10:12.7,450,515,772.5,825,314,2.26,442.88,1.53,20724.14,312,285,125.26,285,15688,93565,1709,1,0.01,0.09,-1.43,-1.57,5.16,-0.17,-83.02,-10.59,-15.32,-1.41,-10.18,-18.03,Sitting
10:12.9,512,515,772.5,825,319,2.21,453.13,1.56,20724.14,312,285,125.26,285,15688,109254,1994,1.01,-0.05,0.07,-1.69,-1.39,3.2,-3.25,-83.79,-10.74,-15.74,-0.91,-10.44,-18.47,Sitting
10:13.0,516,515,772.5,825,310,2.3,434.78,1.52,20724.14,312,285,125.26,285,15688,124943,2279,1.05,-0.04,0.09,-3.26,1.05,-4.62,-2.77,-83.01,-11.08,-15.86,-1.39,-10.75,-18.55,Sitting
10:13.1,552,516,774,825,311,2.29,436.8,1.52,20724.14,312,285,125.26,285,15688,140632,2564,0.99,-0.02,0.08,-4.56,-9.58,-3.25,-1.73,-83.47,-11.58,-17.32,-1.7,-11.19,-19.97,Sitting
10:13.3,678,518,777,825,319,2.21,453.13,1.56,20724.3,313,285,125.03,284,15631,0,0,1,-0.01,0.02,1.67,-9.15,-2.24,-1.19,-87.12,-11.3,-18.72,-1.88,-10.9,-21.45,Sitting
10:13.4,398,516,774,825,316,2.24,446.96,1.54,20724.3,313,285,125.03,284,15631,15689,285,1.03,-0.04,0.01,-19.22,3.33,7.04,-2.69,-86.19,-13.63,-18.55,-0.91,-13.2,-21.26,Sitting
10:13.5,453,515,772.5,825,308,2.32,430.77,1.51,20724.3,313,284,125.03,284,15631,30809,569,1.05,-0.06,0.08,-2.67,10.31,-8.03,-3.68,-83.19,-13.9,-17.5,-1.82,-13.49,-20.13,Sitting
10:13.6,437,514,771,825,313,2.27,440.85,1.53,20724.3,313,285,125.03,284,15631,46498,854,0.97,-0.02,0.08,-4.34,4.49,-5.4,-1.5,-83.36,-14.38,-17.19,-2.4,-13.86,-19.84,Sitting
10:13.7,454,514,771,825,318,2.22,451.06,1.55,20724.3,313,285,125.03,284,15631,62187,1139,0.97,-0.01,0.07,-4.05,7.93,5.52,-1.21,-84.26,-14.82,-16.44,-1.6,-14.27,-19.15,Sitting
10:13.9,471,513,769.5,825,311,2.29,436.8,1.52,20724.3,313,285,125.03,284,15631,77876,1424,1.05,-0.06,0.14,0.21,2.24,-1.36,-4.06,-80.07,-14.72,-16.41,-1.67,-14.29,-18.96,Sitting
10:14.0,550,514,771,825,309,2.31,432.77,1.51,20724.3,313,285,125.03,284,15631,93565,1709,1,-0.02,0.09,-1.34,-3.32,-4.38,-1.83,-83.33,-14.82,-17.08,-2.12,-14.3,-19.73,Sitting
10:14.1,504,513,769.5,825,316,2.24,446.96,1.54,20724.3,313,285,125.03,284,15631,109254,1994,1,-0.02,0.08,3.15,-0.81,2.78,-1.63,-83.96,-14.35,-17.43,-1.67,-13.84,-20.09,Sitting
10:14.3,568,514,771,825,315,2.25,444.92,1.54,20724.3,313,285,125.03,284,15631,124943,2279,1.04,-0.06,0.08,-4.24,-2.39,-1.31,-3.66,-83.27,-14.82,-17.98,-1.74,-14.37,-20.6,Sitting
10:14.4,663,516,774,825,307,2.33,428.77,1.5,20724.3,313,285,125.03,284,15631,140632,2564,0.98,-0.02,0.06,-2.72,-1.82,-2.78,-1.89,-84.94,-15.09,-18.47,-1.99,-14.56,-21.12,Sitting
10:14.5,513,516,774,825,313,2.27,440.85,1.53,77.34,312,285,125.03,284,15631,0,0,1.01,-0.04,0.08,-3.94,-0.13,-0.05,-2.6,-83.24,-15.51,-18.73,-1.9,-14.99,-21.31,Sitting
10:14.6,562,516,774,825,317,2.23,449.01,1.55,77.34,312,285,125.03,284,15631,15689,285,1.01,-0.04,0.06,-2.79,-0.1,-1.94,-2.75,-84.37,-15.79,-18.99,-2.04,-15.27,-21.61,Sitting
10:14.8,538,516,774,825,312,2.28,438.82,1.52,77.34,312,285,125.03,284,15631,31378,570,1.01,-0.01,0.05,-3.29,-0.89,0.02,-1.21,-85.49,-16.13,-19.35,-1.94,-15.53,-22,Sitting
10:14.9,575,517,775.5,825,307,2.33,428.77,1.5,77.34,312,285,125.03,284,15631,47067,855,1.03,-0.04,0.02,-2.05,1.98,-0.85,-2.95,-85.68,-16.32,-19.36,-1.95,-15.78,-22.01,Sitting
10:15.0,737,519,778.5,825,313,2.27,440.85,1.53,77.34,312,285,125.03,284,15631,62756,1140,1.01,-0.04,0.07,-5.82,1,-1.97,-3,-83.98,-16.97,-19.48,-2.09,-16.42,-22.06,Sitting
10:15.1,503,519,778.5,825,318,2.22,451.06,1.55,77.34,312,285,125.03,284,15631,78445,1425,1,-0.04,0.08,-2.36,3.23,0.36,-2.6,-83.5,-17.2,-19.33,-1.95,-16.62,-21.9,Sitting
10:15.3,525,519,778.5,825,312,2.28,438.82,1.52,77.34,312,285,125.03,284,15631,94134,1710,1.02,-0.05,0.08,-4.09,-0.46,0.47,-3.49,-83.28,-17.64,-19.64,-1.79,-17.08,-22.18,Sitting
10:15.4,556,520,780,825,308,2.32,430.77,1.51,77.34,312,285,125.03,284,15631,109823,1995,1.02,-0.04,0.09,3.62,3.1,-3.46,-2.99,-82.71,-17.12,-19.5,-2.12,-16.56,-22.03,Sitting
10:15.5,503,520,780,825,315,2.25,444.92,1.54,77.34,312,285,125.03,284,15631,125512,2280,1.01,-0.03,0.08,-1.78,-1.92,0.26,-2.38,-83.58,-17.27,-19.99,-1.99,-16.68,-22.53,Sitting
10:15.6,404,518,777,825,318,2.22,451.06,1.55,77.34,312,285,125.03,284,15631,141201,2565,1.01,-0.04,0.05,-2.43,0.42,-0.25,-2.95,-84.91,-17.51,-20.19,-1.93,-16.93,-22.78,Sitting
10:15.8,496,518,777,825,310,2.3,434.78,1.52,78.94,313,285,125.26,285,15688,0,0,1.01,-0.04,0.06,-1.02,2.92,0.05,-2.99,-84.32,-17.57,-20.08,-1.82,-16.98,-22.65,Sitting
10:15.9,539,518,777,825,309,2.31,432.77,1.51,78.94,313,285,125.26,285,15688,15689,285,1.01,-0.05,0.08,-1.97,0,-0.32,-3.32,-83.27,-17.74,-20.33,-1.76,-17.17,-22.84,Sitting
10:16.0,507,517,775.5,825,316,2.24,446.96,1.54,78.94,313,285,125.26,285,15688,31378,570,1.01,-0.04,0.05,3.46,3.96,-0.03,-2.74,-84.98,-17.24,-20.08,-1.67,-16.66,-22.68,Sitting
10:16.1,510,516,774,825,319,2.21,453.13,1.56,78.94,313,285,125.26,285,15688,47067,855,1.03,-0.05,0.07,1.18,3.89,-0.4,-3.62,-83.58,-17.03,-19.85,-1.62,-16.49,-22.4,Sitting
10:16.3,499,516,774,825,313,2.27,440.85,1.53,78.94,313,285,125.26,285,15688,62756,1140,1,-0.04,0.04,-1.02,2.02,-1.27,-3.09,-84.86,-17.09,-19.84,-1.68,-16.53,-22.44,Sitting
10:16.4,554,515,772.5,825,310,2.3,434.78,1.52,78.94,313,285,125.26,285,15688,78445,1425,1.02,-0.06,0.05,-1.24,6.04,0.03,-3.73,-84.16,-17.17,-19.34,-1.58,-16.63,-21.93,Sitting
10:16.5,489,515,772.5,825,316,2.24,446.96,1.54,78.94,313,285,125.26,285,15688,94134,1710,1.02,-0.05,0.06,-2.27,5.79,-3.45,-3.36,-84.03,-17.38,-18.86,-1.91,-16.82,-21.47,Sitting
10:16.6,565,515,772.5,825,320,2.2,455.19,1.56,78.94,313,285,125.26,285,15688,109823,1995,0.99,-0.04,0.09,-1.73,3.36,-3.18,-3.08,-82.69,-17.53,-18.69,-2.21,-16.95,-21.25,Sitting
10:21.4,436,436,654,436,323,2.17,461.43,1.58,0,0,285,0,0,0,31378,570,1.02,-0.02,0.07,-0.93,-7.92,2.32,-1.51,-84.39,-0.55,-2.11,0.39,-0.59,-5.4,Left Fall while Sitting
10:21.5,405,420,630,436,324,2.16,463.52,1.58,0,0,284,0,0,0,46498,854,1,-0.02,0.07,-0.31,0.49,-1.71,-1.55,-84.12,-0.52,-2.3,0.28,-0.56,-5.57,Left Fall while Sitting
10:21.6,379,406,609,436,322,2.18,459.34,1.57,0,0,285,0,0,0,62187,1139,0.98,0,0.11,-0.43,9.89,-2.19,-0.48,-82.15,-0.5,-1.33,0.11,-0.5,-4.56,Left Fall while Sitting
10:21.7,387,401,601.5,436,320,2.2,455.19,1.56,0,0,285,0,0,0,77876,1424,0.99,-0.01,0.14,2.01,9.73,4.79,-1.01,-80.5,-0.18,-0.37,0.8,-0.22,-3.58,Left Fall while Sitting
10:21.9,381,397,595.5,436,319,2.21,453.13,1.56,0,0,285,0,0,0,93565,1709,1.05,-0.02,0.11,9.99,4.15,-2.76,-1.83,-82.12,1.1,-0.11,0.56,0.99,-3.39,Left Fall while Sitting
10:22.0,553,423,634.5,553,319,2.21,453.13,1.56,0,0,285,0,0,0,109254,1994,1.07,-0.05,0.18,13.69,11.44,-19.42,-3.24,-78.61,2.83,1.03,-1.7,2.58,-2.16,Left Fall while Sitting
10:22.1,571,444,666,571,317,2.23,449.01,1.55,0,0,284,0,0,0,124374,2278,0.99,0.03,0.06,6.21,8.22,-52.92,1.22,-84.65,3.66,1.8,-8.11,3.56,-1.66,Left Fall while Sitting
10:22.2,566,459,688.5,571,320,2.2,455.19,1.56,0,0,285,0,0,0,140063,2563,0.95,0.15,0.21,-17.98,11.16,-21.67,8.13,-73.47,1.53,2.91,-10.66,1.8,-0.14,Left Fall while Sitting
10:22.4,634,479,718.5,634,324,2.16,463.52,1.58,20723.62,320,285,124.8,284,15574,0,0,0.98,0.19,0.25,1.21,22.82,-37.2,10.16,-70.67,1.75,5.49,-15.17,2.09,2.45,Left Fall while Sitting
10:22.5,920,523,784.5,920,324,2.16,463.52,1.58,20723.62,320,285,124.8,284,15574,15689,285,0.89,0.3,0.33,12.84,12.39,-66.88,16.66,-62.11,3.43,6.79,-23.43,3.96,4.04,Left Fall while Sitting
10:22.6,612,531,796.5,920,317,2.23,449.01,1.55,20723.62,320,285,124.8,284,15574,31378,570,0.68,0.5,0.21,-3.7,-9.92,-43.61,34.28,-50.17,3.04,5.32,-28.74,4.29,3.1,Left Fall while Sitting
10:22.7,648,541,811.5,920,312,2.28,438.82,1.52,20723.62,320,284,124.8,284,15574,46498,854,0.51,0.53,0.42,-3.98,-4.64,-8.73,38.18,-35.56,2.61,4.48,-29.74,4.03,2.88,Left Fall while Sitting
10:22.9,606,546,819,920,317,2.23,449.01,1.55,20723.62,320,285,124.8,284,15574,62187,1139,0.82,0.51,0.22,11.56,-13.47,-4.96,30.42,-54.25,4.13,2.55,-30.26,5.18,0.28,Left Fall while Sitting
10:23.0,475,540,810,920,322,2.18,459.34,1.57,20723.62,320,285,124.8,284,15574,77876,1424,0.86,0.49,0.15,12.88,-8.08,-5.69,28.97,-57.35,5.81,1.29,-30.87,6.73,-1.05,Left Fall while Sitting
10:23.1,386,530,795,920,319,2.21,453.13,1.56,20723.62,320,285,124.8,284,15574,93565,1709,0.85,0.51,0.08,7.49,-7.1,-19.11,30.34,-57.08,6.81,0.15,-33.16,7.75,-2.14,Left Fall while Sitting
10:23.2,405,522,783,920,311,2.29,436.8,1.52,20723.62,320,285,124.8,284,15574,109254,1994,0.8,0.56,-0.05,-13.81,-9.87,-19.91,34.19,-53.51,5.16,-1.33,-35.55,6.32,-3.42,Left Fall while Sitting
10:23.4,324,511,766.5,920,314,2.26,442.88,1.53,20723.62,320,285,124.8,284,15574,124943,2279,0.74,0.58,0.05,-9.56,4.5,-23.34,37.63,-50.07,4.03,-1.02,-38.37,5.37,-2.98,Left Fall while Sitting
10:23.5,359,502,753,920,319,2.21,453.13,1.56,20723.62,320,285,124.8,284,15574,140632,2564,0.72,0.64,0.12,-7.47,2.4,-14.21,40.73,-46.2,3.17,-0.97,-40.03,4.67,-2.78,Left Fall while Sitting
10:23.6,609,508,762,920,314,2.26,442.88,1.53,20723.88,316,285,125.03,284,15631,0,0,0.72,0.66,0.15,-3.79,0.53,-4.63,41.33,-45.11,2.77,-1.15,-40.51,4.31,-2.91,Left Fall while Sitting
10:23.7,358,500,750,920,305,2.35,424.79,1.49,20723.88,316,284,125.03,284,15631,15120,284,0.72,0.65,0.13,1.24,-7.41,-0.68,40.84,-45.98,3,-2.33,-40.49,4.51,-4.07,Left Fall while Sitting
10:23.8,463,498,747,920,306,2.34,426.78,1.5,20723.88,316,284,125.03,284,15631,30240,568,0.77,0.65,0.1,9.57,-6.95,-0.56,39.45,-47.86,4.26,-3.45,-40.47,5.67,-5.22,Left Fall while Sitting
10:24.0,431,495,742.5,920,311,2.29,436.8,1.52,20723.88,316,284,125.03,284,15631,45360,852,0.75,0.63,-0.01,7.55,-6.63,-8.92,39.43,-48.41,5.27,-4.52,-41.47,6.64,-6.27,Left Fall while Sitting
10:24.1,476,494,741,920,313,2.27,440.85,1.53,20723.88,316,285,125.03,284,15631,61049,1137,0.71,0.68,0.02,1.45,-3.09,-9.28,43.28,-44.53,5.52,-5.15,-42.54,7.03,-6.73,Left Fall while Sitting
10:24.2,469,493,739.5,920,305,2.35,424.79,1.49,20723.88,316,285,125.03,284,15631,76738,1422,0.72,0.68,0.05,1.58,0.95,-1.69,42.92,-44.77,5.79,-5.28,-42.65,7.27,-6.86,Left Fall while Sitting
10:24.4,556,496,744,920,302,2.39,418.86,1.48,20723.88,316,284,125.03,284,15631,91858,1706,0.75,0.65,0.09,-0.89,-1.76,-3.22,40.21,-47.2,5.75,-5.76,-42.95,7.13,-7.41,Left Fall while Sitting
10:24.5,544,498,747,920,309,2.31,432.77,1.51,20723.88,316,284,125.03,284,15631,106978,1990,0.72,0.68,0.01,-2.11,-6.15,-6.19,42.64,-45.19,5.55,-6.77,-43.63,7.04,-8.31,Left Fall while Sitting
10:24.6,627,502,753,920,313,2.27,440.85,1.53,20723.88,316,285,125.03,284,15631,122667,2275,0.68,0.69,0.01,-3.85,1.05,-2.64,44.86,-42.97,5.14,-6.89,-43.86,6.73,-8.33,Left Fall while Sitting
10:24.7,536,504,756,920,305,2.35,424.79,1.49,20723.88,316,285,125.03,284,15631,138356,2560,0.71,0.69,0.02,-3.38,0.41,-2.67,43.4,-44.42,4.79,-7.09,-44.09,6.33,-8.58,Left Fall while Sitting
10:24.8,568,506,759,920,303,2.38,420.83,1.48,169.85,307,284,123.88,284,15346,0,0,0.7,0.69,0.02,-1.51,-0.6,-0.58,43.88,-43.93,4.67,-7.41,-44.07,6.24,-8.87,Left Fall while Sitting
10:25.0,550,507,760.5,920,308,2.32,430.77,1.51,169.85,307,285,123.88,284,15346,15689,285,0.72,0.69,0.02,-3.87,2.11,0.66,43.1,-44.72,4.26,-7.4,-43.89,5.82,-8.89,Left Fall while Sitting
10:25.1,541,508,762,920,313,2.27,440.85,1.53,169.85,307,285,123.88,284,15346,31378,570,0.72,0.69,0.04,1.19,1.82,-1.48,43.12,-44.61,4.48,-7.42,-43.98,6.03,-8.91,Left Fall while Sitting
10:25.2,532,509,763.5,920,313,2.27,440.85,1.53,169.85,307,285,123.88,284,15346,47067,855,0.71,0.68,0.04,-3.5,3.37,1.06,43.28,-44.46,4.12,-7.25,-43.75,5.69,-8.74,Left Fall while Sitting
10:25.3,502,509,763.5,920,307,2.33,428.77,1.5,169.85,307,285,123.88,284,15346,62756,1140,0.72,0.68,0.04,-3.31,1.2,1.24,42.56,-45.2,3.78,-7.35,-43.5,5.33,-8.87,Left Fall while Sitting
10:25.5,564,510,765,920,304,2.37,422.81,1.49,169.85,307,284,123.88,284,15346,77876,1424,0.72,0.69,0.02,-2.44,-0.22,1.74,43.27,-44.55,3.54,-7.63,-43.18,5.13,-9.11,Left Fall while Sitting
10:25.6,491,510,765,920,310,2.3,434.78,1.52,169.85,307,284,123.88,284,15346,92996,1708,0.72,0.68,0.02,-0.88,3.28,1.1,42.42,-45.39,3.51,-7.47,-42.95,5.06,-8.98,Left Fall while Sitting
10:25.7,478,509,763.5,920,316,2.24,446.96,1.54,169.85,307,285,123.88,284,15346,108685,1993,0.72,0.68,0.04,-4.2,1.19,5.95,42.49,-45.26,3.05,-7.57,-42.1,4.63,-9.08,Left Fall while Sitting
10:25.8,447,507,760.5,920,314,2.26,442.88,1.53,169.85,307,285,123.88,284,15346,124374,2278,0.7,0.65,0.05,-11.74,-2.5,13.24,42.26,-45.43,1.66,-8.13,-40.36,3.29,-9.62,Left Fall while Sitting
10:26.0,457,506,759,920,308,2.32,430.77,1.51,169.85,307,285,123.88,284,15346,140063,2563,0.76,0.63,0.04,-0.41,2.73,18.36,39.12,-48.65,1.68,-8.04,-37.97,3.18,-9.66,Left Fall while Sitting
10:26.1,480,505,757.5,920,311,2.29,436.8,1.52,133.11,310,284,124.57,284,15517,0,0,0.79,0.6,0.04,4.98,0.29,20.9,36.44,-51.32,2.36,-8.25,-35.3,3.73,-9.97,Left Fall while Sitting
10:26.2,488,505,757.5,920,316,2.24,446.96,1.54,133.11,310,284,124.57,284,15517,15120,284,0.82,0.54,0.03,0.89,5.6,25.04,33.11,-54.68,2.54,-7.79,-32.07,3.77,-9.67,Left Fall while Sitting
10:26.3,539,506,759,920,321,2.19,457.26,1.57,133.11,310,285,124.57,284,15517,30809,569,0.87,0.5,0.04,-2.02,6.6,24.8,29.41,-58.34,2.36,-7.22,-28.9,3.45,-9.27,Left Fall while Sitting
10:26.5,524,506,759,920,319,2.21,453.13,1.56,133.11,310,285,124.57,284,15517,46498,854,0.9,0.46,0.03,2.63,8.42,26.73,26.8,-60.96,2.76,-6.43,-25.51,3.72,-8.62,Left Fall while Sitting
10:26.6,558,507,760.5,920,313,2.27,440.85,1.53,133.11,310,285,124.57,284,15517,62187,1139,0.95,0.4,0.06,-5.5,3.35,21.86,22.02,-65.53,2.14,-6.27,-22.68,2.93,-8.64,Left Fall while Sitting
10:26.7,582,509,763.5,920,315,2.25,444.92,1.54,133.11,310,285,124.57,284,15517,77876,1424,0.95,0.36,0.07,-3.53,1.89,18.98,19.98,-67.43,1.77,-6.28,-20.23,2.5,-8.72,Left Fall while Sitting
10:26.8,554,510,765,920,319,2.21,453.13,1.56,133.11,310,285,124.57,284,15517,93565,1709,0.93,0.34,0.07,-1.89,3.15,20.47,19.54,-67.83,1.6,-6.13,-17.57,2.32,-8.6,Left Fall while Sitting
10:27.0,415,508,762,920,320,2.2,455.19,1.56,133.11,310,285,124.57,284,15517,109254,1994,0.95,0.27,0.07,-14.44,2.18,28.99,15.09,-72.17,-0.12,-6.11,-13.88,0.49,-8.75,Left Fall while Sitting
10:27.1,538,509,763.5,920,313,2.27,440.85,1.53,133.11,310,285,124.57,284,15517,124943,2279,0.99,0.2,0.1,-10.98,-3.41,28.09,10.52,-75.95,-1.42,-6.79,-10.27,-0.94,-9.56,Left Fall while Sitting
10:27.2,623,511,766.5,920,312,2.28,438.82,1.52,133.11,310,284,124.57,284,15517,140063,2563,0.97,0.13,0.08,-3.69,-2.44,25.37,7.27,-79.14,-1.81,-7.35,-6.98,-1.45,-10.22,Left Fall while Sitting
10:27.3,541,512,768,920,317,2.23,449.01,1.55,20724.03,316,285,124.8,284,15574,0,0,0.99,0.07,0.08,-1.6,-8.08,27.47,3.44,-82.45,-1.94,-8.6,-3.47,-1.73,-11.55,Left Fall while Sitting
10:27.5,480,511,766.5,920,313,2.27,440.85,1.53,20724.03,316,285,124.8,284,15574,15689,285,1.03,0.02,0.05,-12.72,-5.55,24.83,0.28,-85.47,-3.46,-9.54,-0.27,-3.31,-12.58,Left Fall while Sitting
10:27.6,424,509,763.5,920,311,2.29,436.8,1.52,20724.03,316,285,124.8,284,15574,31378,570,1.03,-0.05,0.05,-12.34,-3.44,16.11,-3.15,-84.83,-4.93,-10.22,1.84,-4.86,-13.21,Left Fall while Sitting
10:27.7,419,507,760.5,920,315,2.25,444.92,1.54,20724.03,316,285,124.8,284,15574,47067,855,1.01,-0.05,0.02,-14.85,-1.66,9.85,-3.25,-85.51,-6.73,-10.68,3.18,-6.6,-13.68,Left Fall while Sitting
10:27.8,437,506,759,920,324,2.16,463.52,1.58,20724.03,316,285,124.8,284,15574,62756,1140,1.03,-0.09,-0.01,-11.24,-3.8,15.15,-5.63,-83.33,-8.07,-11.41,5.18,-7.97,-14.28,Left Fall while Sitting
10:28.0,324,503,754.5,920,330,2.1,476.19,1.61,20724.03,316,285,124.8,284,15574,78445,1425,1.05,-0.15,0,-9.54,-4.56,6.11,-8.5,-80.49,-9.2,-12.23,6.05,-9.17,-14.96,Left Fall while Sitting
10:28.1,368,500,750,920,323,2.17,461.43,1.58,20724.03,316,285,124.8,284,15574,94134,1710,0.98,-0.13,0.01,6.14,-1.76,0.18,-7.98,-81,-8.37,-12.7,6.17,-8.36,-15.43,Left Fall while Sitting
10:28.2,520,501,751.5,920,324,2.16,463.52,1.58,20724.03,316,285,124.8,284,15574,109823,1995,1.03,-0.13,-0.04,-7.01,-2.56,9.75,-7.63,-81.03,-9.18,-13.28,7.49,-9.12,-15.99,Left Fall while Sitting
10:28.3,543,501,751.5,920,329,2.11,474.06,1.61,20724.03,316,285,124.8,284,15574,125512,2280,1.04,-0.17,0,-0.97,-7.59,1.37,-9.88,-79.12,-9.23,-14.48,7.77,-9.26,-17.07,Left Fall while Sitting
10:28.5,626,503,754.5,920,328,2.12,471.94,1.6,20724.03,316,285,124.8,284,15574,141201,2565,1.02,-0.16,-0.12,-5.02,-4.01,-4.88,-9.65,-77.27,-9.79,-15.23,7.26,-9.79,-17.72,Left Fall while Sitting
10:28.6,647,506,759,920,320,2.2,455.19,1.56,20723.96,321,285,125.26,285,15688,0,0,1,-0.14,-0.07,-1.87,7.53,-1.23,-8.56,-79.42,-9.96,-14.54,7.2,-9.9,-17.14,Left Fall while Sitting
10:28.7,673,509,763.5,920,322,2.18,459.34,1.57,20723.96,321,285,125.26,285,15688,15689,285,1.01,-0.15,0.02,-3.32,6.07,6.75,-8.87,-80.08,-10.3,-14.03,8.14,-10.24,-16.68,Left Fall while Sitting
10:28.8,594,510,765,920,328,2.12,471.94,1.6,20723.96,321,285,125.26,285,15688,31378,570,1.02,-0.18,-0.02,-4,-0.35,4.69,-10.45,-78.5,-10.73,-14.33,8.83,-10.72,-16.9,Left Fall while Sitting
10:29.0,554,511,766.5,920,327,2.13,469.83,1.6,20723.96,321,285,125.26,285,15688,47067,855,1.03,-0.2,-0.01,-8.38,-5.6,-2.15,-11.32,-77.67,-11.72,-15.29,8.66,-11.7,-17.78,Left Fall while Sitting
10:29.1,512,511,766.5,920,319,2.21,453.13,1.56,20723.96,321,285,125.26,285,15688,62756,1140,1.03,-0.17,-0.02,-3.34,-6.25,-7.42,-9.81,-79.09,-12.07,-16.33,7.82,-11.98,-18.84,Left Fall while Sitting
10:29.2,489,510,765,920,324,2.16,463.52,1.58,20723.96,321,285,125.26,285,15688,78445,1425,0.99,-0.14,-0.04,-1.27,-1.22,1.37,-8.8,-79.81,-12.16,-16.73,8.1,-12.02,-19.25,Left Fall while Sitting
10:29.3,502,510,765,920,326,2.14,467.72,1.59,20723.96,321,285,125.26,285,15688,94134,1710,1.02,-0.17,-0.05,-4.31,-1.88,1.44,-10.11,-78.47,-12.63,-17.22,8.38,-12.53,-19.67,Left Fall while Sitting
10:29.5,491,510,765,920,316,2.24,446.96,1.54,20723.96,321,284,125.26,285,15688,109254,1994,1.04,-0.18,-0.05,-2.9,0.33,-4.75,-10.59,-78.04,-12.92,-17.43,7.88,-12.83,-19.85,Left Fall while Sitting
10:29.6,358,508,762,920,317,2.23,449.01,1.55,20723.96,321,284,125.26,285,15688,124374,2278,0.99,-0.15,-0.07,-6.84,0.33,-5.83,-9.23,-78.76,-13.72,-17.64,7.24,-13.54,-20.09,Left Fall while Sitting
10:32.4,614,614,921,614,307,2.33,428.77,1.5,0,0,285,0,0,0,31378,570,0.97,-0.13,0.04,-2.84,8.01,2.41,-8.18,-80.38,-0.93,0.66,-0.03,-1.22,-2.58,Right Fall while Sitting
10:32.6,530,572,858,614,311,2.29,436.8,1.52,0,0,285,0,0,0,47067,855,1.05,-0.18,0.07,-0.44,3.08,5.3,-10.19,-78.16,-0.92,0.79,0.71,-1.29,-2.37,Right Fall while Sitting
10:32.7,518,554,831,614,316,2.24,446.96,1.54,0,0,285,0,0,0,62756,1140,1.01,-0.17,0.03,-2.21,1.68,-3.74,-10.07,-78.8,-1.12,0.75,0.35,-1.48,-2.43,Right Fall while Sitting
10:32.8,399,515,772.5,614,320,2.2,455.19,1.56,0,0,285,0,0,0,78445,1425,0.97,-0.12,0.04,-5.89,2,3.41,-7.92,-80.67,-1.78,0.75,0.86,-2.02,-2.5,Right Fall while Sitting
10:32.9,468,505,757.5,614,319,2.21,453.13,1.56,0,0,285,0,0,0,94134,1710,1.01,-0.19,0.06,-7.43,9.88,10.94,-11.33,-77.07,-2.62,1.71,2.29,-2.96,-1.44,Right Fall while Sitting
10:33.1,403,488,732,614,317,2.23,449.01,1.55,0,0,285,0,0,0,109823,1995,0.99,-0.2,0.05,-2.34,11.97,15.86,-12.23,-76.49,-2.83,2.93,4.33,-3.21,-0.25,Right Fall while Sitting
10:33.2,412,477,715.5,614,314,2.26,442.88,1.53,0,0,284,0,0,0,124943,2279,0.95,-0.25,0.02,-16.46,0.47,33.15,-15.57,-73.38,-4.79,2.74,8.5,-5.22,-0.3,Right Fall while Sitting
10:33.3,389,466,699,614,315,2.25,444.92,1.54,0,0,284,0,0,0,140063,2563,0.93,-0.34,0.09,-21.53,13.4,38.19,-20.44,-67.83,-7.37,4.14,13.3,-7.89,1.26,Right Fall while Sitting
10:33.4,345,453,679.5,614,321,2.19,457.26,1.57,20724,314,284,124.57,284,15517,0,0,0.89,-0.41,0.16,0.47,20.61,36.1,-25.09,-61.97,-7.24,6.45,17.87,-7.95,3.71,Right Fall while Sitting
10:33.5,372,445,667.5,614,328,2.12,471.94,1.6,20724,314,285,124.57,284,15517,15689,285,0.88,-0.51,0.12,1.02,7.73,32.34,-30.56,-57.54,-7.04,7.17,22.01,-7.98,4.58,Right Fall while Sitting
10:33.7,361,437,655.5,614,332,2.08,480.46,1.62,20724,314,285,124.57,284,15517,31378,570,0.87,-0.56,0.12,-12.59,-4.76,24.92,-32.79,-55.4,-8.55,6.32,25.22,-9.52,3.85,Right Fall while Sitting
10:33.8,527,444,666,614,326,2.14,467.72,1.59,20724,314,285,124.57,284,15517,47067,855,0.84,-0.6,0.12,-16.03,-11.63,17.3,-35.95,-52.19,-10.48,4.62,27.49,-11.5,2.35,Right Fall while Sitting
10:33.9,834,474,711,834,328,2.12,471.94,1.6,20724,314,285,124.57,284,15517,62756,1140,0.86,-0.62,0.06,-6.76,-6.28,13.96,-36.47,-52.32,-11.26,3.58,29.34,-12.27,1.34,Right Fall while Sitting
10:34.0,443,472,708,834,335,2.05,486.92,1.64,20724,314,285,124.57,284,15517,78445,1425,0.79,-0.69,0.05,-8.35,-8.54,12.7,-41.57,-47.27,-12.24,2.26,31.03,-13.41,0.28,Right Fall while Sitting
10:34.2,321,462,693,834,334,2.06,484.76,1.63,20724,314,285,124.57,284,15517,94134,1710,0.76,-0.7,0.05,-7.22,-6.5,12.12,-43.17,-45.68,-13.07,1.19,32.66,-14.28,-0.69,Right Fall while Sitting
10:34.3,393,458,687,834,328,2.12,471.94,1.6,20724,314,285,124.57,284,15517,109823,1995,0.7,-0.71,0.04,-0.03,-5.46,14.85,-45.85,-43.04,-13.01,0.25,34.63,-14.32,-1.48,Right Fall while Sitting
10:34.4,447,457,685.5,834,334,2.06,484.76,1.63,20724,314,285,124.57,284,15517,125512,2280,0.75,-0.73,-0.02,-3.2,-0.06,9.58,-44.96,-44.02,-13.34,-0.01,35.93,-14.61,-1.77,Right Fall while Sitting
10:34.5,392,453,679.5,834,338,2.03,493.43,1.65,20724,314,286,124.57,284,15517,141772,2566,0.7,-0.75,0.01,-3.21,2.66,4.11,-47.47,-41.52,-13.67,0.07,36.55,-15.03,-1.59,Right Fall while Sitting
10:34.7,505,456,684,834,331,2.09,478.32,1.62,20723.79,331,286,125.71,285,15802,0,0,0.71,-0.74,0.02,4.05,0.69,-1.08,-46.47,-42.5,-13.1,-0.09,36.52,-14.44,-1.79,Right Fall while Sitting
10:34.8,751,471,706.5,834,328,2.12,471.94,1.6,20723.79,331,285,125.71,285,15802,15689,285,0.71,-0.75,0.01,2.89,-3.86,-5.59,-46.77,-42.23,-12.67,-0.82,35.92,-14.04,-2.47,Right Fall while Sitting
10:34.9,698,482,723,834,333,2.07,482.61,1.63,20723.79,331,286,125.71,285,15802,31949,571,0.69,-0.74,0.04,5.72,1.21,-0.69,-47.6,-41.33,-11.88,-0.92,35.93,-13.31,-2.53,Right Fall while Sitting
10:35.0,579,486,729,834,336,2.04,489.08,1.64,20723.79,331,285,125.71,285,15802,47638,856,0.73,-0.75,0.01,-0.6,-5.03,-0.73,-46.27,-42.72,-11.89,-1.8,35.94,-13.26,-3.43,Right Fall while Sitting
10:35.2,550,489,733.5,834,329,2.11,474.06,1.61,20723.79,331,286,125.71,285,15802,63898,1142,0.72,-0.76,-0.01,-2.67,-3.41,-2.16,-47.14,-41.86,-12.15,-2.48,35.77,-13.55,-4.05,Right Fall while Sitting
10:35.3,649,495,742.5,834,329,2.11,474.06,1.61,20723.79,331,286,125.71,285,15802,80158,1428,0.72,-0.73,0.02,-0.02,-0.38,-2.36,-45.86,-43.12,-12.08,-2.78,35.57,-13.44,-4.39,Right Fall while Sitting
10:35.4,438,493,739.5,834,335,2.05,486.92,1.64,20723.79,331,286,125.71,285,15802,96418,1714,0.72,-0.72,0.01,-5.29,-4.33,-2.79,-45.6,-43.39,-12.68,-3.58,35.32,-14,-5.17,Right Fall while Sitting
10:35.6,441,491,736.5,834,333,2.07,482.61,1.63,20723.79,331,286,125.71,285,15802,112678,2000,0.73,-0.72,0.01,-1.29,2.63,-3.61,-45.2,-43.8,-12.77,-3.5,34.96,-14.07,-5.11,Right Fall while Sitting
10:35.7,532,493,739.5,834,326,2.14,467.72,1.59,20723.79,331,286,125.71,285,15802,128938,2286,0.73,-0.72,0,-3.5,-2.41,-1.65,-45.11,-43.89,-13.14,-4.05,34.86,-14.42,-5.65,Right Fall while Sitting
10:35.8,509,493,739.5,834,331,2.09,478.32,1.62,20723.79,331,286,125.71,285,15802,145198,2572,0.73,-0.73,-0.02,-4.59,2.79,-1.46,-45.32,-43.66,-13.65,-3.95,34.77,-14.92,-5.54,Right Fall while Sitting
10:35.9,407,490,735,834,334,2.06,484.76,1.63,20723.79,331,285,126.84,285,16087,0,0,0.73,-0.74,0.02,-2.89,2.31,-2.36,-46.23,-42.74,-13.94,-3.92,34.58,-15.23,-5.47,Right Fall while Sitting
10:36.1,493,490,735,834,329,2.11,474.06,1.61,20723.79,331,286,126.84,285,16087,16260,286,0.73,-0.72,0.02,-2.76,-1.24,-2.24,-45.02,-43.96,-14.22,-4.32,34.39,-15.45,-5.91,Right Fall while Sitting
10:36.2,607,494,741,834,327,2.13,469.83,1.6,20723.79,331,286,126.84,285,16087,32520,572,0.74,-0.72,-0.01,-2.27,-2.53,-1.24,-44.66,-44.34,-14.43,-4.89,34.34,-15.64,-6.47,Right Fall while Sitting
10:36.3,466,493,739.5,834,333,2.07,482.61,1.63,20723.79,331,286,126.84,285,16087,48780,858,0.72,-0.73,-0.01,-2.59,3.3,-4.63,-45.69,-43.3,-14.69,-4.73,33.85,-15.93,-6.27,Right Fall while Sitting
10:36.4,451,492,738,834,333,2.07,482.61,1.63,20723.79,331,285,126.84,285,16087,64469,1143,0.76,-0.71,0.01,1.08,2.19,-3.31,-43.42,-45.57,-14.48,-4.7,33.54,-15.64,-6.34,Right Fall while Sitting
10:36.6,612,495,742.5,834,326,2.14,467.72,1.59,20723.79,331,285,126.84,285,16087,80158,1428,0.76,-0.71,0.02,-2.58,-0.16,-14.92,-43.61,-45.36,-14.73,-4.97,31.77,-15.89,-6.59,Right Fall while Sitting
10:36.7,615,499,748.5,834,330,2.1,476.19,1.61,20723.79,331,286,126.84,285,16087,96418,1714,0.74,-0.67,0.03,2.17,8.07,-10.72,-42.93,-46.03,-14.39,-4.21,30.52,-15.53,-5.88,Right Fall while Sitting
10:36.8,410,496,744,834,334,2.06,484.76,1.63,20723.79,331,286,126.84,285,16087,112678,2000,0.76,-0.67,0.01,-2.56,-5.15,-3.15,-42.27,-46.73,-14.64,-5.11,30.22,-15.75,-6.77,Right Fall while Sitting
10:36.9,417,494,741,834,330,2.1,476.19,1.61,20723.79,331,286,126.84,285,16087,128938,2286,0.78,-0.67,0.01,-2.53,5.15,-11.45,-41.22,-47.78,-14.89,-4.71,28.88,-15.94,-6.44,Right Fall while Sitting
10:37.1,649,498,747,834,329,2.11,474.06,1.61,20723.79,331,287,126.84,285,16087,145771,2573,0.78,-0.67,0.01,-5.02,8.78,-29.27,-41.02,-47.97,-15.45,-3.86,25.29,-16.48,-5.62,Right Fall while Sitting
10:37.2,515,499,748.5,834,339,2.02,495.61,1.66,20723.79,331,288,127.74,286,16316,0,0,0.83,-0.6,0.08,-4.66,3.56,-29.09,-36.34,-52.27,-15.96,-3.67,21.78,-16.78,-5.61,Right Fall while Sitting
10:37.3,567,500,750,834,342,1.99,502.2,1.67,20723.79,331,288,127.74,286,16316,17408,288,0.85,-0.56,0.01,-4.95,13.75,-16.89,-33.9,-55.09,-16.51,-2.2,19.77,-17.2,-4.31,Right Fall while Sitting
10:37.4,904,510,765,904,335,2.05,486.92,1.64,20723.79,331,287,127.74,286,16316,34241,575,0.93,-0.54,0.07,-3.16,-7.71,-27.07,-30.74,-57.98,-16.84,-3.42,16.46,-17.39,-5.6,Right Fall while Sitting
10:37.6,717,515,772.5,904,337,2.04,491.25,1.65,20723.79,331,288,127.74,286,16316,51649,863,0.94,-0.46,0.04,-3.85,-12.5,-38.08,-26.72,-62.17,-17.25,-5.25,11.76,-17.63,-7.53,Right Fall while Sitting
10:37.7,550,516,774,904,341,2,500,1.67,20723.79,331,287,127.74,286,16316,68482,1150,0.99,-0.4,0.03,3.53,2.85,-38.69,-22.57,-66.38,-16.74,-5.14,6.98,-16.97,-7.59,Right Fall while Sitting
10:37.8,414,513,769.5,904,337,2.04,491.25,1.65,20723.79,331,288,127.74,286,16316,85890,1438,0.95,-0.28,-0.02,-1.93,11.22,-29.73,-17.12,-71.83,-16.91,-3.98,3.34,-16.92,-6.69,Right Fall while Sitting
10:37.9,604,515,772.5,904,332,2.08,480.46,1.62,20723.79,331,288,127.74,286,16316,103298,1726,0.96,-0.25,0,-11.5,-5.08,-22.55,-14.91,-74.08,-18.29,-4.87,0.59,-18.15,-7.64,Right Fall while Sitting
10:38.1,490,515,772.5,904,336,2.04,489.08,1.64,20723.79,331,287,127.74,286,16316,120131,2013,0.98,-0.21,0.03,-6.76,-0.74,-20.79,-12.6,-76.23,-19.07,-5.22,-1.93,-18.81,-8.06,Right Fall while Sitting
10:38.2,530,515,772.5,904,337,2.04,491.25,1.65,20723.79,331,285,127.74,286,16316,135820,2298,1.03,-0.18,-0.01,-3.57,1.53,-24.88,-10.69,-78.3,-19.45,-5.27,-4.96,-19.1,-8.2,Right Fall while Sitting
10:38.3,582,517,775.5,904,329,2.11,474.06,1.61,20723.79,331,286,127.74,286,16316,152080,2584,0.98,-0.09,0.02,-13.27,-9.32,-23.89,-5.69,-83.13,-21.06,-6.71,-7.9,-20.45,-9.77,Right Fall while Sitting
10:38.4,483,516,774,904,335,2.05,486.92,1.64,20723.87,336,286,129.75,287,16833,0,0,0.99,-0.09,-0.03,-5.05,-6.05,-15,-5.82,-82.86,-21.62,-7.71,-9.66,-20.99,-10.72,Right Fall while Sitting
10:38.6,427,514,771,904,339,2.02,495.61,1.66,20723.87,336,286,129.75,287,16833,16260,286,0.96,-0.01,-0.08,-11.77,14.51,-17.68,-1.28,-83.53,-23.03,-6.13,-11.79,-22.16,-9.23,Right Fall while Sitting
10:38.7,434,513,769.5,904,335,2.05,486.92,1.64,20723.87,336,287,129.75,287,16833,33093,573,1.01,-0.01,-0.04,-9.17,-5.05,5.77,-1.31,-86.23,-24.13,-7.03,-10.95,-23.21,-10.2,Right Fall while Sitting
10:38.8,378,510,765,904,334,2.06,484.76,1.63,20723.87,336,286,129.75,287,16833,49353,859,1.06,-0.08,0.01,-5.15,1.93,-4.08,-4.81,-84.14,-24.7,-7.04,-11.37,-23.91,-10.12,Right Fall while Sitting
10:38.9,406,508,762,904,341,2,500,1.67,20723.87,336,287,129.75,287,16833,66186,1146,1.04,-0.04,0,-3.79,-6.01,-15.62,-2.67,-86.32,-25.11,-8.04,-13.22,-24.21,-11.17,Right Fall while Sitting
10:39.1,431,507,760.5,904,341,2,500,1.67,20723.87,336,287,129.75,287,16833,83019,1433,0.97,0.02,-0.07,1.73,-6.15,-5.89,0.48,-84.21,-24.82,-9.07,-13.87,-23.81,-12.08,Right Fall while Sitting
10:39.2,490,506,759,904,336,2.04,489.08,1.64,20723.87,336,289,129.75,287,16833,101004,1722,1.01,0.01,-0.06,0.25,9.82,4.35,-0.17,-85.07,-24.72,-8.09,-13.22,-23.73,-11.17,Right Fall while Sitting
10:39.3,469,506,759,904,340,2.01,497.8,1.66,20723.87,336,288,129.75,287,16833,118412,2010,1.05,-0.02,-0.02,-1.54,0.08,5.24,-1.46,-86.83,-24.84,-8.33,-12.47,-23.9,-11.47,Right Fall while Sitting
10:39.5,490,505,757.5,904,344,1.97,506.63,1.68,20723.87,336,288,129.75,287,16833,135820,2298,1.04,-0.04,-0.02,-3.75,1.57,-4.82,-2.58,-86.02,-25.24,-8.38,-12.97,-24.33,-11.49,Right Fall while Sitting
10:39.6,354,503,754.5,904,336,2.04,489.08,1.64,20723.87,336,288,129.75,287,16833,153228,2586,0.99,0.01,-0.03,-0.8,2,-2.05,-0.28,-86.41,-25.27,-8.38,-13.13,-24.27,-11.5,Right Fall while Sitting
10:39.7,413,501,751.5,904,337,2.04,491.25,1.65,20723.9,338,290,131.07,287,17178,0,0,1.01,-0.02,-0.01,-3.13,1.8,6.82,-1.64,-87.29,-25.59,-8.41,-12.19,-24.63,-11.56,Right Fall while Sitting
10:39.8,495,501,751.5,904,343,1.98,504.41,1.68,20723.9,338,290,131.07,287,17178,18564,290,1.06,-0.04,-0.02,-0.08,0.26,-0.1,-3.02,-85.73,-25.53,-8.63,-12.1,-24.63,-11.71,Right Fall while Sitting
10:40.0,664,504,756,904,334,2.06,484.76,1.63,20723.9,338,286,131.07,287,17178,34824,576,1.02,-0.03,-0.02,-0.4,1.76,-6.63,-2.45,-86.28,-25.51,-8.66,-12.84,-24.59,-11.76,Right Fall while Sitting
10:40.1,811,509,763.5,904,318,2.22,451.06,1.55,20723.9,338,285,131.07,287,17178,50513,861,1,0,-0.05,-3.86,-3.66,0.63,-0.76,-85.43,-25.92,-9.37,-12.66,-24.92,-12.41,Right Fall while Sitting
10:43.8,669,669,1003.5,669,311,2.29,436.8,1.52,0,0,285,0,0,0,31378,570,0.93,0.01,0.08,-4.05,-1.92,0.24,0.32,-83.38,-1.36,-0.8,-0.18,-1.3,-4.1,Forward Fall while Sitting
10:43.9,492,580,870,669,312,2.28,438.82,1.52,0,0,284,0,0,0,46498,854,0.99,-0.02,0.09,-5.18,-10.93,6.3,-1.51,-82.87,-1.93,-2.39,0.69,-1.91,-5.61,Forward Fall while Sitting
10:44.0,421,527,790.5,669,309,2.31,432.77,1.51,0,0,285,0,0,0,62187,1139,1.01,-0.05,0.09,2.56,1.35,1.06,-3.37,-82.64,-1.55,-2.47,0.92,-1.62,-5.68,Forward Fall while Sitting
10:44.1,228,452,678,669,305,2.35,424.79,1.49,0,0,284,0,0,0,77307,1423,1.01,-0.03,0.04,4.2,-2.25,7.66,-2.34,-85.72,-0.97,-2.99,1.95,-1.02,-6.3,Forward Fall while Sitting
10:44.2,673,496,744,673,302,2.39,418.86,1.48,0,0,285,0,0,0,92996,1708,1.07,-0.08,0.05,0.53,-7.44,8.28,-4.97,-83.31,-0.83,-4.15,3.07,-1,-7.31,Forward Fall while Sitting
10:44.4,993,579,868.5,993,302,2.39,418.86,1.48,0,0,285,0,0,0,108685,1993,1.05,-0.08,0.05,3.4,-3.56,-2.35,-4.9,-83.42,-0.35,-4.82,2.88,-0.53,-7.97,Forward Fall while Sitting
10:44.5,893,624,936,993,305,2.35,424.79,1.49,0,0,285,0,0,0,124374,2278,1,-0.07,0.04,-0.54,-9.96,-6.05,-4.6,-83.89,-0.35,-6.29,2.23,-0.52,-9.4,Forward Fall while Sitting
10:44.6,504,609,913.5,993,309,2.31,432.77,1.51,0,0,285,0,0,0,140063,2563,1,-0.06,-0.03,-4.44,-34.95,-1.87,-4.04,-84.47,-0.83,-10.84,2.1,-0.96,-13.78,Forward Fall while Sitting
10:44.7,514,598,897,993,314,2.26,442.88,1.53,149.53,307,285,124.8,284,15574,0,0,1,-0.05,-0.05,-0.37,-16.1,5.2,-3.24,-84.3,-0.81,-13.1,2.85,-0.9,-15.95,Forward Fall while Sitting
10:44.9,551,593,889.5,993,310,2.3,434.78,1.52,149.53,307,285,124.8,284,15574,15689,285,1,-0.09,-0.14,0.21,-19.2,8.85,-5.72,-78.89,-0.71,-15.75,4.05,-0.91,-18.28,Forward Fall while Sitting
10:45.0,433,579,868.5,993,299,2.42,412.98,1.46,149.53,307,285,124.8,284,15574,31378,570,1.04,-0.12,-0.16,-4.16,-37.15,7.58,-7.1,-77.7,-1.16,-20.64,5.1,-1.4,-22.93,Forward Fall while Sitting
10:45.1,360,560,840,993,303,2.38,420.83,1.48,149.53,307,285,124.8,284,15574,47067,855,0.98,-0.13,-0.23,1.95,-36.39,8.53,-7.81,-73.49,-0.84,-25.44,6.27,-1.12,-27.36,Forward Fall while Sitting
10:45.2,607,564,846,993,290,2.53,395.63,1.42,149.53,307,287,124.8,284,15574,63900,1142,0.94,-0.17,-0.33,3.5,-45.78,4.81,-10.51,-66.97,-0.34,-31.41,6.97,-0.74,-32.84,Forward Fall while Sitting
10:45.4,5,524,786,993,244,3.19,313.22,1.19,149.53,307,292,124.8,284,15574,83628,1434,1.04,-0.17,-0.69,0.01,-71.62,10.37,-8.44,-54.18,-0.27,-40.62,8.36,-0.59,-41.16,Forward Fall while Sitting
10:45.5,811,543,814.5,993,219,3.67,272.39,1.07,149.53,307,296,124.8,284,15574,105708,1730,0.88,-0.14,-0.59,-3.5,-74.75,6.02,-8.21,-53.7,-0.64,-50.29,9.22,-0.94,-50.42,Forward Fall while Sitting
10:45.6,983,571,856.5,993,222,3.61,277.15,1.09,149.53,307,300,124.8,284,15574,130172,2030,0.74,-0.19,-0.63,-5.94,-34.48,3.53,-11.86,-46.75,-1.31,-54.85,9.76,-1.73,-54.52,Forward Fall while Sitting
10:45.7,992,595,892.5,993,233,3.39,294.94,1.14,149.53,307,595,124.8,284,15574,156517,2625,0.72,-0.21,-0.76,-3.98,-46.31,5.57,-11.94,-40.83,-1.74,-60.93,10.56,-2.15,-60.13,Forward Fall while Sitting
10:45.9,991,617,925.5,993,221,3.63,275.56,1.08,149.53,307,739,124.8,284,15574,178350,3364,0.67,-0.18,-0.87,-4.23,-32.37,0.16,-9.76,-35.44,-2.2,-65.27,10.68,-2.51,-64.07,Forward Fall while Sitting
10:46.0,986,637,955.5,993,214,3.78,264.52,1.05,34.28,255,764,131.23,412,17221,0,0,0.56,-0.19,-0.92,-4.86,-35.28,3.07,-10.38,-29.06,-2.74,-69.89,11.16,-3.04,-68.26,Forward Fall while Sitting
10:46.1,989,654,981,993,224,3.57,280.35,1.09,34.28,255,791,131.23,412,17221,4294937617,791,0.53,-0.19,-0.9,-0.76,-26.64,5.13,-10.71,-28.51,-2.76,-73.47,11.9,-3.08,-71.67,Forward Fall while Sitting
10:46.2,994,670,1005,994,230,3.45,290.04,1.12,34.28,255,845,131.23,412,17221,4294930746,1636,0.47,-0.19,-0.97,-3.11,-31.63,7.73,-10.5,-23.8,-3.09,-77.74,12.98,-3.38,-75.58,Forward Fall while Sitting
10:46.4,994,685,1027.5,994,215,3.76,266.09,1.05,34.28,255,842,131.23,412,17221,4294918814,2478,0.43,-0.21,-0.98,-4.89,-18.1,6.53,-11.47,-21.86,-3.63,-80.27,13.91,-3.95,-77.94,Forward Fall while Sitting
10:46.5,993,698,1047,994,222,3.61,277.15,1.09,34.28,255,838,131.23,412,17221,4294900162,3316,0.4,-0.22,-0.99,-3.43,-18.95,4.96,-12.2,-19.82,-4,-82.93,14.64,-4.32,-80.41,Forward Fall while Sitting
10:46.6,994,711,1066.5,994,232,3.41,293.3,1.13,34.28,255,848,131.23,412,17221,4294898370,4164,0.35,-0.19,-0.99,-0.45,-20.45,0.09,-10.79,-17.82,-3.98,-85.76,14.75,-4.25,-83.04,Forward Fall while Sitting
10:46.7,993,722,1083,994,218,3.69,270.81,1.07,34.28,255,841,131.23,412,17221,4294884755,5005,0.26,-0.18,-1.06,-5.67,-19.96,1.82,-10.1,-12.15,-4.63,-88.55,15.08,-4.85,-85.5,Forward Fall while Sitting
10:46.9,439,711,1066.5,994,219,3.67,272.39,1.07,34.28,255,835,131.23,412,17221,4294861084,5840,0.25,-0.2,-1.05,-6.08,-8.8,3.82,-11.18,-11.76,-5.33,-89.91,15.66,-5.56,-86.79,Forward Fall while Sitting
10:47.0,0,685,1027.5,994,231,3.43,291.67,1.13,34.28,255,841,131.23,412,17221,4294847469,6681,0.24,-0.19,-1.03,-6.89,-12.58,2.76,-10.98,-11.37,-6.12,-91.75,16.11,-6.32,-88.53,Forward Fall while Sitting
10:47.1,275,670,1005,994,221,3.63,275.56,1.08,34.28,255,841,131.23,412,17221,4294833854,7522,0.22,-0.2,-1.07,-5.47,-6.25,4.42,-11.18,-9.75,-6.75,-92.8,16.77,-6.93,-89.48,Forward Fall while Sitting
10:47.2,513,665,997.5,994,215,3.76,266.09,1.05,20723.92,222,835,20723.92,835,429481024,0,0,0.21,-0.19,-1.01,-1.32,-4.5,-0.21,-11.27,-9.83,-6.84,-93.61,16.84,-7.02,-90.26,Forward Fall while Sitting
10:47.4,239,650,975,994,226,3.53,283.56,1.1,20723.92,222,839,20723.92,835,429481024,4294950321,839,0.18,-0.19,-1.07,-0.63,-2.79,0.28,-10.67,-7.97,-6.85,-94.22,16.98,-7,-90.77,Forward Fall while Sitting
10:47.5,508,646,969,994,278,2.68,373.15,1.36,20723.92,222,663,20723.92,835,429481024,4294931138,1502,0.19,-0.2,-1.14,-2.08,1.12,-4.56,-10.56,-7.7,-7.04,-94.34,16.5,-7.19,-90.87,Forward Fall while Sitting
10:47.6,992,657,985.5,994,304,2.37,422.81,1.49,20723.92,222,295,20723.92,835,429481024,4294952627,1797,0.19,-0.19,-1.03,-0.07,2.44,-3.02,-10.77,-8.63,-6.98,-94.28,16.21,-7.13,-90.85,Forward Fall while Sitting
10:47.8,992,667,1000.5,994,320,2.2,455.19,1.56,20723.92,222,291,20723.92,835,429481024,4476,2088,0.19,-0.2,-1.07,-1.6,-1.38,-2.11,-10.83,-8.31,-7.11,-94.71,16.05,-7.26,-91.25,Forward Fall while Sitting
10:47.9,992,676,1014,994,312,2.28,438.82,1.52,20723.92,222,288,20723.92,835,429481024,21884,2376,0.18,-0.19,-1.08,-1.56,3.25,-3.4,-10.38,-7.9,-7.24,-94.55,15.71,-7.37,-91.08,Forward Fall while Sitting
10:48.0,992,685,1027.5,994,313,2.27,440.85,1.53,20723.92,222,287,20723.92,835,429481024,38717,2663,0.2,-0.18,-1.03,-1.88,7.62,-0.32,-10.47,-9.42,-7.41,-93.84,15.77,-7.53,-90.46,Forward Fall while Sitting
10:48.1,852,690,1035,994,321,2.19,457.26,1.57,20723.92,222,286,20723.92,835,429481024,54977,2949,0.22,-0.2,-1.07,-0.23,7.81,-2.12,-10.92,-9.92,-7.36,-93.1,15.6,-7.51,-89.78,Forward Fall while Sitting
10:48.3,160,676,1014,994,312,2.28,438.82,1.52,20723.92,222,285,20723.92,835,429481024,70666,3234,0.24,-0.21,-1.12,0.4,30.15,-7.96,-10.87,-10.4,-7.24,-89.53,14.69,-7.39,-86.36,Forward Fall while Sitting
10:48.4,153,662,993,994,315,2.25,444.92,1.54,20723.92,222,285,20723.92,835,429481024,86355,3519,0.36,-0.16,-1.11,-3.07,55.3,-7.27,-8.31,-16.18,-7.56,-82.76,13.87,-7.59,-80.1,Forward Fall while Sitting
10:48.5,0,645,967.5,994,320,2.2,455.19,1.56,17.29,302,285,101.01,380,10203,0,0,0.45,-0.18,-1,-2.36,64.86,-7.79,-9.88,-22.47,-7.78,-74.97,13,-7.87,-72.87,Forward Fall while Sitting
10:48.6,0,629,943.5,994,317,2.23,449.01,1.55,17.29,302,285,101.01,380,10203,15689,285,0.59,-0.19,-0.88,-0.61,62.71,-12.31,-10.93,-31.72,-7.79,-67.38,11.56,-7.92,-65.95,Forward Fall while Sitting
10:48.8,21,614,921,994,311,2.29,436.8,1.52,17.29,302,285,101.01,380,10203,31378,570,0.65,-0.17,-0.8,3.69,51.6,-9.27,-9.62,-36.93,-7.26,-61.18,10.5,-7.35,-60.21,Forward Fall while Sitting
10:48.9,0,599,898.5,994,316,2.24,446.96,1.54,17.29,302,284,101.01,380,10203,46498,854,0.76,-0.16,-0.71,9.34,58.74,-3.48,-9.61,-44.44,-6.02,-54.08,10.17,-6.16,-53.7,Forward Fall while Sitting
10:49.0,0,585,877.5,994,322,2.18,459.34,1.57,17.29,302,285,101.01,380,10203,62187,1139,0.83,-0.19,-0.65,13.78,58.45,-6.94,-10.7,-49.16,-4.23,-47.03,9.4,-4.49,-47.11,Forward Fall while Sitting
10:49.1,239,577,865.5,994,321,2.19,457.26,1.57,17.29,302,285,101.01,380,10203,77876,1424,0.88,-0.19,-0.54,5.88,51.63,-4.58,-10.89,-55.43,-3.43,-40.87,8.93,-3.73,-41.46,Forward Fall while Sitting
10:49.3,702,580,870,994,309,2.31,432.77,1.51,17.29,302,285,101.01,380,10203,93565,1709,0.94,-0.2,-0.43,13.02,67.1,-3.01,-11.59,-61.54,-1.73,-32.74,8.65,-2.13,-33.89,Forward Fall while Sitting
10:49.4,805,585,877.5,994,311,2.29,436.8,1.52,17.29,302,285,101.01,380,10203,109254,1994,1.57,-0.22,-0.85,-20.89,-12.35,-0.38,-7.49,-59.12,-4.29,-34.54,8.7,-4.42,-35.53,Forward Fall while Sitting
10:49.5,571,585,877.5,994,317,2.23,449.01,1.55,17.29,302,285,101.01,380,10203,124943,2279,0.98,-0.17,-0.28,15.86,12.83,-0.83,-10.25,-69.94,-2.22,-33.18,8.7,-2.54,-34.65,Forward Fall while Sitting
10:49.6,418,581,871.5,994,312,2.28,438.82,1.52,17.29,302,285,101.01,380,10203,140632,2564,0.99,-0.23,-0.34,8.76,37.59,-0.31,-12.94,-65.87,-1.06,-28.73,8.76,-1.53,-30.22,Forward Fall while Sitting
10:49.8,481,579,868.5,994,307,2.33,428.77,1.5,22.43,314,285,125.03,284,15631,0,0,0.97,-0.27,-0.26,8.24,47.25,-0.6,-15.83,-67.01,0.03,-23.12,8.78,-0.6,-24.88,Forward Fall while Sitting
10:49.9,388,575,862.5,994,310,2.3,434.78,1.52,22.43,314,284,125.03,284,15631,15120,284,1,-0.2,-0.13,-9.68,51.43,-2.84,-12.06,-74.65,-1.11,-16.94,8.52,-1.55,-19.25,Forward Fall while Sitting
10:50.0,0,564,846,994,298,2.43,411.03,1.46,22.43,314,0,125.03,284,15631,15120,284,0.45,-0.24,0.38,-8.79,42.07,-8.38,-22.48,-43.62,-2.13,-11.97,7.58,-2.94,-13.24,Forward Fall while Sitting
10:50.1,0,553,829.5,994,233,3.39,294.94,1.14,22.43,314,0,125.03,284,15631,15120,284,0.96,-0.19,0.09,-21.39,7.93,-4.02,-11.48,-76.37,-4.73,-11.23,7.18,-5,-13.84,Forward Fall while Sitting
10:50.3,0,543,814.5,994,187,4.47,223.68,0.91,22.43,314,0,125.03,284,15631,15120,284,0.99,-0.21,0.18,-21.63,-9.82,-6.42,-12.4,-72.93,-7.34,-12.7,6.48,-7.55,-15.11,Forward Fall while Sitting
10:50.4,0,533,799.5,994,175,4.85,206.37,0.86,22.43,314,0,125.03,284,15631,15120,284,1.01,-0.17,0.04,-5.37,4.52,-16.02,-10.36,-78.4,-7.94,-12.38,4.58,-8.04,-15.02,Forward Fall while Sitting
10:50.5,0,523,784.5,994,178,4.75,210.65,0.87,22.43,314,2,125.03,284,15631,15124,286,1,-0.17,0.04,-10.11,1.44,-6.78,-9.97,-78.82,-9.13,-12.45,3.83,-9.16,-15.11,Forward Fall while Sitting
10:50.6,132,516,774,994,182,4.62,216.41,0.89,22.43,314,33,125.03,284,15631,16213,319,1,-0.15,0.11,-14.25,-8.93,-4.25,-9.06,-77.84,-10.84,-13.82,3.4,-10.77,-16.38,Forward Fall while Sitting
