Datetime, ECGR , AvgECG , ampECG , MAX , GSRR , Resistance , GSR(kohm) , SCL , GSRRMS , GSRMAV , EMGR , EMGRMS , EMGMAV , EMGVAR , EMGSSI , IEMG , AccX , AccY, AccZ , GyroX , GyroY , GyroZ , Aroll , Apitch , Groll , Gpitch, Gy , Combroll , Combpitch,Features
50:29.5,844,844,1266,844,317,2.23,449.01,1.55,0,0,284,0,0,0,30809,569,1.02,0,-0.08,0.14,-4.85,-3.13,-0.65,-83.77,0.38,-1.63,-0.36,0.34,-4.92,Standing
50:29.6,455,649,973.5,844,319,2.21,453.13,1.56,0,0,285,0,0,0,46498,854,1,0.01,-0.14,0.69,6.06,-4.18,0.06,-80.69,0.53,-1.13,-0.77,0.51,-4.31,Standing
50:29.7,441,580,870,844,318,2.22,451.06,1.55,0,0,285,0,0,0,62187,1139,0.98,0.01,-0.08,-7.58,10.41,2.54,-0.03,-83.61,-0.32,-0.1,-0.37,-0.31,-3.44,Standing
50:29.8,0,435,652.5,844,313,2.27,440.85,1.53,0,0,285,0,0,0,77876,1424,1.04,0,-0.07,-11.29,-6.13,6.15,-0.34,-84.82,-1.63,-1.1,0.48,-1.58,-4.44,Standing
50:30.0,176,383,574.5,844,308,2.32,430.77,1.51,0,0,284,0,0,0,92996,1708,1.06,-0.04,-0.05,-3.15,2.44,-3.47,-2.52,-85.29,-1.95,-1.04,0.15,-1.97,-4.41,Standing
50:30.1,610,421,631.5,844,305,2.35,424.79,1.49,0,0,284,0,0,0,108116,1992,1.02,0,-0.08,-4.41,0.22,-8.04,-0.83,-83.81,-2.42,-1.26,-0.73,-2.36,-4.56,Standing
50:30.2,873,485,727.5,873,308,2.32,430.77,1.51,0,0,284,0,0,0,123236,2276,0.98,0.01,-0.07,-6.86,1.7,-3.11,-0.14,-84.05,-3.2,-1.3,-1.02,-3.07,-4.61,Standing
50:30.3,942,542,813,942,312,2.28,438.82,1.52,0,0,284,0,0,0,138356,2560,1.01,0,-0.07,-7.07,-2.43,3.96,-0.8,-84.46,-4,-1.84,-0.43,-3.87,-5.15,Standing
50:30.5,626,551,826.5,942,315,2.25,444.92,1.54,77.38,312,284,123.88,284,15346,0,0,1.05,-0.01,-0.07,-1.2,1.04,-3.75,-1.26,-84.66,-4.08,-1.96,-0.8,-3.96,-5.27,Standing
50:30.6,53,502,753,942,316,2.24,446.96,1.54,77.38,312,285,123.88,284,15346,15689,285,1,0.02,-0.09,-2.25,-7.47,-5.58,0.35,-83.43,-4.29,-3.14,-1.4,-4.1,-6.36,Standing
50:30.7,126,467,700.5,942,306,2.34,426.78,1.5,77.38,312,284,123.88,284,15346,30809,569,0.97,0.02,-0.09,2.34,-1.61,-1.13,0.48,-82.99,-3.93,-3.59,-1.44,-3.75,-6.77,Standing
50:30.8,769,492,738,942,305,2.35,424.79,1.49,77.38,312,284,123.88,284,15346,45929,853,1.01,0.01,-0.1,4.11,9.13,6.01,0.07,-82.56,-3.34,-2.7,-0.59,-3.21,-5.9,Standing
50:30.9,990,531,796.5,990,309,2.31,432.77,1.51,77.38,312,284,123.88,284,15346,61049,1137,1.05,0,-0.12,-1.76,13.92,2.78,-0.51,-81.74,-3.49,-1.22,-0.15,-3.37,-4.44,Standing
50:31.1,443,524,786,990,314,2.26,442.88,1.53,77.38,312,285,123.88,284,15346,76738,1422,1.04,0,-0.02,-4.18,16.24,-3.6,-0.73,-87.16,-3.95,0.56,-0.5,-3.82,-2.95,Standing
50:31.2,0,489,733.5,990,311,2.29,436.8,1.52,77.38,312,284,123.88,284,15346,91858,1706,1,-0.02,0.02,-4.45,-3.17,-4.03,-1.53,-87.13,-4.43,-0.08,-0.9,-4.31,-3.57,Standing
50:31.3,430,486,729,990,302,2.39,418.86,1.48,77.38,312,284,123.88,284,15346,106978,1990,1.03,0.01,0,0.69,-6.29,-0.92,0.25,-87.57,-4.27,-1.12,-0.92,-4.09,-4.58,Standing
50:31.4,994,516,774,994,305,2.35,424.79,1.49,77.38,312,284,123.88,284,15346,122098,2274,1.03,0,-0.06,1.13,-7.03,-2.56,-0.38,-85.07,-4.06,-2.25,-1.14,-3.91,-5.56,Standing
50:31.6,645,523,784.5,994,311,2.29,436.8,1.52,77.38,312,284,123.88,284,15346,137218,2558,1.01,0.01,-0.06,-1.42,-3.14,-3.41,0.18,-84.66,-4.17,-2.89,-1.47,-3.99,-6.16,Standing
50:31.7,0,495,742.5,994,312,2.28,438.82,1.52,130.07,309,285,123.65,284,15289,0,0,1.02,0.02,-0.04,-1.29,-1.29,-0.67,0.62,-85.7,-4.26,-3.29,-1.45,-4.06,-6.59,Standing
50:31.8,89,475,712.5,994,305,2.35,424.79,1.49,130.07,309,284,123.65,284,15289,15120,284,1.01,0.01,-0.06,0.27,-7.56,-0.82,0.25,-84.92,-4.15,-4.49,-1.45,-3.98,-7.7,Standing
50:31.9,779,489,733.5,994,306,2.34,426.78,1.5,130.07,309,284,123.65,284,15289,30240,568,1.01,0.01,-0.1,0.06,-6.53,0.22,-0.25,-82.64,-4.08,-5.54,-1.33,-3.92,-8.63,Standing
50:32.1,996,512,768,996,323,2.17,461.43,1.58,130.07,309,284,123.65,284,15289,45360,852,1.03,0,-0.11,1.8,5.63,0.31,-0.45,-82.32,-3.78,-5.09,-1.19,-3.65,-8.18,Standing
50:32.2,571,515,772.5,996,339,2.02,495.61,1.66,130.07,309,284,123.65,284,15289,60480,1136,1.03,0,-0.11,-5.5,1.96,-0.66,-0.74,-82.18,-4.39,-5.09,-1.17,-4.25,-8.18,Standing
50:32.3,184,501,751.5,996,344,1.97,506.63,1.68,130.07,309,284,123.65,284,15289,75600,1420,1.01,0.02,-0.07,-6.02,6.86,-2.11,0.51,-84.14,-5.08,-4.49,-1.34,-4.85,-7.67,Standing
50:32.4,583,504,756,996,343,1.98,504.41,1.68,130.07,309,284,123.65,284,15289,90720,1704,1.02,0.01,-0.03,-3.34,5.21,-0.48,-0.11,-86.44,-5.42,-4.08,-1.3,-5.21,-7.38,Standing
50:32.6,857,518,777,996,346,1.96,511.08,1.69,130.07,309,284,123.65,284,15289,105840,1988,1.02,0.01,-0.03,0.02,0.59,0.14,-0.2,-86.42,-5.35,-4.26,-1.18,-5.15,-7.55,Standing
50:32.7,615,521,781.5,996,349,1.93,517.8,1.71,130.07,309,284,123.65,284,15289,120960,2272,1.01,0,-0.08,0.03,-5.21,0.54,-0.48,-84.06,-5.28,-5.16,-1.02,-5.09,-8.32,Standing
50:32.8,28,504,756,996,344,1.97,506.63,1.68,130.07,309,284,123.65,284,15289,136080,2556,1.03,0,-0.08,0.97,-0.37,-1.02,-0.39,-84,-5.09,-5.46,-1.05,-4.9,-8.6,Standing
50:32.9,276,496,744,996,332,2.08,480.46,1.62,20724.14,333,284,122.96,284,15119,0,0,1.02,0,-0.09,-1.4,0.99,-2.11,-0.76,-83.29,-5.19,-5.58,-1.21,-5.01,-8.69,Standing
50:33.1,782,505,757.5,996,329,2.11,474.06,1.61,20724.14,333,284,122.96,284,15119,15120,284,1.01,0,-0.09,-3.66,5.11,-1.11,-0.7,-83.53,-5.58,-5.2,-1.25,-5.38,-8.33,Standing
50:33.2,685,511,766.5,996,330,2.1,476.19,1.61,20724.14,333,284,122.96,284,15119,30240,568,1.03,0,-0.05,-2.6,3.33,0.1,-0.77,-85.35,-5.83,-5.03,-1.14,-5.63,-8.24,Standing
50:33.3,45,497,745.5,996,329,2.11,474.06,1.61,20724.14,333,284,122.96,284,15119,45360,852,1.03,0,-0.05,0.15,-2.4,-1.76,-0.81,-85.41,-5.75,-5.58,-1.26,-5.55,-8.77,Standing
50:33.4,197,488,732,996,317,2.23,449.01,1.55,20724.14,333,284,122.96,284,15119,60480,1136,1.01,0.01,-0.1,-0.06,1,-0.19,-0.26,-82.81,-5.68,-5.7,-1.18,-5.47,-8.79,Standing
50:33.6,883,499,748.5,996,317,2.23,449.01,1.55,20724.14,333,284,122.96,284,15119,75600,1420,1.02,-0.01,-0.08,-2.08,2.12,0.62,-1.21,-83.78,-5.87,-5.69,-1.01,-5.69,-8.81,Standing
50:33.7,720,505,757.5,996,321,2.19,457.26,1.57,20724.14,333,284,122.96,284,15119,90720,1704,1.03,-0.01,-0.06,-3.46,2.27,-2.32,-1.18,-84.89,-6.24,-5.65,-1.2,-6.03,-8.82,Standing
50:33.8,53,493,739.5,996,323,2.17,461.43,1.58,20724.14,333,285,122.96,284,15119,106409,1989,1.01,0,-0.06,-1.37,-0.46,-2.28,-0.32,-84.73,-6.34,-5.96,-1.39,-6.1,-9.12,Standing
50:33.9,643,497,745.5,996,314,2.26,442.88,1.53,20724.14,333,284,122.96,284,15119,121529,2273,1.02,0.01,-0.07,-0.99,-1.17,-0.13,-0.25,-84.47,-6.39,-6.36,-1.31,-6.15,-9.49,Standing
50:34.1,987,510,765,996,316,2.24,446.96,1.54,20724.14,333,284,122.96,284,15119,136649,2557,1.02,-0.01,-0.09,-2.74,-2.36,1.02,-1.06,-83.39,-6.67,-6.91,-1.08,-6.44,-9.97,Standing
50:34.2,557,511,766.5,996,321,2.19,457.26,1.57,20723.64,321,284,123.19,284,15175,0,0,1.03,-0.01,-0.08,-0.11,4.89,-1.68,-1.2,-84.05,-6.61,-6.55,-1.19,-6.39,-9.65,Standing
50:34.3,25,499,748.5,996,320,2.2,455.19,1.56,20723.64,321,284,123.19,284,15175,15120,284,1.03,-0.01,-0.06,-2.26,-0.54,-2.81,-1.16,-85.3,-6.82,-6.87,-1.44,-6.6,-10.01,Standing
50:34.4,391,496,744,996,311,2.29,436.8,1.52,20723.64,321,284,123.19,284,15175,30240,568,1,0.01,-0.08,-1.92,-1.82,-0.91,-0.26,-83.62,-6.99,-7.35,-1.46,-6.72,-10.4,Standing
50:34.6,983,508,762,996,314,2.26,442.88,1.53,20723.64,321,284,123.19,284,15175,45360,852,1.03,-0.01,-0.08,-1.45,-0.27,1.56,-0.99,-83.77,-7.11,-7.63,-1.16,-6.86,-10.68,Standing
50:34.7,547,509,763.5,996,320,2.2,455.19,1.56,20723.64,321,285,123.19,284,15175,61049,1137,1.03,-0.02,-0.09,-1.37,-0.09,-2.17,-1.79,-83.12,-7.21,-7.9,-1.33,-6.99,-10.9,Standing
50:34.8,2,497,745.5,996,316,2.24,446.96,1.54,20723.64,321,284,123.19,284,15175,76169,1421,1.02,-0.01,-0.1,-3.76,0.51,-2.48,-1,-82.54,-7.61,-8.08,-1.54,-7.35,-11.06,Standing
50:34.9,660,501,751.5,996,310,2.3,434.78,1.52,20723.64,321,284,123.19,284,15175,91289,1705,0.98,0.01,-0.1,-4.13,0.03,-2.21,-0.23,-82.8,-8.05,-8.33,-1.72,-7.74,-11.31,Standing
50:35.1,957,511,766.5,996,315,2.25,444.92,1.54,20723.64,321,284,123.19,284,15175,106409,1989,0.99,-0.01,-0.08,-4.24,-2.56,5.37,-1.22,-83.83,-8.52,-8.9,-0.94,-8.22,-11.9,Standing
50:35.2,232,505,757.5,996,321,2.19,457.26,1.57,20723.64,321,284,123.19,284,15175,121529,2273,1.05,-0.03,-0.08,-3.42,-0.34,5.34,-2.1,-83.56,-8.87,-9.19,-0.18,-8.6,-12.17,Standing
50:35.3,145,497,745.5,996,311,2.29,436.8,1.52,20723.64,321,284,123.19,284,15175,136649,2557,1.06,-0.02,-0.11,-2.85,10.58,0.56,-1.89,-82.48,-9.16,-8.11,-0.01,-8.87,-11.09,Standing
50:35.4,919,506,759,996,310,2.3,434.78,1.52,20724.16,314,284,123.19,284,15175,0,0,1.05,-0.06,-0.06,-11.31,13.31,-6.19,-4.02,-83.69,-10.5,-6.7,-0.68,-10.25,-9.78,Standing
50:35.6,789,511,766.5,996,316,2.24,446.96,1.54,20724.16,314,285,123.19,284,15175,15689,285,1,-0.02,0.01,-12.27,-1.92,-12.56,-1.79,-87.12,-11.97,-7.19,-2.16,-11.56,-10.39,Standing
50:35.7,20,502,753,996,318,2.22,451.06,1.55,20724.16,314,284,123.19,284,15175,30809,569,0.96,0.04,0,-0.89,-10,-3.86,1.89,-85.94,-12.01,-8.7,-2.54,-11.46,-11.79,Standing
50:35.8,435,501,751.5,996,308,2.32,430.77,1.51,20724.16,314,284,123.19,284,15175,45929,853,1,0.01,-0.06,8.03,-17.36,7.6,0.23,-84.61,-10.93,-11.14,-1.49,-10.48,-14.08,Standing
50:35.9,984,510,765,996,312,2.28,438.82,1.52,20724.16,314,284,123.19,284,15175,61049,1137,1.05,-0.04,-0.15,8.15,-5.13,6.66,-2.53,-80.03,-9.83,-12.04,-0.55,-9.54,-14.76,Standing
50:36.1,391,507,760.5,996,318,2.22,451.06,1.55,20724.16,314,284,123.19,284,15175,76169,1421,1.02,-0.04,-0.14,3.12,21.95,-2.22,-2.9,-80.36,-9.37,-9.55,-0.73,-9.11,-12.38,Standing
50:36.2,23,499,748.5,996,313,2.27,440.85,1.53,20724.16,314,285,123.19,284,15175,91858,1706,1.01,-0.03,-0.07,-12.06,5.37,3.43,-2.01,-84.28,-10.82,-9.12,-0.19,-10.47,-12.13,Standing
50:36.3,797,504,756,996,307,2.33,428.77,1.5,20724.16,314,284,123.19,284,15175,106978,1990,1.05,-0.01,-0.04,-3.21,3.32,-1.29,-1.39,-85.91,-11.15,-8.95,-0.26,-10.76,-12.03,Standing
50:36.5,992,512,768,996,315,2.25,444.92,1.54,20724.16,314,284,123.19,284,15175,122098,2274,1.02,-0.03,-0.05,1.31,0.37,-3.4,-2.12,-85.24,-10.92,-9.16,-0.59,-10.57,-12.2,Standing
50:36.6,1,504,756,996,317,2.23,449.01,1.55,20724.16,314,285,123.19,284,15175,137787,2559,1.01,-0.03,-0.08,1.72,7.11,-1.79,-2.02,-83.78,-10.63,-8.52,-0.71,-10.29,-11.53,Standing
50:36.7,402,502,753,996,307,2.33,428.77,1.5,20724.3,313,284,123.65,284,15289,0,0,1,-0.03,-0.05,-3.18,1.29,1.97,-2.14,-85.21,-10.96,-8.61,-0.37,-10.61,-11.67,Standing
50:36.8,976,510,765,996,308,2.32,430.77,1.51,20724.3,313,285,123.65,284,15289,15689,285,1.02,-0.02,-0.04,-1.11,-2.9,3.85,-1.47,-85.77,-11.03,-9.22,0.21,-10.65,-12.28,Standing
50:37.0,653,512,768,996,314,2.26,442.88,1.53,20724.3,313,285,123.65,284,15289,31378,570,1.03,-0.04,-0.08,1.23,1.38,0.85,-2.7,-83.51,-10.8,-9.3,0.42,-10.48,-12.27,Standing
50:37.1,0,504,756,996,315,2.25,444.92,1.54,20724.3,313,285,123.65,284,15289,47067,855,1.02,-0.04,-0.07,-3.04,3.44,-1.54,-2.62,-83.78,-11.11,-9.12,0.33,-10.77,-12.11,Standing
50:37.2,401,502,753,996,306,2.34,426.78,1.5,20724.3,313,284,123.65,284,15289,62187,1139,1.01,-0.03,-0.05,-2.05,3.73,0.21,-2.09,-85.36,-11.3,-8.91,0.45,-10.93,-11.96,Standing
50:37.3,994,510,765,996,309,2.31,432.77,1.51,20724.3,313,284,123.65,284,15289,77307,1423,1.02,-0.04,-0.04,-1.71,2.67,0.37,-2.69,-85.51,-11.44,-8.82,0.6,-11.09,-11.89,Standing
50:37.5,434,509,763.5,996,315,2.25,444.92,1.54,20724.3,313,285,123.65,284,15289,92996,1708,1.02,-0.05,-0.06,-1.5,4.32,1.56,-3.11,-84.28,-11.56,-8.53,0.89,-11.22,-11.56,Standing
50:37.6,5,501,751.5,996,310,2.3,434.78,1.52,20724.3,313,285,123.65,284,15289,108685,1993,1.02,-0.06,-0.03,-3.16,4.49,-0.6,-3.95,-84.69,-11.89,-8.22,0.92,-11.57,-11.28,Standing
50:37.7,736,505,757.5,996,304,2.37,422.81,1.49,20724.3,313,284,123.65,284,15289,123805,2277,1.02,-0.05,-0.02,-2.44,3.37,-2,-3.25,-85.56,-12.12,-8.04,0.76,-11.77,-11.15,Standing
50:37.8,895,510,765,996,311,2.29,436.8,1.52,20724.3,313,285,123.65,284,15289,139494,2562,1.01,-0.05,-0.01,-2.82,-4.23,-0.94,-3.39,-85.53,-12.41,-8.82,0.74,-12.05,-11.89,Standing
50:38.0,66,504,756,996,315,2.25,444.92,1.54,69.27,310,285,124.57,284,15517,0,0,1.02,-0.05,-0.04,-0.29,-1.73,-1.27,-3.59,-84.5,-12.37,-9.29,0.68,-12.02,-12.29,Standing
50:38.1,136,499,748.5,996,307,2.33,428.77,1.5,69.27,310,284,124.57,284,15517,15120,284,1,-0.05,-0.03,-0.72,-0.47,-1.66,-3.5,-84.91,-12.39,-9.6,0.57,-12.04,-12.61,Standing
50:38.2,985,505,757.5,996,304,2.37,422.81,1.49,69.27,310,284,124.57,284,15517,30240,568,1.02,-0.04,-0.05,-1.4,-0.21,1.09,-2.7,-85.05,-12.5,-9.87,0.81,-12.11,-12.88,Standing
50:38.3,877,511,766.5,996,310,2.3,434.78,1.52,69.27,310,285,124.57,284,15517,45929,853,1.03,-0.06,-0.04,-2.16,2.75,-1.84,-3.8,-84.4,-12.7,-9.78,0.68,-12.34,-12.76,Standing
50:38.5,149,506,759,996,315,2.25,444.92,1.54,69.27,310,285,124.57,284,15517,61618,1138,1.01,-0.04,-0.03,-2.42,2.46,-2.7,-2.96,-85.42,-12.93,-9.72,0.44,-12.53,-12.75,Standing
50:38.6,166,501,751.5,996,305,2.35,424.79,1.49,69.27,310,285,124.57,284,15517,77307,1423,1.01,-0.05,-0.03,-1.08,1.05,-0.57,-3.36,-85.22,-13,-9.84,0.47,-12.61,-12.86,Standing
50:38.7,898,506,759,996,304,2.37,422.81,1.49,69.27,310,285,124.57,284,15517,92996,1708,1.03,-0.05,-0.04,-0.65,0.58,-2.57,-3.42,-84.92,-13.01,-10.02,0.24,-12.62,-13.01,Standing
50:38.8,793,510,765,996,311,2.29,436.8,1.52,69.27,310,285,124.57,284,15517,108685,1993,1.02,-0.05,-0.03,-2.67,0.95,-3.6,-3.15,-85.46,-13.27,-10.15,-0.11,-12.87,-13.16,Standing
50:39.0,0,503,754.5,996,313,2.27,440.85,1.53,69.27,310,285,124.57,284,15517,124374,2278,1.01,-0.04,-0.01,-2.35,2.95,-2.24,-2.78,-86.15,-13.5,-10.03,-0.29,-13.07,-13.08,Standing
50:39.1,371,502,753,996,303,2.38,420.83,1.48,69.27,310,285,124.57,284,15517,140063,2563,1.02,-0.04,-0.02,-1.03,-0.44,0.95,-2.74,-85.98,-13.55,-10.34,-0.07,-13.12,-13.37,Standing
50:39.2,994,508,762,996,306,2.34,426.78,1.5,150.56,307,285,124.8,284,15574,0,0,1.04,-0.05,-0.03,-0.46,-1.92,-3.02,-3.53,-85.12,-13.54,-10.83,-0.35,-13.14,-13.8,Standing
50:39.3,596,509,763.5,996,312,2.28,438.82,1.52,150.56,307,285,124.8,284,15574,15689,285,1.06,-0.03,-0.06,-3.58,1.15,-10.84,-2.3,-84.58,-13.92,-10.94,-1.6,-13.45,-13.88,Standing
50:39.5,0,503,754.5,996,310,2.3,434.78,1.52,150.56,307,285,124.8,284,15574,31378,570,1.02,-0.02,-0.04,-14.15,11.87,-9.85,-1.48,-85.96,-15.63,-9.69,-2.75,-15.07,-12.74,Standing
50:39.6,569,504,756,996,301,2.4,416.9,1.47,150.56,307,285,124.8,284,15574,47067,855,1.01,0.02,0.02,-22.38,-1.05,-1.68,0.65,-86.85,-18.36,-10.08,-2.86,-17.6,-13.15,Standing
50:39.7,983,509,763.5,996,307,2.33,428.77,1.5,150.56,307,285,124.8,284,15574,62756,1140,1.04,0.02,0.02,-15.5,9.52,2.82,0.59,-86.73,-20.24,-9.13,-2.4,-19.41,-12.23,Standing
50:39.8,398,508,762,996,312,2.28,438.82,1.52,150.56,307,285,124.8,284,15574,78445,1425,0.96,-0.01,0.01,-18.83,-27.39,-6.63,-1.28,-87.41,-22.53,-12.8,-3.13,-21.68,-15.79,Standing
50:40.0,81,503,754.5,996,306,2.34,426.78,1.5,150.56,307,285,124.8,284,15574,94134,1710,1.01,0.03,-0.01,-3.26,14.53,-0.25,1,-86.78,-22.87,-11.22,-3.07,-21.91,-14.25,Standing
50:40.1,902,508,762,996,303,2.38,420.83,1.48,150.56,307,285,124.8,284,15574,109823,1995,0.95,0,-0.02,-7.54,0.38,6.94,-0.46,-87.3,-23.74,-11.43,-2.1,-22.81,-14.46,Standing
50:40.2,728,510,765,996,310,2.3,434.78,1.52,150.56,307,284,124.8,284,15574,124943,2279,1.09,0,-0.02,-12.81,-0.21,16.48,-0.38,-87.32,-25.28,-11.7,0.08,-24.29,-14.73,Standing
50:40.3,0,504,756,996,313,2.27,440.85,1.53,150.56,307,285,124.8,284,15574,140632,2564,1.07,-0.04,0.08,-18.76,26.2,-4.5,-2.75,-83.65,-27.56,-8.68,-0.39,-26.57,-11.68,Standing
50:40.5,432,504,756,996,303,2.38,420.83,1.48,170.76,307,285,125.03,284,15631,0,0,0.97,-0.04,0.03,-13.82,16.21,-5.77,-3.19,-85.16,-29.22,-6.9,-1.01,-28.17,-10.03,Standing
50:40.6,987,509,763.5,996,305,2.35,424.79,1.49,170.76,307,285,125.03,284,15631,15689,285,0.94,-0.05,0.09,-2.11,41.73,-15.11,-3.36,-82.05,-29.41,-1.9,-2.81,-28.37,-5.1,Standing
50:40.7,692,511,766.5,996,311,2.29,436.8,1.52,170.76,307,285,125.03,284,15631,31378,570,1.02,0.03,0.16,-27.78,-29.23,-4.81,1.09,-79.5,-32.81,-5.8,-3.32,-31.46,-8.75,Standing
50:40.8,224,508,762,996,311,2.29,436.8,1.52,170.76,307,285,125.03,284,15631,47067,855,1.01,0.04,0.09,1.61,7.95,-9.41,1.46,-82.69,-32.54,-5.06,-4.39,-31.18,-8.16,Standing
50:41.0,299,506,759,996,302,2.39,418.86,1.48,170.76,307,285,125.03,284,15631,62756,1140,0.95,0.01,0.09,-7.95,-8.47,-6.91,-0.11,-83.12,-33.46,-6.35,-5.15,-32.12,-9.43,Standing
50:41.1,992,511,766.5,996,303,2.38,420.83,1.48,170.76,307,285,125.03,284,15631,78445,1425,0.98,0.06,0.08,-2.05,-8.48,5.08,3.2,-82.58,-33.64,-7.66,-4.42,-32.17,-10.66,Standing
50:41.2,706,513,769.5,996,309,2.31,432.77,1.51,170.76,307,285,125.03,284,15631,94134,1710,1.06,-0.03,0.11,3.6,11.8,1.42,-1.93,-82.2,-33.12,-6.44,-4.14,-31.88,-9.47,Standing
50:41.3,0,507,760.5,996,311,2.29,436.8,1.52,170.76,307,285,125.03,284,15631,109823,1995,1.01,0.01,0.08,-0.58,-2.99,-6.53,-0.14,-84.07,-33.13,-7.06,-4.86,-31.81,-10.14,Standing
50:41.5,374,506,759,996,302,2.39,418.86,1.48,170.76,307,285,125.03,284,15631,125512,2280,0.98,0.04,0.08,-2.4,3.59,-2.7,1.64,-83.39,-33.36,-6.86,-5.1,-31.96,-9.93,Standing
50:41.6,987,511,766.5,996,303,2.38,420.83,1.48,170.76,307,285,125.03,284,15631,141201,2565,1.01,0.03,0.07,-5.18,-1.44,1.79,0.86,-84.14,-33.93,-7.3,-4.78,-32.54,-10.37,Standing
50:41.7,656,512,768,996,310,2.3,434.78,1.52,168.95,306,285,125.26,285,15688,0,0,1.02,0.01,0.08,-1.6,-2.31,-1.2,-0.13,-83.86,-34.06,-7.83,-4.83,-32.7,-10.87,Standing
50:41.8,33,508,762,996,311,2.29,436.8,1.52,168.95,306,285,125.26,285,15688,15689,285,1,0.02,0.07,0.38,1.92,-3.63,0.3,-84.59,-33.94,-7.84,-5.18,-32.57,-10.91,Standing
50:42.0,193,501,751.5,996,302,2.39,418.86,1.48,168.95,306,285,125.26,285,15688,31378,570,1.01,0.03,0.09,0.17,-2.54,-1.17,1.06,-83.31,-33.85,-8.41,-5.23,-32.46,-11.4,Standing
50:47.8,887,887,1330.5,887,309,2.31,432.77,1.51,0,0,284,0,0,0,30240,568,1.05,0,0.04,4.78,3.22,-1.26,-0.42,-86.4,0.4,-1.09,0.32,0.37,-4.5,Left Fall while Standing
50:47.9,671,779,1168.5,887,312,2.28,438.82,1.52,0,0,285,0,0,0,45929,853,1.02,-0.02,0.05,3.76,-2.02,-14.4,-1.78,-85.26,0.93,-1.58,-1.34,0.82,-4.93,Left Fall while Standing
50:48.0,245,601,901.5,887,313,2.27,440.85,1.53,0,0,285,0,0,0,61618,1138,1.01,0.05,0.01,2.05,-10.98,-19.36,2.15,-85.65,1.25,-3.18,-3.62,1.28,-6.48,Left Fall while Standing
50:48.2,83,471,706.5,887,319,2.21,453.13,1.56,0,0,285,0,0,0,77307,1423,1.03,0.09,0,-3.75,9.46,-1.56,4.53,-83.3,0.86,-2.27,-3.72,1.01,-5.51,Left Fall while Standing
50:48.3,96,396,594,887,320,2.2,455.19,1.56,0,0,285,0,0,0,92996,1708,0.99,0.07,0.04,-3.83,13.03,-1.8,3.54,-83.72,0.46,-0.92,-3.84,0.58,-4.24,Left Fall while Standing
50:48.4,269,375,562.5,887,318,2.22,451.06,1.55,0,0,284,0,0,0,108116,1992,1.01,0.07,0.06,-10.92,-1.76,2.26,3.26,-83.3,-0.8,-1.38,-3.47,-0.64,-4.66,Left Fall while Standing
50:48.5,691,420,630,887,312,2.28,438.82,1.52,0,0,284,0,0,0,123236,2276,1.05,0.08,0.07,0.82,8.95,-9.28,3.57,-82.75,-0.63,-0.53,-4.51,-0.47,-3.82,Left Fall while Standing
50:48.6,932,484,726,932,304,2.37,422.81,1.49,0,0,284,0,0,0,138356,2560,1,0.09,0.07,-3.3,-3.42,-5.08,4.75,-81.85,-0.97,-1.19,-5.03,-0.74,-4.41,Left Fall while Standing
50:48.8,924,533,799.5,932,302,2.39,418.86,1.48,108.67,311,284,123.88,284,15346,0,0,1.02,0.1,0.05,6.82,-5.32,-6.92,5.05,-82.22,-0.05,-2.1,-5.79,0.15,-5.3,Left Fall while Standing
50:48.9,574,537,805.5,932,304,2.37,422.81,1.49,108.67,311,285,123.88,284,15346,15689,285,1,0.1,0.04,6.74,-5.27,-9.22,4.83,-82.63,0.85,-3,-6.84,1.01,-6.18,Left Fall while Standing
50:49.0,13,489,733.5,932,303,2.38,420.83,1.48,108.67,311,285,123.88,284,15346,31378,570,1,0.12,0.01,9.36,9.6,-18.69,5.99,-81.81,2.08,-2.06,-9.06,2.24,-5.25,Left Fall while Standing
50:49.1,142,460,690,932,301,2.4,416.9,1.47,108.67,311,285,123.88,284,15346,47067,855,0.97,0.21,0.01,-5.92,11.97,-14.79,11.79,-76.03,1.42,-0.82,-10.8,1.83,-3.83,Left Fall while Standing
50:49.3,755,483,724.5,932,307,2.33,428.77,1.5,108.67,311,285,123.88,284,15346,62756,1140,0.98,0.2,0.05,-2.08,-11.05,-0.49,11,-76.5,1.23,-2.45,-10.76,1.62,-5.41,Left Fall while Standing
50:49.4,870,510,765,932,320,2.2,455.19,1.56,108.67,311,284,123.88,284,15346,77876,1424,1.04,0.15,0.04,3.32,-2.99,-17.34,7.46,-80.05,1.71,-3.08,-12.83,1.94,-6.15,Left Fall while Standing
50:49.5,249,493,739.5,932,325,2.15,465.62,1.59,108.67,311,285,123.88,284,15346,93565,1709,0.98,0.23,-0.03,2.14,0.44,-23.86,12.85,-74.9,2.05,-3.27,-15.69,2.48,-6.13,Left Fall while Standing
50:49.6,7,463,694.5,932,323,2.17,461.43,1.58,108.67,311,284,123.88,284,15346,108685,1993,0.94,0.31,0.02,-6.02,1.29,-25.39,17.71,-70.11,1.36,-3.36,-18.76,2.02,-6.03,Left Fall while Standing
50:49.8,540,467,700.5,932,340,2.01,497.8,1.66,108.67,311,284,123.88,284,15346,123805,2277,0.92,0.34,0.03,2.29,3.57,-17.79,19.89,-67.87,1.71,-3.16,-20.85,2.44,-5.75,Left Fall while Standing
50:49.9,836,488,732,932,352,1.91,524.59,1.72,108.67,311,284,123.88,284,15346,138925,2561,0.94,0.38,0.01,2.08,2.54,-16.08,21.25,-66.59,2.04,-3.1,-22.76,2.81,-5.64,Left Fall while Standing
50:50.0,405,483,724.5,932,343,1.98,504.41,1.68,20724.28,321,284,124.11,284,15403,0,0,0.93,0.39,0,-2.57,3.67,-21.83,22.26,-65.58,1.79,-2.89,-25.37,2.61,-5.4,Left Fall while Standing
50:50.1,44,461,691.5,932,334,2.06,484.76,1.63,20724.28,321,284,124.11,284,15403,15120,284,0.89,0.45,0.02,6.73,2.31,-19.57,26.24,-61.58,2.7,-2.85,-27.72,3.65,-5.2,Left Fall while Standing
50:50.3,327,455,682.5,932,322,2.18,459.34,1.57,20724.28,321,284,124.11,284,15403,30240,568,0.89,0.5,-0.01,2.83,4.29,-15.19,28.59,-59.23,3.13,-2.57,-29.51,4.14,-4.83,Left Fall while Standing
50:50.4,900,475,712.5,932,322,2.18,459.34,1.57,20724.28,321,284,124.11,284,15403,45360,852,0.85,0.5,0.04,-2.27,1.43,-15.34,29.84,-57.89,2.91,-2.64,-31.33,3.99,-4.85,Left Fall while Standing
50:50.5,790,489,733.5,932,328,2.12,471.94,1.6,20724.28,321,284,124.11,284,15403,60480,1136,0.85,0.53,0.05,0.88,0.18,-14.49,31.53,-56.12,3.09,-2.86,-33.04,4.23,-5,Left Fall while Standing
50:50.6,156,475,712.5,932,330,2.1,476.19,1.61,20724.28,321,285,124.11,284,15403,76169,1421,0.83,0.57,0,1.23,-1.04,-14.47,33.61,-54.23,3.31,-3.24,-34.75,4.53,-5.28,Left Fall while Standing
50:50.8,289,467,700.5,932,322,2.18,459.34,1.57,20724.28,321,284,124.11,284,15403,91289,1705,0.81,0.57,0.01,-5.03,9.05,-9.28,34.39,-53.44,2.76,-2.36,-35.81,4.02,-4.41,Left Fall while Standing
50:50.9,865,483,724.5,932,323,2.17,461.43,1.58,20724.28,321,284,124.11,284,15403,106409,1989,0.79,0.59,0.05,-0.02,-0.49,-5.4,36.1,-51.61,2.82,-2.68,-36.38,4.15,-4.63,Left Fall while Standing
50:51.0,871,497,745.5,932,329,2.11,474.06,1.61,20724.28,321,285,124.11,284,15403,122098,2274,0.8,0.6,0.03,0.36,-4.84,-4.05,36.16,-51.63,2.94,-3.53,-36.79,4.27,-5.45,Left Fall while Standing
50:51.1,268,489,733.5,932,332,2.08,480.46,1.62,20724.28,321,285,124.11,284,15403,137787,2559,0.81,0.59,0.02,-2.33,-2.27,-6.88,35.47,-52.35,2.72,-4.06,-37.55,4.03,-6,Left Fall while Standing
50:51.3,341,484,726,932,326,2.14,467.72,1.59,20723.72,326,284,123.65,284,15289,0,0,0.79,0.61,0.02,-4,0.32,-3.52,37.08,-50.73,2.29,-4.27,-37.89,3.68,-6.13,Left Fall while Standing
50:51.4,830,495,742.5,932,320,2.2,455.19,1.56,20723.72,326,284,123.65,284,15289,15120,284,0.8,0.63,0.04,-0.84,0.02,1.51,37.25,-50.5,2.26,-4.52,-37.6,3.66,-6.36,Left Fall while Standing
50:51.5,876,507,760.5,932,315,2.25,444.92,1.54,20723.72,326,285,123.65,284,15289,30809,569,0.82,0.6,0,0.63,1.42,-0.68,35.93,-51.91,2.41,-4.59,-37.59,3.75,-6.48,Left Fall while Standing
50:51.6,398,504,756,932,324,2.16,463.52,1.58,20723.72,326,285,123.65,284,15289,46498,854,0.81,0.6,0.01,2.98,-1.92,-5.64,36.05,-51.78,2.85,-5.08,-38.19,4.17,-6.95,Left Fall while Standing
50:51.8,92,492,738,932,320,2.2,455.19,1.56,20723.72,326,285,123.65,284,15289,62187,1139,0.78,0.61,-0.03,2.94,-0.98,-8.82,37.12,-50.68,3.28,-5.45,-39.19,4.64,-7.26,Left Fall while Standing
50:51.9,472,491,736.5,932,313,2.27,440.85,1.53,20723.72,326,284,123.65,284,15289,77307,1423,0.74,0.64,-0.03,-2.12,-0.57,-3.79,39.88,-47.92,3.09,-5.77,-39.57,4.56,-7.46,Left Fall while Standing
50:52.0,566,493,739.5,932,318,2.22,451.06,1.55,20723.72,326,284,123.65,284,15289,92427,1707,0.77,0.62,-0.03,-3.21,-0.87,1.69,38.12,-49.68,2.76,-6.13,-39.26,4.17,-7.87,Left Fall while Standing
50:52.1,514,494,741,932,324,2.16,463.52,1.58,20723.72,326,284,123.65,284,15289,107547,1991,0.78,0.61,0.01,-2.25,1.32,-0.3,37.39,-50.45,2.54,-6.22,-39.2,3.94,-7.98,Left Fall while Standing
50:52.3,0,480,720,932,319,2.21,453.13,1.56,20723.72,326,285,123.65,284,15289,123236,2276,0.79,0.62,-0.01,-2.2,-0.29,-1.15,37.69,-50.14,2.34,-6.5,-39.24,3.75,-8.25,Left Fall while Standing
50:52.4,428,479,718.5,932,313,2.27,440.85,1.53,20723.72,326,284,123.65,284,15289,138356,2560,0.78,0.62,-0.02,-2.27,0.34,-2.83,38.11,-49.71,2.12,-6.71,-39.5,3.56,-8.43,Left Fall while Standing
50:52.5,754,486,729,932,314,2.26,442.88,1.53,20723.9,318,284,123.88,284,15346,0,0,0.77,0.63,0,0.65,0.66,-5.1,38.45,-49.39,2.27,-6.87,-40.03,3.72,-8.58,Left Fall while Standing
50:52.6,578,488,732,932,313,2.27,440.85,1.53,20723.9,318,285,123.88,284,15346,15689,285,0.78,0.63,-0.04,-1.84,-1.58,-8.08,38.38,-49.38,2.11,-7.32,-40.94,3.57,-9,Left Fall while Standing
50:52.8,0,476,714,932,307,2.33,428.77,1.5,20723.9,318,285,123.88,284,15346,31378,570,0.75,0.64,-0.03,-1.04,0.38,-6.38,40,-47.8,2.06,-7.52,-41.64,3.57,-9.14,Left Fall while Standing
50:52.9,417,475,712.5,932,295,2.47,405.22,1.44,20723.9,318,284,123.88,284,15346,46498,854,0.74,0.65,-0.01,-2.11,0.51,1.86,40.65,-47.18,1.86,-7.71,-41.31,3.41,-9.29,Left Fall while Standing
50:53.0,988,487,730.5,988,294,2.48,403.29,1.44,20723.9,318,285,123.88,284,15346,62187,1139,0.78,0.65,-0.04,-1.6,0.24,0.35,39.09,-48.66,1.73,-7.93,-41.17,3.23,-9.56,Left Fall while Standing
50:53.1,760,493,739.5,988,299,2.42,412.98,1.46,20723.9,318,285,123.88,284,15346,77876,1424,0.77,0.64,-0.03,-0.8,2.44,-3.96,39.14,-48.65,1.7,-7.87,-41.57,3.2,-9.5,Left Fall while Standing
50:53.3,599,495,742.5,988,298,2.43,411.03,1.46,20723.9,318,285,123.88,284,15346,93565,1709,0.76,0.64,-0.04,-0.5,2.85,-6.21,39.82,-47.93,1.71,-7.77,-42.24,3.24,-9.37,Left Fall while Standing
50:53.4,440,494,741,988,287,2.56,389.95,1.4,20723.9,318,284,123.88,284,15346,108685,1993,0.74,0.67,-0.03,-1.47,0.41,-3,41.57,-46.22,1.6,-7.97,-42.52,3.2,-9.5,Left Fall while Standing
50:53.5,995,505,757.5,995,289,2.54,393.73,1.41,20723.9,318,285,123.88,284,15346,124374,2278,0.74,0.66,-0.01,-2.96,2.5,-1.56,41.49,-46.35,1.3,-7.9,-42.62,2.9,-9.44,Left Fall while Standing
50:53.6,761,510,765,995,297,2.44,409.09,1.45,20723.9,318,285,123.88,284,15346,140063,2563,0.75,0.66,-0.02,-0.98,0.84,-0.01,40.89,-46.94,1.24,-8.05,-42.52,2.83,-9.6,Left Fall while Standing
50:53.8,123,502,753,995,297,2.44,409.09,1.45,151.93,297,285,124.8,284,15574,0,0,0.75,0.66,-0.03,-1.91,0.73,-0.76,40.83,-46.96,1.08,-8.21,-42.52,2.67,-9.76,Left Fall while Standing
50:53.9,256,497,745.5,995,289,2.54,393.73,1.41,151.93,297,285,124.8,284,15574,15689,285,0.75,0.66,-0.03,-1.4,2.8,-0.9,40.74,-47.07,0.97,-8.1,-42.53,2.56,-9.66,Left Fall while Standing
50:54.0,885,505,757.5,995,288,2.55,391.84,1.41,151.93,297,284,124.8,284,15574,30809,569,0.74,0.66,-0.03,-2.87,1.14,-0.91,40.97,-46.84,0.68,-8.21,-42.55,2.29,-9.76,Left Fall while Standing
50:54.1,954,513,769.5,995,294,2.48,403.29,1.44,151.93,297,285,124.8,284,15574,46498,854,0.74,0.67,-0.02,-3.27,0.7,0.59,41.22,-46.6,0.35,-8.37,-42.38,1.98,-9.9,Left Fall while Standing
50:54.3,410,512,768,995,300,2.41,414.94,1.47,151.93,297,285,124.8,284,15574,62187,1139,0.77,0.65,0,-3.05,-0.22,-1.15,39.57,-48.27,0.03,-8.65,-42.42,1.62,-10.24,Left Fall while Standing
50:54.4,0,502,753,995,293,2.49,401.37,1.43,151.93,297,285,124.8,284,15574,77876,1424,0.74,0.65,-0.01,-6.32,3.11,1.17,40.85,-46.98,-0.68,-8.51,-42.18,0.98,-10.05,Left Fall while Standing
50:54.5,639,505,757.5,995,286,2.58,388.06,1.4,151.93,297,284,124.8,284,15574,92996,1708,0.75,0.67,-0.01,-0.8,2.63,5.28,40.98,-46.86,-0.71,-8.43,-41.42,0.96,-9.97,Left Fall while Standing
50:54.6,992,513,769.5,995,291,2.52,397.54,1.42,151.93,297,285,124.8,284,15574,108685,1993,0.81,0.64,-0.03,-1.73,4.8,8.24,37.85,-49.94,-0.86,-8.08,-40.3,0.69,-9.76,Left Fall while Standing
50:54.8,544,514,771,995,297,2.44,409.09,1.45,151.93,297,285,124.8,284,15574,124374,2278,0.77,0.62,0.02,-3.53,5.95,6.92,38.02,-49.81,-1.23,-7.59,-39.33,0.34,-9.28,Left Fall while Standing
50:54.9,0,505,757.5,995,295,2.47,405.22,1.44,151.93,297,285,124.8,284,15574,140063,2563,0.8,0.58,0.01,-1.72,8.38,7.83,35.49,-52.34,-1.37,-6.8,-38.26,0.1,-8.62,Left Fall while Standing
50:55.0,313,502,753,995,286,2.58,388.06,1.4,140.32,291,285,124.8,284,15574,0,0,0.76,0.6,0.01,1.47,-0.92,17.85,37.87,-49.96,-1.12,-7.16,-35.97,0.44,-8.87,Left Fall while Standing
50:55.1,839,507,760.5,995,288,2.55,391.84,1.41,140.32,291,285,124.8,284,15574,15689,285,0.81,0.52,0.05,-9.44,4.89,45.4,31.88,-55.76,-2.23,-6.8,-30.2,-0.87,-8.75,Left Fall while Standing
50:55.2,901,514,771,995,297,2.44,409.09,1.45,140.32,291,285,124.8,284,15574,31378,570,0.92,0.45,0.01,-7.37,13.48,46.6,25.32,-62.5,-3.08,-5.36,-24.27,-1.95,-7.65,Left Fall while Standing
50:55.4,155,508,762,995,302,2.39,418.86,1.48,140.32,291,285,124.8,284,15574,47067,855,0.99,0.31,0.07,1.63,-5.81,29.35,16.54,-70.79,-2.81,-6.34,-20.51,-2.04,-8.92,Left Fall while Standing
50:55.5,64,501,751.5,995,294,2.48,403.29,1.44,140.32,291,285,124.8,284,15574,62756,1140,0.98,0.32,0.02,-1.86,-2.66,19.53,17.68,-70.12,-2.97,-6.91,-17.99,-2.15,-9.44,Left Fall while Standing
50:55.6,784,505,757.5,995,288,2.55,391.84,1.41,140.32,291,284,124.8,284,15574,77876,1424,0.93,0.25,0.02,-13.54,3.63,26.77,14.22,-73.58,-4.59,-6.71,-14.54,-3.84,-9.39,Left Fall while Standing
50:55.7,967,512,768,995,294,2.48,403.29,1.44,140.32,291,285,124.8,284,15574,93565,1709,0.93,0.17,-0.04,-14.73,-1.88,39.44,10,-77.61,-6.37,-7.2,-9.51,-5.71,-10.01,Left Fall while Standing
50:55.9,118,506,759,995,300,2.41,414.94,1.47,140.32,291,285,124.8,284,15574,109254,1994,0.98,0.11,0.05,-12.52,4.87,42.07,5.59,-81.58,-7.87,-6.83,-4.11,-7.33,-9.82,Left Fall while Standing
50:56.0,161,501,751.5,995,292,2.5,399.45,1.43,140.32,291,285,124.8,284,15574,124943,2279,1.02,0.01,0.02,-9.63,-14.82,35.77,-0.18,-87.41,-9.01,-8.94,0.46,-8.65,-12.08,Left Fall while Standing
50:56.1,995,508,762,995,288,2.55,391.84,1.41,140.32,291,284,124.8,284,15574,140063,2563,1.06,-0.1,0.02,2.38,5.07,10.37,-5.8,-83.09,-8.64,-8.56,1.84,-8.53,-11.54,Left Fall while Standing
50:56.2,990,515,772.5,995,296,2.46,407.15,1.45,144.44,293,285,124.8,284,15574,0,0,1.03,-0.07,0.02,-2.22,3.22,-4.92,-4.27,-84.55,-8.85,-8.41,1.33,-8.66,-11.45,Left Fall while Standing
50:56.4,483,515,772.5,995,303,2.38,420.83,1.48,144.44,293,285,124.8,284,15574,15689,285,1.03,-0.04,0,-9.43,-1.95,-3.52,-2.99,-86,-9.95,-8.9,0.99,-9.68,-11.98,Left Fall while Standing
50:56.5,155,510,765,995,302,2.39,418.86,1.48,144.44,293,285,124.8,284,15574,31378,570,0.98,-0.03,0.01,-6.95,-3.24,0.37,-2.39,-86.56,-10.75,-9.56,1.14,-10.42,-12.64,Left Fall while Standing
50:56.6,563,511,766.5,995,295,2.47,405.22,1.44,144.44,293,285,124.8,284,15574,47067,855,1.04,-0.06,0.03,-5.14,4.2,-1.05,-4.02,-84.5,-11.32,-9.28,1.11,-11.03,-12.29,Left Fall while Standing
50:56.7,965,517,775.5,995,303,2.38,420.83,1.48,144.44,293,285,124.8,284,15574,62756,1140,0.98,-0.03,0.14,3.25,10.27,-4.76,-2.06,-80.36,-10.85,-8.25,0.61,-10.5,-11.13,Left Fall while Standing
50:56.9,311,514,771,995,310,2.3,434.78,1.52,144.44,293,285,124.8,284,15574,78445,1425,1.01,-0.05,0.06,-3.67,-6.37,-0.45,-3.65,-83.97,-11.24,-9.29,0.65,-10.93,-12.28,Left Fall while Standing
50:57.0,48,508,762,995,306,2.34,426.78,1.5,144.44,293,285,124.8,284,15574,94134,1710,1.05,-0.05,0,1.95,-1.25,-4.59,-3.11,-85.89,-10.92,-9.7,0.17,-10.61,-12.75,Left Fall while Standing
50:57.1,653,510,765,995,298,2.43,411.03,1.46,144.44,293,284,124.8,284,15574,109254,1994,1.04,-0.03,-0.02,-1.92,-1.87,-3.86,-2.24,-86.34,-11.09,-10.19,-0.21,-10.74,-13.23,Left Fall while Standing
50:57.2,910,515,772.5,995,306,2.34,426.78,1.5,144.44,293,285,124.8,284,15574,124943,2279,0.99,-0.03,-0.03,-1.21,0.21,-3.11,-2.15,-86.07,-11.17,-10.41,-0.5,-10.81,-13.44,Left Fall while Standing
50:57.4,123,510,765,995,310,2.3,434.78,1.52,144.44,293,285,124.8,284,15574,140632,2564,1.06,-0.03,-0.02,-4.76,4.94,-3.03,-2.04,-86.56,-11.7,-10.04,-0.78,-11.31,-13.1,Left Fall while Standing
50:57.5,432,509,763.5,995,299,2.42,412.98,1.46,162.53,303,285,125.03,284,15631,0,0,0.88,-0.03,0.16,0.34,12.46,-5.21,-2.6,-78.16,-11.59,-8.73,-1.34,-11.23,-11.51,Left Fall while Standing
51:02.6,678,678,1017,678,303,2.38,420.83,1.48,0,0,284,0,0,0,30240,568,1.04,-0.05,0.1,-1.87,8.24,-2.29,-3.43,-82.26,-0.9,0.58,-1.22,-1,-2.73,Right Fall while Standing
51:02.7,905,791,1186.5,905,305,2.35,424.79,1.49,0,0,285,0,0,0,45929,853,1,-0.08,0.02,-5.35,-13.36,-6.57,-5.21,-83.66,-1.49,-1.31,-1.93,-1.64,-4.6,Right Fall while Standing
51:02.8,487,690,1035,905,270,2.79,358.57,1.32,0,0,285,0,0,0,61618,1138,1.01,0,0.03,-3.68,16.85,-5.3,-0.54,-86.8,-1.87,0.52,-2.48,-1.82,-2.97,Right Fall while Standing
51:02.9,325,598,897,905,246,3.16,316.6,1.2,0,0,287,0,0,0,78451,1425,1.01,-0.04,0.1,-8.77,-8.11,-5.7,-2.65,-82.39,-2.88,-0.72,-3.09,-2.87,-3.99,Right Fall while Standing
51:03.1,506,580,870,905,267,2.83,353.17,1.3,0,0,287,0,0,0,95284,1712,1.03,0,0.06,-5.52,1.35,-0.98,-0.31,-84.88,-3.49,-0.8,-3.11,-3.37,-4.17,Right Fall while Standing
51:03.2,0,483,724.5,905,293,2.49,401.37,1.43,0,0,286,0,0,0,111544,1998,1,-0.01,0.08,2.11,4.38,5.65,-1.21,-83.99,-3.17,-0.51,-2.32,-3.09,-3.85,Right Fall while Standing
51:03.3,217,445,667.5,905,296,2.46,407.15,1.45,0,0,285,0,0,0,127233,2283,1.03,-0.03,0,1.46,-14.94,3.48,-2.4,-86.59,-2.92,-2.56,-1.8,-2.9,-5.92,Right Fall while Standing
51:03.4,505,452,678,905,294,2.48,403.29,1.44,0,0,285,0,0,0,142922,2568,1,-0.1,0.06,-14.21,-0.02,2.65,-6.44,-81.61,-4.6,-2.81,-1.38,-4.67,-5.96,Right Fall while Standing
51:03.5,931,506,759,931,297,2.44,409.09,1.45,134.03,288,285,125.94,285,15860,0,0,1,-0.02,0.03,-7.96,8.47,-2.25,-1.52,-86.31,-5.52,-2,-1.56,-5.36,-5.38,Right Fall while Standing
51:03.7,882,543,814.5,931,302,2.39,418.86,1.48,134.03,288,284,125.94,285,15860,15120,284,1.03,-0.05,0.05,-4.56,7.35,-2.34,-3.2,-84.74,-6.02,-1.34,-1.75,-5.91,-4.67,Right Fall while Standing
51:03.8,321,523,784.5,931,310,2.3,434.78,1.52,134.03,288,284,125.94,285,15860,30240,568,0.97,-0.07,0.1,-5.72,0.47,9.89,-4.91,-80.86,-6.66,-1.53,-0.42,-6.59,-4.7,Right Fall while Standing
51:03.9,150,492,738,931,315,2.25,444.92,1.54,134.03,288,284,125.94,285,15860,45360,852,1.03,-0.08,0.09,-2.63,-0.62,8.26,-5.1,-81.61,-6.92,-1.85,0.7,-6.85,-5.04,Right Fall while Standing
51:04.0,607,501,751.5,931,304,2.37,422.81,1.49,134.03,288,284,125.94,285,15860,60480,1136,1.03,-0.1,0.06,-1.02,3.55,-7.53,-6.16,-82.04,-6.98,-1.66,-0.14,-6.95,-4.87,Right Fall while Standing
51:04.2,918,530,795,931,305,2.35,424.79,1.49,134.03,288,284,125.94,285,15860,75600,1420,1.02,-0.09,0.05,-2.11,8.73,-8,-5.43,-82.94,-7.17,-0.82,-1.04,-7.1,-4.1,Right Fall while Standing
51:04.3,432,524,786,931,308,2.32,430.77,1.51,134.03,288,284,125.94,285,15860,90720,1704,0.98,-0.05,0.07,-10.47,-1.88,1.6,-3.53,-83.44,-8.41,-1.3,-0.74,-8.22,-4.59,Right Fall while Standing
51:04.4,18,492,738,931,303,2.38,420.83,1.48,134.03,288,284,125.94,285,15860,105840,1988,1.03,-0.08,0.09,-5.09,-3.24,8.6,-5.04,-81.54,-8.98,-1.96,0.43,-8.82,-5.14,Right Fall while Standing
51:04.5,512,493,739.5,931,293,2.49,401.37,1.43,134.03,288,284,125.94,285,15860,120960,2272,1.01,-0.11,0.05,-4.67,-1.8,4.98,-6.62,-81.81,-9.49,-2.43,1.15,-9.38,-5.61,Right Fall while Standing
51:04.7,911,516,774,931,297,2.44,409.09,1.45,134.03,288,284,125.94,285,15860,136080,2556,1,-0.12,0.05,-5.92,-1.67,8.45,-7.39,-80.96,-10.15,-2.88,2.29,-10.04,-6.01,Right Fall while Standing
51:04.8,479,514,771,931,303,2.38,420.83,1.48,142.69,304,284,122.96,284,15119,0,0,1.01,-0.14,0.07,-5,-5.89,12.01,-8.33,-79.82,-10.7,-3.86,3.88,-10.61,-6.9,Right Fall while Standing
51:04.9,30,490,735,931,302,2.39,418.86,1.48,142.69,304,284,122.96,284,15119,15120,284,1,-0.18,0.06,5.57,1.42,18.12,-10.94,-77.56,-9.93,-3.93,6.24,-9.97,-6.88,Right Fall while Standing
51:05.0,215,477,715.5,931,291,2.52,397.54,1.42,142.69,304,284,122.96,284,15119,30240,568,1,-0.23,0.06,4.66,4.2,15.62,-13.45,-75.11,-9.28,-3.66,8.29,-9.45,-6.52,Right Fall while Standing
51:05.2,808,492,738,931,290,2.53,395.63,1.42,142.69,304,284,122.96,284,15119,45360,852,1.01,-0.26,0.04,3.19,2.78,12.06,-14.74,-74.05,-8.82,-3.56,9.89,-9.05,-6.38,Right Fall while Standing
51:05.3,670,500,750,931,297,2.44,409.09,1.45,142.69,304,285,122.96,284,15119,61049,1137,0.95,-0.28,0.06,-1.49,-1.25,13.76,-16.89,-71.73,-8.93,-3.97,11.71,-9.25,-6.68,Right Fall while Standing
51:05.4,117,484,726,931,303,2.38,420.83,1.48,142.69,304,285,122.96,284,15119,76738,1422,0.91,-0.31,0.07,1.44,-10.14,23,-19.43,-69.04,-8.68,-5.49,14.68,-9.11,-8.03,Right Fall while Standing
51:05.5,173,471,706.5,931,293,2.49,401.37,1.43,142.69,304,284,122.96,284,15119,91858,1706,0.98,-0.34,-0.03,-7.76,-9.17,16.37,-19.7,-69.24,-9.58,-6.88,16.82,-9.99,-9.38,Right Fall while Standing
51:05.7,746,482,723,931,290,2.53,395.63,1.42,142.69,304,284,122.96,284,15119,106978,1990,0.94,-0.4,0.03,-1.57,-0.73,13.98,-23.5,-65.45,-9.71,-7.23,18.68,-10.26,-9.55,Right Fall while Standing
51:05.8,570,485,727.5,931,298,2.43,411.03,1.46,142.69,304,284,122.96,284,15119,122098,2274,0.94,-0.43,-0.02,-0.79,-3.21,13.84,-25.07,-63.9,-9.74,-7.88,20.51,-10.35,-10.12,Right Fall while Standing
51:05.9,97,471,706.5,931,300,2.41,414.94,1.47,142.69,304,285,122.96,284,15119,137787,2559,0.94,-0.45,-0.03,-3.22,-0.03,12.34,-26.27,-62.65,-10.07,-8.13,22.17,-10.72,-10.31,Right Fall while Standing
51:06.0,578,475,712.5,931,288,2.55,391.84,1.41,147.09,295,284,123.65,284,15289,0,0,0.89,-0.47,0.01,0.31,-2.63,12.32,-28.61,-60.38,-9.96,-8.71,23.81,-10.71,-10.78,Right Fall while Standing
51:06.2,911,489,733.5,931,291,2.52,397.54,1.42,147.09,295,285,123.65,284,15289,15689,285,0.87,-0.51,-0.01,-3.77,-3.24,13.11,-30.64,-58.36,-10.37,-9.37,25.54,-11.18,-11.33,Right Fall while Standing
51:06.3,509,490,735,931,299,2.42,412.98,1.46,147.09,295,285,123.65,284,15289,31378,570,0.91,-0.53,-0.01,1.59,-0.24,10.21,-31.07,-57.92,-10.1,-9.65,26.93,-10.93,-11.58,Right Fall while Standing
51:06.4,156,480,720,931,296,2.46,407.15,1.45,147.09,295,285,123.65,284,15289,47067,855,0.85,-0.57,-0.03,-5.2,-1.12,4.05,-34.4,-54.54,-10.67,-10.04,27.53,-11.62,-11.82,Right Fall while Standing
51:06.5,721,487,730.5,931,288,2.55,391.84,1.41,147.09,295,284,123.65,284,15289,62187,1139,0.86,-0.55,-0.02,-3.54,-2.47,9.92,-33.2,-55.77,-11.05,-10.6,28.87,-11.93,-12.41,Right Fall while Standing
51:06.7,801,496,744,931,296,2.46,407.15,1.45,147.09,295,285,123.65,284,15289,77876,1424,0.86,-0.58,-0.04,-0.67,1.85,6.38,-34.36,-54.55,-11.06,-10.62,29.78,-11.99,-12.38,Right Fall while Standing
51:06.8,232,489,733.5,931,303,2.38,420.83,1.48,147.09,295,285,123.65,284,15289,93565,1709,0.87,-0.6,-0.04,-2.79,-0.78,5.12,-35.1,-53.8,-11.34,-10.97,30.52,-12.29,-12.68,Right Fall while Standing
51:06.9,390,486,729,931,294,2.48,403.29,1.44,147.09,295,285,123.65,284,15289,109254,1994,0.84,-0.61,-0.04,-0.95,-2.39,3.34,-36.45,-52.46,-11.39,-11.52,31.04,-12.39,-13.16,Right Fall while Standing
51:07.0,879,496,744,931,298,2.43,411.03,1.46,147.09,295,285,123.65,284,15289,124943,2279,0.85,-0.61,-0.04,-0.54,1.56,-0.03,-36.22,-52.69,-11.39,-11.58,31.14,-12.38,-13.22,Right Fall while Standing
51:07.2,459,495,742.5,931,306,2.34,426.78,1.5,147.09,295,285,123.65,284,15289,140632,2564,0.84,-0.61,-0.05,0.09,1.82,-2.6,-36.46,-52.39,-11.31,-11.6,30.91,-12.31,-13.23,Right Fall while Standing
51:07.3,183,487,730.5,931,301,2.4,416.9,1.47,151.06,297,285,125.03,284,15631,0,0,0.83,-0.6,-0.04,-4.9,-0.79,-2.85,-36.4,-52.52,-11.85,-11.94,30.65,-12.83,-13.57,Right Fall while Standing
51:07.4,679,492,738,931,294,2.48,403.29,1.44,151.06,297,285,125.03,284,15631,15689,285,0.82,-0.6,-0.03,-1.91,1.22,0.08,-36.54,-52.41,-12.02,-12.04,30.76,-13,-13.66,Right Fall while Standing
51:07.5,799,500,750,931,300,2.41,414.94,1.47,151.06,297,285,125.03,284,15631,31378,570,0.84,-0.6,-0.05,-0.2,0.54,0.85,-35.97,-52.88,-11.97,-12.23,30.97,-12.93,-13.85,Right Fall while Standing
51:07.7,316,495,742.5,931,308,2.32,430.77,1.51,151.06,297,285,125.03,284,15631,47067,855,0.85,-0.61,-0.04,0.44,0.53,-3.5,-36.24,-52.67,-11.85,-12.41,30.63,-12.82,-14.02,Right Fall while Standing
51:07.8,307,491,736.5,931,297,2.44,409.09,1.45,151.06,297,285,125.03,284,15631,62756,1140,0.85,-0.59,-0.03,-2.37,4.17,-5.35,-35.47,-53.47,-12.07,-12.14,30.06,-13.01,-13.79,Right Fall while Standing
51:07.9,836,499,748.5,931,294,2.48,403.29,1.44,151.06,297,285,125.03,284,15631,78445,1425,0.92,-0.59,0,0.84,3.22,-26.31,-33.28,-55.72,-11.9,-11.98,26.84,-12.75,-13.73,Right Fall while Standing
51:08.0,543,500,750,931,301,2.4,416.9,1.47,151.06,297,285,125.03,284,15631,94134,1710,0.91,-0.52,0,4.61,12.39,-44.21,-30.46,-58.54,-11.25,-10.68,21.41,-12.02,-12.6,Right Fall while Standing
51:08.2,219,494,741,931,300,2.41,414.94,1.47,151.06,297,285,125.03,284,15631,109823,1995,0.94,-0.43,-0.03,-1.15,27.98,-51.86,-24.82,-64.1,-11.33,-7.38,14.93,-11.87,-9.65,Right Fall while Standing
51:08.3,721,498,747,931,289,2.54,393.73,1.41,151.06,297,285,125.03,284,15631,125512,2280,0.92,-0.32,0.1,0.46,30.33,-37.9,-19.48,-68.6,-11.2,-3.81,10.25,-11.53,-6.4,Right Fall while Standing
51:08.4,990,509,763.5,990,297,2.44,409.09,1.45,151.06,297,285,125.03,284,15631,141201,2565,0.92,-0.25,0.1,-14.53,0.2,-24.27,-15.88,-71.86,-12.94,-4.04,7.32,-13.06,-6.75,Right Fall while Standing
51:08.6,238,503,754.5,990,304,2.37,422.81,1.49,153.4,298,285,125.26,285,15688,0,0,0.98,-0.25,0.12,-5.78,-2.56,-17.15,-14.66,-72.76,-13.6,-4.61,5.27,-13.64,-7.33,Right Fall while Standing
51:08.7,254,498,747,990,299,2.42,412.98,1.46,153.4,298,285,125.26,285,15688,15689,285,1.01,-0.21,0.1,-5.94,-4.17,-34.63,-12.1,-75.54,-14.26,-5.37,1.08,-14.18,-8.18,Right Fall while Standing
51:08.8,761,503,754.5,990,295,2.47,405.22,1.44,153.4,298,285,125.26,285,15688,31378,570,1.03,-0.08,0.06,-20.32,-4.4,-36.02,-5.28,-82.5,-16.73,-6.17,-3.33,-16.27,-9.23,Right Fall while Standing
51:08.9,694,507,760.5,990,304,2.37,422.81,1.49,153.4,298,285,125.26,285,15688,47067,855,1.01,0,0.06,-14.6,4.87,-25.8,-0.54,-85.04,-18.5,-5.81,-6.48,-17.78,-8.98,Right Fall while Standing
51:09.1,264,502,753,990,311,2.29,436.8,1.52,153.4,298,285,125.26,285,15688,62756,1140,0.95,0.03,0.08,-18.97,-8.81,-19.13,1.1,-83.27,-20.8,-7.16,-8.77,-19.93,-10.21,Right Fall while Standing
51:09.2,424,501,751.5,990,304,2.37,422.81,1.49,153.4,298,285,125.26,285,15688,78445,1425,0.99,0.04,0.07,-8.23,-4.42,-22.62,1.99,-83.63,-21.77,-7.97,-11.52,-20.82,-11,Right Fall while Standing
51:09.3,793,506,759,990,303,2.38,420.83,1.48,153.4,298,285,125.26,285,15688,94134,1710,0.98,0.12,0.04,-7.47,-1.01,-19.43,6.38,-81.04,-22.63,-8.35,-13.85,-21.47,-11.26,Right Fall while Standing
51:09.4,550,507,760.5,990,311,2.29,436.8,1.52,153.4,298,285,125.26,285,15688,109823,1995,0.98,0.15,0.03,-6.58,4.44,-7.77,8.16,-79.47,-23.39,-8.04,-14.73,-22.13,-10.9,Right Fall while Standing
51:09.6,223,502,753,990,314,2.26,442.88,1.53,153.4,298,285,125.26,285,15688,125512,2280,0.94,0.12,0.08,-12.05,2.31,-1.75,6.6,-79.75,-24.83,-8,-14.85,-23.57,-10.87,Right Fall while Standing
51:09.7,540,503,754.5,990,304,2.37,422.81,1.49,153.4,298,285,125.26,285,15688,141201,2565,1.01,0.12,0.08,-5.99,0.68,0.26,6.22,-80.22,-25.51,-8.17,-14.72,-24.24,-11.05,Right Fall while Standing
51:09.8,760,507,760.5,990,311,2.29,436.8,1.52,146.06,305,285,125.26,285,15688,0,0,1.02,0.1,0.07,-2,-2.34,0.28,5.1,-81.6,-25.69,-8.71,-14.59,-24.46,-11.62,Right Fall while Standing
51:09.9,579,508,762,990,319,2.21,453.13,1.56,146.06,305,285,125.26,285,15688,15689,285,1.02,0.12,0.03,-2,0.65,-8.29,6.06,-81.5,-25.87,-8.87,-15.52,-24.59,-11.78,Right Fall while Standing
51:10.1,520,508,762,990,327,2.13,469.83,1.6,146.06,305,285,125.26,285,15688,31378,570,0.99,0.16,0.04,-2.02,0.56,-5.09,8.31,-79.23,-26.05,-9.06,-16.06,-24.68,-11.86,Right Fall while Standing
51:10.2,456,507,760.5,990,320,2.2,455.19,1.56,146.06,305,285,125.26,285,15688,47067,855,0.98,0.13,0.06,-1.92,1.65,-0.45,6.93,-80.24,-26.22,-9.1,-16.02,-24.9,-11.94,Right Fall while Standing
51:10.3,766,512,768,990,321,2.19,457.26,1.57,146.06,305,285,125.26,285,15688,62756,1140,1,0.13,0.07,0.08,2.37,-0.35,7.07,-79.75,-26.14,-9.05,-15.96,-24.81,-11.88,Right Fall while Standing
51:10.4,690,514,771,990,324,2.16,463.52,1.58,146.06,305,284,125.26,285,15688,77876,1424,1.01,0.12,0.08,2.98,5.94,1.11,6.27,-80.34,-25.7,-8.56,-15.73,-24.42,-11.43,Right Fall while Standing
51:26.2,187,187,280.5,187,246,3.16,316.6,1.2,0,0,291,0,0,0,38290,582,0.98,-0.02,-0.38,-3.5,-4.98,-3.39,-1.86,-67.12,-0.75,-2.8,-0.16,-0.8,-5.37,Forward Fall while Standing
51:26.3,376,281,421.5,376,239,3.28,304.85,1.17,0,0,292,0,0,0,58018,874,0.97,-0.01,-0.4,-12.7,-20.69,-4.44,-0.97,-65.93,-2.24,-5.59,-0.61,-2.19,-8,Forward Fall while Standing
51:26.5,502,355,532.5,502,241,3.24,308.18,1.18,0,0,291,0,0,0,77163,1165,0.98,-0.06,-0.44,-5.41,-16.94,-7.07,-3.91,-63.93,-2.85,-7.94,-1.39,-2.89,-10.18,Forward Fall while Standing
51:26.6,557,405,607.5,557,250,3.09,323.42,1.22,0,0,291,0,0,0,96308,1456,0.97,0.02,-0.53,1.35,-17.5,-5.12,0.63,-59.89,-2.61,-10.34,-1.92,-2.48,-12.32,Forward Fall while Standing
51:26.7,440,412,618,557,255,3.01,332.03,1.25,0,0,291,0,0,0,115453,1747,0.94,0.03,-0.52,-0.89,-8,1.11,1.13,-59.5,-2.65,-11.58,-1.68,-2.5,-13.49,Forward Fall while Standing
51:26.8,73,355,532.5,557,260,2.93,340.76,1.27,0,0,292,0,0,0,135181,2039,0.92,0.01,-0.52,-0.69,-11.85,-1.16,0.22,-58.91,-2.67,-13.28,-1.73,-2.55,-15.1,Forward Fall while Standing
51:27.0,106,320,480,557,253,3.04,328.57,1.24,0,0,293,0,0,0,155494,2332,0.9,0.03,-0.56,-0.49,-19.38,-3.87,0.94,-56.27,-2.66,-15.89,-2.1,-2.51,-17.5,Forward Fall while Standing
51:27.1,320,320,480,557,244,3.19,313.22,1.19,0,0,294,0,0,0,176394,2626,0.86,0.04,-0.6,1.13,-20.02,-4.13,1.56,-53.62,-2.45,-18.62,-2.52,-2.29,-20.02,Forward Fall while Standing
51:27.2,474,337,505.5,557,240,3.26,306.51,1.17,20724.21,248,294,140.46,292,19728,0,0,0.83,0.02,-0.62,3.9,-23.7,-1.83,0.63,-52,-1.9,-21.8,-2.65,-1.79,-23.01,Forward Fall while Standing
51:27.3,547,358,537,557,248,3.13,320,1.21,20724.21,248,294,140.46,292,19728,20900,294,0.79,0.02,-0.69,5.02,-21.11,-1.21,0.25,-47.53,-1.19,-24.72,-2.7,-1.13,-25.63,Forward Fall while Standing
51:27.5,104,335,502.5,557,256,3,333.77,1.25,20724.21,248,297,140.46,292,19728,43573,591,1.27,0,-1.2,4.92,-31.66,7.44,-0.59,-45.05,-0.51,-28.92,-1.67,-0.51,-29.57,Forward Fall while Standing
51:27.6,207,324,486,557,246,3.16,316.6,1.2,20724.21,248,298,140.46,292,19728,66841,889,0.8,-0.02,-0.8,0.79,-10.11,4.4,-1.83,-43.38,-0.34,-30.44,-1.02,-0.4,-30.96,Forward Fall while Standing
51:27.7,485,336,504,557,238,3.3,303.18,1.16,20724.21,248,298,140.46,292,19728,90109,1187,0.79,-0.02,-0.77,-4.34,-18.66,-4.72,-1.81,-43.98,-0.81,-33.04,-1.52,-0.85,-33.48,Forward Fall while Standing
51:27.8,458,345,517.5,557,249,3.11,321.71,1.22,20724.21,248,298,140.46,292,19728,113377,1485,0.75,0,-0.81,-5.88,-14.31,-7.46,-0.82,-40.88,-1.48,-35.1,-2.36,-1.46,-35.33,Forward Fall while Standing
51:28.0,67,326,489,557,250,3.09,323.42,1.22,20724.21,248,304,140.46,292,19728,140257,1789,0.71,0.01,-0.81,-5.55,-8.07,-1.79,-0.22,-39.48,-2.11,-36.37,-2.48,-2.04,-36.49,Forward Fall while Standing
51:28.1,383,330,495,557,237,3.32,301.53,1.16,20724.21,248,301,140.46,292,19728,165322,2090,0.68,0.01,-0.81,-3.73,-12.13,-0.5,0.06,-38.19,-2.51,-38.15,-2.45,-2.41,-38.15,Forward Fall while Standing
51:28.2,537,342,513,557,245,3.18,314.91,1.2,20724.21,248,300,140.46,292,19728,189786,2390,0.69,0.02,-0.88,-4.05,-11.88,-1.65,0.27,-36.63,-2.95,-39.89,-2.56,-2.82,-39.76,Forward Fall while Standing
51:28.3,108,329,493.5,557,255,3.01,332.03,1.25,20724.21,248,304,140.46,292,19728,216666,2694,0.64,0.02,-0.88,-3.17,-7.57,-1.5,0.48,-34.57,-3.28,-41.1,-2.65,-3.13,-40.84,Forward Fall while Standing
51:28.5,176,321,481.5,557,244,3.19,313.22,1.19,20724.19,246,305,156.25,299,24414,0,0,0.63,0.02,-0.84,-2.6,-10.46,-1.18,0.72,-35.21,-3.53,-42.65,-2.69,-3.36,-42.35,Forward Fall while Standing
51:28.6,466,328,492,557,237,3.32,301.53,1.16,20724.19,246,302,156.25,299,24414,25668,302,0.61,0.02,-0.86,-1.77,-10.28,0.84,0.38,-33.75,-3.68,-44.19,-2.49,-3.52,-43.78,Forward Fall while Standing
51:28.7,551,339,508.5,557,248,3.13,320,1.21,20724.19,246,300,156.25,299,24414,50132,602,0.6,0.01,-0.87,0.63,-14.27,-0.48,-0.01,-32.96,-3.54,-46.23,-2.45,-3.4,-45.7,Forward Fall while Standing
51:28.8,48,326,489,557,258,2.97,337.25,1.26,20724.19,246,303,156.25,299,24414,76405,905,0.57,0.01,-0.92,1.35,-8.86,-0.94,-0.08,-30,-3.3,-47.59,-2.47,-3.17,-46.88,Forward Fall while Standing
51:29.0,272,323,484.5,557,247,3.14,318.3,1.21,20724.19,246,299,156.25,299,24414,100270,1204,0.56,0,-0.96,2.02,1.98,-0.77,-0.58,-28.83,-2.98,-47.59,-2.47,-2.88,-46.84,Forward Fall while Standing
51:29.1,502,331,496.5,557,242,3.23,309.86,1.18,20724.19,246,297,156.25,299,24414,122943,1501,0.63,-0.02,-0.96,5.18,22.67,1.09,-1.38,-31.45,-2.25,-44.98,-2.23,-2.22,-44.44,Forward Fall while Standing
51:29.2,514,338,507,557,252,3.06,326.85,1.23,20724.19,246,296,156.25,299,24414,145023,1797,0.64,-0.03,-0.96,1.48,38.11,1.12,-2.14,-32.07,-2,-40.47,-1.99,-2,-40.13,Forward Fall while Standing
51:29.3,0,325,487.5,557,258,2.97,337.25,1.26,20724.19,246,296,156.25,299,24414,167103,2093,0.7,-0.04,-0.81,6.82,55.57,0.08,-2.99,-39.29,-1.07,-33.72,-1.88,-1.14,-33.94,Forward Fall while Standing
51:29.5,525,332,498,557,246,3.16,316.6,1.2,20724.19,246,292,156.25,299,24414,186831,2385,0.78,-0.05,-0.7,-2.36,41.49,-6.74,-3.1,-46.24,-1.29,-28.78,-2.62,-1.36,-29.48,Forward Fall while Standing
51:29.6,506,338,507,557,254,3.03,330.3,1.24,20724.19,246,290,156.25,299,24414,205395,2675,0.79,-0.02,-0.63,5.69,26.6,-8.73,-1.45,-49.87,-0.5,-25.66,-3.63,-0.54,-26.63,Forward Fall while Standing
51:29.7,501,344,516,557,265,2.86,349.6,1.3,20724.24,250,290,149.65,296,22394,0,0,0.86,-0.02,-0.62,1.79,27.37,-3.49,-1.58,-52.33,-0.21,-22.51,-3.97,-0.26,-23.71,Forward Fall while Standing
51:29.8,0,333,499.5,557,272,2.76,362.18,1.33,20724.24,250,289,149.65,296,22394,17985,289,0.88,-0.02,-0.55,3.17,45.66,-4.41,-1.73,-56.4,0.26,-17.06,-4.42,0.18,-18.63,Forward Fall while Standing
51:30.0,82,324,486,557,282,2.63,380.57,1.38,20724.24,250,288,149.65,296,22394,35393,577,0.95,-0.02,-0.44,6.03,68.79,-8.95,-1.72,-63.57,1.08,-8.71,-5.44,0.97,-10.9,Forward Fall while Standing
51:30.1,588,333,499.5,588,298,2.43,411.03,1.46,20724.24,250,287,149.65,296,22394,52226,864,1.02,0,-0.28,3.79,66.27,0.37,-0.83,-72.92,1.63,-0.67,-5.3,1.53,-3.56,Forward Fall while Standing
51:30.2,415,335,502.5,588,307,2.33,428.77,1.5,20724.24,250,287,149.65,296,22394,69059,1151,1,0.01,-0.21,9.51,78.17,1.76,0.24,-76.37,2.88,8.85,-4.98,2.78,5.44,Forward Fall while Standing
51:30.3,223,332,498,588,308,2.32,430.77,1.51,20724.24,250,287,149.65,296,22394,85892,1438,0.95,0.01,-0.1,-7.63,40.24,3.7,0.03,-82.29,2.01,13.59,-4.42,1.93,9.75,Forward Fall while Standing
51:30.5,474,336,504,588,300,2.41,414.94,1.47,20724.24,250,287,149.65,296,22394,102725,1725,1.05,-0.04,-0.06,-12.63,30.86,10.26,-2.58,-84.39,0.5,17.2,-3.04,0.38,13.13,Forward Fall while Standing
51:30.6,873,351,526.5,873,302,2.39,418.86,1.48,20724.24,250,286,149.65,296,22394,118985,2011,1.06,-0.06,0.08,-5.72,45.18,-0.91,-3.71,-83.18,-0.15,22.64,-3.05,-0.29,18.4,Forward Fall while Standing
51:30.7,594,357,535.5,873,309,2.31,432.77,1.51,20724.24,250,286,149.65,296,22394,135245,2297,1,-0.05,0.17,-19.11,2.12,-1.95,-3.67,-78.49,-2.47,22.65,-3.2,-2.52,18.61,Forward Fall while Standing
51:30.8,351,357,535.5,873,310,2.3,434.78,1.52,20724.24,250,287,149.65,296,22394,152078,2584,1.03,-0.05,0.19,-10.9,13.75,-4.06,-3.5,-77.5,-3.76,24.12,-3.61,-3.75,20.05,Forward Fall while Standing
51:31.0,747,367,550.5,873,302,2.39,418.86,1.48,154.94,299,286,129.74,287,16832,0,0,0.95,-0.04,0.25,-2.51,32.29,-11.49,-3.06,-73.46,-4,27.88,-4.93,-3.97,23.82,Forward Fall while Standing
51:31.1,874,380,570,874,306,2.34,426.78,1.5,154.94,299,286,129.74,287,16832,16260,286,0.93,-0.02,0.25,-3.08,33.44,-8.95,-1.92,-73.42,-4.32,31.8,-5.95,-4.22,27.6,Forward Fall while Standing
51:31.2,647,386,579,874,318,2.22,451.06,1.55,154.94,299,286,129.74,287,16832,32520,572,0.92,-0.04,0.28,-25.1,-19.27,-1.94,-2.79,-71.4,-7.39,29.15,-6.1,-7.2,25.12,Forward Fall while Standing
51:31.3,261,383,574.5,874,317,2.23,449.01,1.55,154.94,299,287,129.74,287,16832,49353,859,1.19,0.02,0.17,-12.96,-28.18,7.33,0.22,-80.02,-8.94,25.37,-5.08,-8.57,21.16,Forward Fall while Standing
51:31.5,543,387,580.5,874,309,2.31,432.77,1.51,154.94,299,286,129.74,287,16832,65613,1145,1,-0.05,0.27,8.23,-13.64,-0.5,-3.47,-72.9,-7.84,23.42,-5.05,-7.66,19.56,Forward Fall while Standing
51:31.6,763,396,594,874,312,2.28,438.82,1.52,154.94,299,286,129.74,287,16832,81873,1431,1,-0.03,0.13,2.28,-21.09,-5.05,-2.24,-80.87,-7.48,20.53,-5.58,-7.27,16.47,Forward Fall while Standing
51:31.7,556,399,598.5,874,322,2.18,459.34,1.57,154.94,299,286,129.74,287,16832,98133,1717,1.03,-0.03,0.1,5.86,-6.74,-8.19,-2.36,-82.63,-6.68,19.44,-6.5,-6.51,15.36,Forward Fall while Standing
51:31.8,254,396,594,874,329,2.11,474.06,1.61,154.94,299,287,129.74,287,16832,114966,2004,1,-0.02,0.02,-0.31,5.31,-10.2,-1.9,-86.72,-6.65,19.85,-7.68,-6.46,15.59,Forward Fall while Standing
51:32.0,544,399,598.5,874,330,2.1,476.19,1.61,154.94,299,286,129.74,287,16832,131226,2290,1,-0.01,0.08,-7.13,-2.18,-3.41,-1.12,-83.93,-7.47,19.33,-8.01,-7.22,15.2,Forward Fall while Standing
51:32.1,948,411,616.5,948,351,1.91,522.32,1.72,154.94,299,286,129.74,287,16832,147486,2576,1.01,0,0.13,-10.49,-4.49,0.6,-0.81,-81.21,-8.71,18.52,-7.83,-8.39,14.53,Forward Fall while Standing
51:32.2,860,420,630,948,367,1.79,559.45,1.79,20724.19,326,286,127.96,286,16373,0,0,1.01,-0.01,0.12,-3.8,-0.05,-1.78,-1.05,-81.76,-9.11,18.26,-7.96,-8.79,14.26,Forward Fall while Standing
51:32.3,538,422,633,948,381,1.69,593.46,1.86,20724.19,326,286,127.96,286,16373,16260,286,0.99,0,0.1,-4.39,-7.16,-2.73,-0.78,-82.93,-9.59,17.12,-8.2,-9.24,13.12,Forward Fall while Standing
51:32.5,479,423,634.5,948,386,1.65,605.97,1.89,20724.19,326,286,127.96,286,16373,32520,572,1,-0.01,0.09,-4.25,-5.15,0.45,-1.08,-83.47,-10.06,16.22,-8.04,-9.7,12.23,Forward Fall while Standing
51:32.6,748,429,643.5,948,383,1.67,598.44,1.87,20724.19,326,286,127.96,286,16373,48780,858,1.01,-0.01,0.05,-1.61,1.72,-0.74,-1.34,-85.4,-10.19,16.18,-8.04,-9.83,12.12,Forward Fall while Standing
51:32.7,610,433,649.5,948,379,1.7,588.51,1.85,20724.19,326,286,127.96,286,16373,65040,1144,1.02,-0.01,0.04,-4.82,-0.08,-2.06,-0.98,-85.88,-10.72,15.92,-8.2,-10.33,11.85,Forward Fall while Standing
51:39.5,990,990,1485,990,391,1.62,618.67,1.91,0,0,287,0,0,0,33666,574,1.01,-0.01,0.08,6.18,-1.22,3.4,-1.33,-83.73,1.47,-2.05,0.71,1.36,-5.32,Sitting
51:39.6,594,792,1188,990,391,1.62,618.67,1.91,0,0,287,0,0,0,50499,861,1.02,0.01,0.08,-3.23,-11.16,1.47,-0.14,-83.92,1.15,-3.65,0.98,1.09,-6.87,Sitting
51:39.7,401,661,991.5,990,391,1.62,618.67,1.91,0,0,287,0,0,0,67332,1148,1.02,0,0.03,-1.85,-4.55,3.69,-0.68,-86.91,0.99,-4.45,1.53,0.92,-7.75,Sitting
51:39.8,264,562,843,990,389,1.63,613.56,1.9,0,0,287,0,0,0,84165,1435,1.03,-0.02,0.06,5.92,1.27,-0.6,-1.7,-85,1.79,-4.54,1.56,1.65,-7.76,Sitting
51:40.0,317,513,769.5,990,388,1.64,611.02,1.9,0,0,287,0,0,0,100998,1722,1.02,-0.01,0,-3.74,-0.02,-3.86,-1.13,-87.86,1.4,-4.79,1.18,1.3,-8.11,Sitting
51:40.1,327,482,723,990,386,1.65,605.97,1.89,0,0,286,0,0,0,117258,2008,0.99,0,0.03,0.17,-7.47,-4.95,-0.41,-86.61,1.49,-5.94,0.67,1.41,-9.17,Sitting
51:40.2,589,497,745.5,990,387,1.64,608.49,1.89,0,0,286,0,0,0,133518,2294,1.01,0,0.04,-6.47,1.73,-0.79,-0.64,-85.9,0.77,-5.98,0.67,0.71,-9.17,Sitting
51:40.3,765,530,795,990,389,1.63,613.56,1.9,0,0,286,0,0,0,149778,2580,1.01,-0.03,0.04,-3.49,1.08,-0.74,-2.05,-85.9,0.41,-6.09,0.68,0.31,-9.28,Sitting
51:40.5,793,560,840,990,390,1.62,616.11,1.91,142.58,389,286,128.85,286,16602,0,0,1.03,0.02,0.03,-3.15,-0.63,-2.89,0.38,-86.43,0.09,-6.41,0.42,0.1,-9.61,Sitting
51:40.6,735,577,865.5,990,392,1.61,621.24,1.92,142.58,389,287,128.85,286,16602,16833,287,0.99,0,0.01,-2.15,-1.03,-1.45,-0.58,-87.69,-0.11,-6.79,0.34,-0.13,-10.02,Sitting
51:40.7,398,561,841.5,990,392,1.61,621.24,1.92,142.58,389,287,128.85,286,16602,33666,574,1,0.01,0.02,-2.58,0.18,-1.47,-0.13,-87,-0.36,-7.01,0.25,-0.35,-10.21,Sitting
51:40.8,252,535,802.5,990,389,1.63,613.56,1.9,142.58,389,287,128.85,286,16602,50499,861,1.01,-0.01,0.04,-3.15,2.61,-0.33,-1.14,-86,-0.68,-6.94,0.31,-0.7,-10.1,Sitting
51:41.0,571,538,807,990,389,1.63,613.56,1.9,142.58,389,287,128.85,286,16602,67332,1148,1,0.02,0.03,-3.41,-3.33,-1.77,0.62,-86.5,-1.04,-7.6,0.19,-0.97,-10.76,Sitting
51:41.1,795,556,834,990,392,1.61,621.24,1.92,142.58,389,287,128.85,286,16602,84165,1435,1,0,0.01,0.83,-0.5,0.47,-0.72,-87.9,-0.87,-7.92,0.35,-0.86,-11.12,Sitting
51:41.2,610,560,840,990,394,1.6,626.39,1.93,142.58,389,287,128.85,286,16602,100998,1722,1.03,0.02,0.02,-1.38,8.43,-4.51,0.61,-86.72,-0.97,-7.12,-0.12,-0.91,-10.3,Sitting
51:41.3,249,540,810,990,391,1.62,618.67,1.91,142.58,389,287,128.85,286,16602,117831,2009,1.05,0,0.02,5.79,21.67,-4.66,-0.49,-87.47,-0.18,-4.66,-0.6,-0.19,-7.97,Sitting
51:41.5,414,533,799.5,990,389,1.63,613.56,1.9,142.58,389,287,128.85,286,16602,134664,2296,1.01,0.02,0.1,-4.01,16.02,-12.22,0.78,-82.85,-0.6,-2.92,-2.02,-0.55,-6.12,Sitting
51:41.6,757,545,817.5,990,392,1.61,621.24,1.92,142.58,389,287,128.85,286,16602,151497,2583,1.01,0.02,0.11,-10.34,13.73,-1.02,0.7,-81.98,-1.83,-1.46,-2.04,-1.72,-4.68,Sitting
51:41.7,661,551,826.5,990,393,1.6,623.81,1.92,148.48,391,287,129.74,287,16832,0,0,0.96,0.03,0.18,-8.63,5.54,0.19,1.47,-77.86,-2.83,-1.02,-1.92,-2.65,-4.09,Sitting
51:41.8,378,543,814.5,990,392,1.61,621.24,1.92,148.48,391,287,129.74,287,16832,16833,287,0.98,0.02,0.2,-7.91,5.09,9.92,0.71,-76.73,-3.74,-0.63,-0.6,-3.56,-3.68,Sitting
51:42.0,163,524,786,990,388,1.64,611.02,1.9,148.48,391,287,129.74,287,16832,33666,574,1.03,-0.06,0.18,2.47,5.69,4.18,-4.05,-77.99,-3.36,-0.18,0.02,-3.39,-3.29,Sitting
51:42.1,394,518,777,990,389,1.63,613.56,1.9,148.48,391,287,129.74,287,16832,50499,861,0.93,0.02,0.17,-1.18,-0.03,-7.35,0.41,-78.21,-3.44,-0.43,-0.79,-3.29,-3.54,Sitting
51:42.2,814,531,796.5,990,392,1.61,621.24,1.92,148.48,391,287,129.74,287,16832,67332,1148,1.01,-0.03,0.25,5.34,-30.24,-0.34,-2.49,-74.27,-2.7,-4.46,-0.74,-2.69,-7.25,Sitting
51:42.3,642,536,804,990,395,1.59,628.98,1.93,148.48,391,287,129.74,287,16832,84165,1435,1.02,0,0.17,13.33,23.92,-7.47,-0.49,-79.25,-0.97,-1.72,-1.57,-0.95,-4.82,Sitting
51:42.5,237,524,786,990,392,1.61,621.24,1.92,148.48,391,287,129.74,287,16832,100998,1722,0.91,0.09,0.04,-6.48,-8.77,-2.47,4.89,-82.5,-1.71,-3.06,-1.78,-1.44,-6.24,Sitting
51:42.6,366,518,777,990,390,1.62,616.11,1.91,148.48,391,287,129.74,287,16832,117831,2009,1.01,0.03,0.14,6.65,-8.18,8.44,1.04,-80.58,-0.81,-4.34,-0.63,-0.73,-7.39,Sitting
51:42.7,671,523,784.5,990,391,1.62,618.67,1.91,148.48,391,284,129.74,287,16832,132951,2293,1.04,-0.02,0.12,-5.82,-7.53,-5.27,-1.85,-81.51,-1.46,-5.53,-1.19,-1.48,-8.57,Sitting
51:42.8,746,531,796.5,990,393,1.6,623.81,1.92,148.48,391,288,129.74,287,16832,150359,2581,0.98,0.02,0.14,-7.73,13.16,4.64,0.73,-80.39,-2.36,-4.13,-0.51,-2.24,-7.18,Sitting
51:43.0,327,524,786,990,392,1.61,621.24,1.92,148.74,391,288,129.52,286,16775,0,0,1.06,-0.01,0.07,-15.73,4.41,-8.09,-1.12,-84.63,-4.21,-3.84,-1.4,-4.09,-7.07,Sitting
51:43.1,240,515,772.5,990,389,1.63,613.56,1.9,148.74,391,287,129.52,286,16775,16833,287,0.99,0.06,0.14,-5.76,-3.25,-11.66,3.12,-79.83,-4.86,-4.49,-2.76,-4.54,-7.51,Sitting
51:43.2,669,520,780,990,391,1.62,618.67,1.91,148.74,391,287,129.52,286,16775,33666,574,0.96,0.01,0.15,-6.69,-11.65,-0.58,-0.18,-79.35,-5.63,-6.2,-2.73,-5.41,-9.13,Sitting
51:43.3,836,530,795,990,392,1.61,621.24,1.92,148.74,391,287,129.52,286,16775,50499,861,0.93,0.02,0.12,-1.5,-7.51,3.57,0.44,-81.24,-5.74,-7.39,-2.19,-5.5,-10.34,Sitting
51:43.4,426,527,790.5,990,393,1.6,623.81,1.92,148.74,391,287,129.52,286,16775,67332,1148,1.03,0.02,0.07,-0.77,1.62,1.58,0.49,-84.18,-5.77,-7.44,-1.89,-5.52,-10.51,Sitting
51:43.6,188,517,775.5,990,389,1.63,613.56,1.9,148.74,391,287,129.52,286,16775,84165,1435,1.04,-0.02,0.06,3.64,-14.59,10.92,-1.9,-84.63,-5.24,-9.51,-0.43,-5.11,-12.52,Sitting
51:43.7,732,523,784.5,990,388,1.64,611.02,1.9,148.74,391,287,129.52,286,16775,100998,1722,1.06,-0.02,0.12,-2.09,0.51,-3.7,-1.75,-81.9,-5.44,-9.7,-0.79,-5.29,-12.58,Sitting
51:43.8,791,530,795,990,390,1.62,616.11,1.91,148.74,391,287,129.52,286,16775,117831,2009,0.98,-0.01,0.08,5.51,7.08,-12.34,-1.01,-83.93,-4.68,-9.06,-2.24,-4.53,-12.06,Sitting
51:43.9,457,528,792,990,393,1.6,623.81,1.92,148.74,391,288,129.52,286,16775,135239,2297,0.97,0.02,0.07,-1.67,-6.57,1.6,0.49,-84.1,-4.82,-10.14,-1.94,-4.6,-13.1,Sitting
51:44.1,211,520,780,990,390,1.62,616.11,1.91,148.74,391,288,129.52,286,16775,152647,2585,1.04,0,0.05,5.29,8.05,-0.89,-0.32,-85.41,-4.09,-9.39,-1.95,-3.94,-12.43,Sitting
51:44.2,535,520,780,990,388,1.64,611.02,1.9,145.83,390,287,130.18,287,16947,0,0,0.98,0.03,0.05,-3.37,6.73,-2.24,1.41,-84.71,-4.43,-8.8,-2.13,-4.2,-11.84,Sitting
51:44.3,808,527,790.5,990,390,1.62,616.11,1.91,145.83,390,288,130.18,287,16947,17408,288,1.02,0.05,0,-7.92,-6.69,8.08,2.13,-85.71,-5.35,-9.89,-1.02,-5.05,-12.92,Sitting
51:44.4,774,533,799.5,990,392,1.61,621.24,1.92,145.83,390,287,130.18,287,16947,34241,575,1.08,-0.04,0.08,-2.86,4.16,-3.5,-2.82,-83.54,-5.64,-9.62,-1.35,-5.52,-12.58,Sitting
51:44.6,260,527,790.5,990,392,1.61,621.24,1.92,145.83,390,288,130.18,287,16947,51649,863,0.98,0.01,0.07,-2.63,-4.61,-6.01,-0.17,-84.27,-5.89,-10.45,-2,-5.67,-13.4,Sitting
51:44.7,258,521,781.5,990,388,1.64,611.02,1.9,145.83,390,287,130.18,287,16947,68482,1150,1,0.01,0.06,-1.05,6.09,0.83,-0.16,-85.06,-5.96,-9.94,-1.8,-5.72,-12.94,Sitting
51:44.8,712,525,787.5,990,390,1.62,616.11,1.91,145.83,390,287,130.18,287,16947,85315,1437,1.01,0.02,0.05,2.52,2.38,2.8,0.81,-85.28,-5.57,-9.89,-1.35,-5.32,-12.91,Sitting
51:44.9,846,532,798,990,392,1.61,621.24,1.92,145.83,390,287,130.18,287,16947,102148,1724,1.05,-0.02,0.03,-0.98,-5.37,-2.31,-1.86,-86.43,-5.62,-10.81,-1.54,-5.47,-13.84,Sitting
51:45.1,302,527,790.5,990,393,1.6,623.81,1.92,145.83,390,288,130.18,287,16947,119556,2012,0.99,0.02,0.02,-1.71,2.3,-9.24,0.32,-87.13,-5.77,-10.78,-2.6,-5.52,-13.83,Sitting
51:45.2,147,519,778.5,990,388,1.64,611.02,1.9,145.83,390,288,130.18,287,16947,136964,2300,0.97,0.04,0.03,0.67,9.71,-0.21,1.84,-85.53,-5.61,-9.81,-2.52,-5.32,-12.84,Sitting
51:45.3,605,521,781.5,990,389,1.63,613.56,1.9,145.83,390,287,130.18,287,16947,153797,2587,1.01,-0.05,0.05,-11.59,-7.45,7.08,-3.36,-84.36,-6.99,-10.99,-1.54,-6.85,-13.93,Sitting
51:45.4,812,527,790.5,990,392,1.61,621.24,1.92,146.63,390,287,130.63,287,17062,0,0,1.02,0.03,0.06,2.5,9.16,-3.63,0.84,-84.63,-6.61,-10.11,-1.89,-6.31,-13.09,Sitting
51:45.6,505,526,789,990,393,1.6,623.81,1.92,146.63,390,288,130.63,287,17062,17408,288,1,0.02,0.08,2.33,12.47,3.6,0.79,-83.82,-6.25,-8.8,-1.34,-5.97,-11.8,Sitting
51:45.7,143,519,778.5,990,391,1.62,618.67,1.91,146.63,390,288,130.63,287,17062,34816,576,1,0,0.08,-6.66,-5.07,-0.63,-0.47,-83.72,-7.01,-9.67,-1.32,-6.75,-12.64,Sitting
51:45.8,380,516,774,990,388,1.64,611.02,1.9,146.63,390,288,130.63,287,17062,52224,864,1.02,-0.01,0.09,-2.8,-5.44,0.5,-1.21,-83.54,-7.29,-10.6,-1.16,-7.04,-13.52,Sitting
51:45.9,832,522,783,990,391,1.62,618.67,1.91,146.63,390,288,130.63,287,17062,69632,1152,1.02,-0.02,0.05,-2.34,11.15,-4.28,-1.46,-85.62,-7.51,-9.46,-1.6,-7.27,-12.51,Sitting
51:46.1,675,525,787.5,990,393,1.6,623.81,1.92,146.63,390,288,130.63,287,17062,87040,1440,1,0.01,0.02,-9.66,4.72,-2.69,0.02,-86.92,-8.65,-9.12,-1.83,-8.3,-12.23,Sitting
51:46.2,190,519,778.5,990,392,1.61,621.24,1.92,146.63,390,288,130.63,287,17062,104448,1728,0.95,0.01,0.09,-13.52,-5.68,-0.5,-0.07,-83.11,-10.25,-10.07,-1.8,-9.85,-12.99,Sitting
51:46.3,431,517,775.5,990,388,1.64,611.02,1.9,146.63,390,288,130.63,287,17062,121856,2016,1.04,0,0.13,-3.67,-3.25,10.11,-0.41,-81.47,-10.65,-10.73,-0.42,-10.24,-13.56,Sitting
51:46.4,814,522,783,990,391,1.62,618.67,1.91,146.63,390,288,130.63,287,17062,139264,2304,0.98,-0.06,0.11,-2.66,-1.54,1.85,-4.07,-81.31,-10.91,-11.18,-0.09,-10.64,-13.98,Sitting
51:46.6,530,522,783,990,393,1.6,623.81,1.92,146.63,390,288,130.63,287,17062,156672,2592,1,-0.04,0.05,-2.58,-4.82,-2.22,-2.87,-84.87,-11.16,-12.04,-0.28,-10.83,-14.95,Sitting
51:46.7,167,516,774,990,389,1.63,613.56,1.9,147.42,390,288,131.94,288,17407,0,0,0.99,-0.02,0.03,1.22,3.5,-0.34,-1.81,-86.49,-10.94,-11.85,-0.22,-10.58,-14.83,Sitting
51:46.8,574,517,775.5,990,389,1.63,613.56,1.9,147.42,390,288,131.94,288,17407,17408,288,1.04,-0.06,0.05,-5.75,-0.24,4.69,-3.65,-84.12,-11.59,-12.13,0.47,-11.27,-15.01,Sitting
51:46.9,997,525,787.5,997,392,1.61,621.24,1.92,147.42,390,287,131.94,288,17407,34241,575,1.01,-0.07,0.09,-1.56,6.05,-2.69,-4.69,-82,-11.71,-11.62,0.23,-11.43,-14.44,Sitting
51:47.1,466,524,786,997,393,1.6,623.81,1.92,147.42,390,288,131.94,288,17407,51649,863,1,-0.04,0.06,-3.33,3.54,-0.83,-3.16,-83.91,-12.06,-11.43,0.22,-11.7,-14.33,Sitting
51:47.2,105,518,777,997,390,1.62,616.11,1.91,147.42,390,288,131.94,288,17407,69057,1151,1.01,-0.04,0.07,-2.92,5.36,1,-2.62,-83.79,-12.36,-11.01,0.45,-11.97,-13.92,Sitting
51:47.3,556,518,777,997,389,1.63,613.56,1.9,147.42,390,288,131.94,288,17407,86465,1439,1.01,-0.07,0.1,-2.31,6.1,0.19,-4.34,-81.64,-12.58,-10.49,0.57,-12.25,-13.34,Sitting
51:47.4,843,523,784.5,997,392,1.61,621.24,1.92,147.42,390,288,131.94,288,17407,103873,1727,1.02,-0.06,0.1,-2.73,0.11,0.25,-3.67,-82.13,-12.85,-10.73,0.7,-12.48,-13.58,Sitting
51:47.6,396,521,781.5,997,394,1.6,626.39,1.93,147.42,390,288,131.94,288,17407,121281,2015,1.01,-0.07,0.09,0.02,-1.92,-1.37,-4.51,-81.95,-12.78,-11.22,0.63,-12.44,-14.05,Sitting
51:47.7,141,516,774,997,389,1.63,613.56,1.9,147.42,390,288,131.94,288,17407,138689,2303,1.01,-0.06,0.06,-0.89,-0.53,-1.69,-4.2,-83.62,-12.82,-11.54,0.52,-12.47,-14.42,Sitting
51:47.8,708,518,777,997,390,1.62,616.11,1.91,147.42,390,288,131.94,288,17407,156097,2591,1.01,-0.05,0.06,-3.1,1.77,-1.2,-3.68,-83.95,-13.14,-11.57,0.47,-12.76,-14.46,Sitting
51:48.0,798,522,783,997,392,1.61,621.24,1.92,147.69,391,288,131.72,287,17349,0,0,1.01,-0.07,0.08,-3.6,1.28,-0.96,-4.27,-82.72,-13.51,-11.66,0.44,-13.14,-14.5,Sitting
51:48.1,318,519,778.5,997,393,1.6,623.81,1.92,147.69,391,288,131.72,287,17349,17408,288,1.01,-0.04,0.07,-2.24,-0.98,-0.75,-3.1,-83.58,-13.72,-12.03,0.45,-13.3,-14.89,Sitting
51:48.2,152,514,771,997,389,1.63,613.56,1.9,147.69,391,288,131.72,287,17349,34816,576,1,-0.06,0.08,-3.37,-2.02,-1.51,-4.06,-82.76,-14.08,-12.53,0.36,-13.68,-15.34,Sitting
51:48.3,743,517,775.5,997,390,1.62,616.11,1.91,147.69,391,288,131.72,287,17349,52224,864,1.02,-0.06,0.06,-2.76,1.21,0.12,-3.92,-83.58,-14.35,-12.63,0.47,-13.93,-15.47,Sitting
51:48.5,906,523,784.5,997,392,1.61,621.24,1.92,147.69,391,288,131.72,287,17349,69632,1152,1,-0.07,0.07,-3.87,4.44,-0.83,-4.32,-82.95,-14.76,-12.33,0.47,-14.35,-15.15,Sitting
51:48.6,389,521,781.5,997,393,1.6,623.81,1.92,147.69,391,288,131.72,287,17349,87040,1440,1.01,-0.07,0.08,-1.92,7.46,-2.92,-4.7,-82.44,-14.93,-11.65,0.2,-14.53,-14.48,Sitting
51:48.7,176,516,774,997,388,1.64,611.02,1.9,147.69,391,288,131.72,287,17349,104448,1728,1.01,-0.05,0.1,-3.41,10.5,-7.37,-3.61,-82.2,-15.29,-10.58,-0.63,-14.83,-13.44,Sitting
51:48.8,824,520,780,997,390,1.62,616.11,1.91,147.69,391,288,131.72,287,17349,121856,2016,0.99,-0.05,0.11,-4.74,-2.42,-1.47,-3.24,-81.35,-15.82,-11.13,-0.71,-15.32,-13.94,Sitting
51:49.0,701,523,784.5,997,392,1.61,621.24,1.92,147.69,391,288,131.72,287,17349,139264,2304,1,-0.04,0.11,-1.56,-3.66,1.98,-2.86,-81.76,-15.95,-11.85,-0.37,-15.42,-14.64,Sitting
51:49.1,80,517,775.5,997,391,1.62,618.67,1.91,147.69,391,288,131.72,287,17349,156672,2592,1.02,-0.06,0.12,-0.55,-8.29,4.13,-4.19,-80.89,-15.95,-13.13,0.25,-15.48,-15.84,Sitting
51:49.2,419,516,774,997,389,1.63,613.56,1.9,146.89,390,288,131.94,288,17407,0,0,1,-0.08,0.08,3.85,-3.12,-1.92,-5.22,-82,-15.4,-13.77,0.11,-14.99,-16.5,Sitting
51:49.3,872,520,780,997,391,1.62,618.67,1.91,146.89,390,288,131.94,288,17407,17408,288,1.01,-0.06,0.05,-0.05,0.12,-0.73,-4.24,-83.65,-15.33,-14,0.12,-14.89,-16.79,Sitting
51:49.5,713,523,784.5,997,392,1.61,621.24,1.92,146.89,390,288,131.94,288,17407,34816,576,1.01,-0.07,0.05,-3.36,3.93,-0.52,-4.7,-83.37,-15.68,-13.76,0.15,-15.24,-16.55,Sitting
51:49.6,122,518,777,997,391,1.62,618.67,1.91,146.89,390,288,131.94,288,17407,52224,864,1.02,-0.06,0.1,-3.34,4.95,-3.45,-3.95,-82,-16.03,-13.39,-0.18,-15.55,-16.14,Sitting
51:49.7,350,516,774,997,388,1.64,611.02,1.9,146.89,390,288,131.94,288,17407,69632,1152,1,-0.06,0.09,-0.03,0.36,-2.22,-3.97,-82.45,-15.96,-13.6,-0.36,-15.48,-16.35,Sitting
51:49.8,905,520,780,997,391,1.62,618.67,1.91,146.89,390,288,131.94,288,17407,87040,1440,0.99,-0.06,0.09,-0.33,0.03,0.07,-3.76,-82.49,-15.94,-13.85,-0.26,-15.45,-16.59,Sitting
51:50.0,579,521,781.5,997,392,1.61,621.24,1.92,146.89,390,288,131.94,288,17407,104448,1728,1.01,-0.06,0.08,-1.09,2.05,0.07,-4.05,-82.57,-16,-13.84,-0.15,-15.52,-16.59,Sitting
51:50.1,83,516,774,997,389,1.63,613.56,1.9,146.89,390,288,131.94,288,17407,121856,2016,1.01,-0.06,0.08,-2.31,-0.7,-0.21,-4.05,-82.73,-16.22,-14.18,-0.08,-15.73,-16.92,Sitting
51:50.2,883,520,780,997,389,1.63,613.56,1.9,146.89,390,288,131.94,288,17407,139264,2304,1.01,-0.07,0.09,-1.24,2.89,-2.29,-4.7,-81.82,-16.31,-14.06,-0.26,-15.84,-16.77,Sitting
51:50.3,887,524,786,997,391,1.62,618.67,1.91,146.89,390,288,131.94,288,17407,156672,2592,1.01,-0.06,0.11,-2.59,0.37,1.64,-4.18,-81.34,-16.56,-14.27,0.04,-16.07,-16.95,Sitting
51:50.5,355,522,783,997,392,1.61,621.24,1.92,146.62,390,288,131.94,288,17407,0,0,1.02,-0.06,0.06,-0.82,2.13,-1.41,-4.23,-83.62,-16.59,-14.25,-0.04,-16.1,-17.03,Sitting
51:50.6,91,518,777,997,389,1.63,613.56,1.9,146.62,390,288,131.94,288,17407,17408,288,1,-0.07,0.1,0.03,3.73,-3.56,-4.52,-81.56,-16.52,-14.04,-0.38,-16.04,-16.74,Sitting
51:50.7,557,518,777,997,389,1.63,613.56,1.9,146.62,390,288,131.94,288,17407,34816,576,0.99,-0.07,0.09,-3.05,0.99,2.29,-4.9,-81.83,-16.83,-14.16,0,-16.35,-16.87,Sitting
51:50.8,871,522,783,997,391,1.62,618.67,1.91,146.62,390,287,131.94,288,17407,51649,863,1.01,-0.1,0.09,-0.39,-0.75,0.46,-6.13,-80.88,-16.81,-14.51,0.16,-16.38,-17.16,Sitting
51:51.0,490,522,783,997,394,1.6,626.39,1.93,146.62,390,288,131.94,288,17407,69057,1151,1.02,-0.08,0.08,0.46,5.4,-3.91,-5.21,-82,-16.68,-14.08,-0.23,-16.22,-16.8,Sitting
51:51.1,121,517,775.5,997,390,1.62,616.11,1.91,146.62,390,288,131.94,288,17407,86465,1439,0.99,-0.06,0.08,-2.4,-0.11,-1.18,-4.13,-82.52,-16.91,-14.35,-0.28,-16.4,-17.07,Sitting
51:51.2,692,519,778.5,997,390,1.62,616.11,1.91,146.62,390,287,131.94,288,17407,103298,1726,1.01,-0.09,0.08,-6.28,-0.02,0.36,-5.41,-81.88,-17.63,-14.6,-0.13,-17.15,-17.29,Sitting
51:51.3,837,522,783,997,392,1.61,621.24,1.92,146.62,390,288,131.94,288,17407,120706,2014,1.02,-0.08,0.12,-2.83,2.61,-0.85,-5.26,-80.42,-17.92,-14.53,-0.14,-17.41,-17.16,Sitting
51:51.5,200,519,778.5,997,393,1.6,623.81,1.92,146.62,390,288,131.94,288,17407,138114,2302,1.01,-0.1,0.08,-3,1.22,-2.46,-6.01,-81.45,-18.23,-14.62,-0.35,-17.74,-17.3,Sitting
51:51.6,310,517,775.5,997,388,1.64,611.02,1.9,146.62,390,288,131.94,288,17407,155522,2590,0.99,-0.05,0.1,-1.21,3.05,-1.95,-3.74,-82.06,-18.31,-14.49,-0.5,-17.73,-17.19,Sitting
51:51.7,900,521,781.5,997,391,1.62,618.67,1.91,146.89,390,288,131.5,287,17292,0,0,1,-0.09,0.12,-1.54,2.59,1.16,-5.47,-80.03,-18.43,-14.42,-0.26,-17.91,-17.04,Sitting
51:51.8,834,524,786,997,392,1.61,621.24,1.92,146.89,390,288,131.5,287,17292,17408,288,1.02,-0.07,0.1,-1.54,-0.69,2.48,-4.5,-81.69,-18.55,-14.75,0.15,-17.99,-17.43,Sitting
51:52.0,199,516,774,997,392,1.61,621.24,1.92,146.89,390,288,131.5,287,17292,34816,576,1,-0.09,0.08,0.18,-3.37,4.28,-5.86,-81.6,-18.46,-15.42,0.78,-17.96,-18.07,Sitting
51:52.1,252,513,769.5,997,388,1.64,611.02,1.9,146.89,390,288,131.5,287,17292,52224,864,0.96,-0.08,0.07,1.92,-7.29,9.4,-5.39,-82.25,-18.15,-16.58,2.06,-17.64,-19.21,Sitting
51:52.2,860,517,775.5,860,390,1.62,616.11,1.91,146.89,390,288,131.5,287,17292,69632,1152,1.06,-0.11,0,-3.95,-12.76,16.48,-6.34,-82.66,-18.58,-18.44,4.23,-18.09,-21.01,Sitting
51:52.3,772,522,783,860,392,1.61,621.24,1.92,146.89,390,288,131.5,287,17292,87040,1440,1.05,-0.16,0.06,-0.18,6.93,-8.84,-9.2,-79.23,-18.53,-17.83,3.23,-18.16,-20.28,Sitting
51:52.5,91,520,780,860,391,1.62,618.67,1.91,146.89,390,288,131.5,287,17292,104448,1728,0.97,-0.09,0.01,-3.9,-3.19,1.08,-6.06,-82.93,-18.95,-18.48,3.46,-18.44,-21.06,Sitting
51:52.6,326,520,780,860,388,1.64,611.02,1.9,146.89,390,288,131.5,287,17292,121856,2016,1.02,-0.13,-0.01,-10.95,-7.74,5.44,-7.91,-81.08,-20.25,-19.7,4.24,-19.76,-22.15,Sitting
51:52.7,932,523,784.5,932,391,1.62,618.67,1.91,146.89,390,288,131.5,287,17292,139264,2304,1.03,-0.16,-0.02,-6.11,-7.33,-1.89,-9.57,-79.36,-20.95,-20.87,4.1,-20.5,-23.21,Sitting
51:52.8,474,520,780,932,393,1.6,623.81,1.92,146.89,390,288,131.5,287,17292,156672,2592,1.02,-0.18,0.05,-3.7,1.95,-10.19,-10.4,-78.17,-21.35,-20.88,2.92,-20.91,-23.17,Sitting
51:53.0,119,514,771,932,389,1.63,613.56,1.9,146.63,390,288,131.94,288,17407,0,0,0.98,-0.1,-0.01,-3.5,-8.89,-1.57,-6.31,-82.63,-21.71,-22.24,2.82,-21.1,-24.66,Sitting
51:53.1,930,516,774,930,389,1.63,613.56,1.9,146.63,390,288,131.94,288,17407,17408,288,1,-0.12,-0.06,1.95,-0.69,1.74,-7.34,-80.87,-21.4,-22.58,3.14,-20.84,-24.91,Sitting
51:53.2,942,521,781.5,942,392,1.61,621.24,1.92,146.63,390,288,131.94,288,17407,34816,576,1.02,-0.15,-0.05,-1.14,-3.25,4.54,-9.1,-79.4,-21.47,-23.24,3.81,-20.98,-25.48,Sitting
51:53.3,401,523,784.5,942,394,1.6,626.39,1.93,146.63,390,288,131.94,288,17407,52224,864,1.03,-0.17,-0.04,-1.74,3.66,-2.29,-9.93,-78.84,-21.62,-23.03,3.62,-21.15,-25.26,Sitting
51:53.5,89,518,777,942,390,1.62,616.11,1.91,146.63,390,288,131.94,288,17407,69632,1152,1,-0.13,-0.04,-3.02,4.45,-2.96,-8.21,-80.49,-21.93,-22.72,3.35,-21.38,-25.04,Sitting
51:53.6,676,517,775.5,942,391,1.62,618.67,1.91,146.63,390,288,131.94,288,17407,87040,1440,1.02,-0.15,-0.01,-2.84,4.3,1.99,-8.7,-80.28,-22.21,-22.44,3.7,-21.67,-24.75,Sitting
51:53.7,866,519,778.5,866,393,1.6,623.81,1.92,146.63,390,288,131.94,288,17407,104448,1728,1.02,-0.15,-0.01,-0.98,0.51,-2.73,-9,-79.96,-22.27,-22.62,3.46,-21.74,-24.91,Sitting
51:53.8,197,519,778.5,866,393,1.6,623.81,1.92,146.63,390,288,131.94,288,17407,121856,2016,1.01,-0.15,-0.01,-2.12,1.93,-2.22,-9.14,-79.83,-22.46,-22.63,3.28,-21.93,-24.92,Sitting
51:54.0,233,517,775.5,866,389,1.63,613.56,1.9,146.63,390,288,131.94,288,17407,139264,2304,0.99,-0.14,-0.01,-3.07,-2.49,-0.37,-8.35,-80.62,-22.78,-23.2,3.33,-22.2,-25.49,Sitting
51:54.1,900,518,777,900,392,1.61,621.24,1.92,146.63,390,288,131.94,288,17407,156672,2592,1.02,-0.16,0,0.02,5.63,-2.15,-9.68,-79.32,-22.71,-22.74,3.16,-22.19,-25,Sitting
51:54.2,669,518,777,900,394,1.6,626.39,1.93,149.53,391,288,131.94,288,17407,0,0,1.02,-0.13,-0.01,-3.24,-0.92,-1.47,-7.77,-81.18,-23.04,-23.1,3.07,-22.43,-25.43,Sitting
52:03.5,876,876,1314,876,378,1.71,586.05,1.85,0,0,287,0,0,0,33666,574,0.98,0.17,0.12,3.42,-2.57,-17.38,9.09,-76.63,1.06,-0.24,-4.52,1.38,-3.3,Left Fall while Sitting
52:03.7,632,754,1131,876,377,1.71,583.59,1.84,0,0,287,0,0,0,50499,861,0.97,0.19,0.15,4.11,6.7,-17.27,10.19,-74.44,1.63,0.34,-6.55,1.97,-2.66,Left Fall while Sitting
52:03.8,397,635,952.5,876,377,1.71,583.59,1.84,0,0,287,0,0,0,67332,1148,0.99,0.25,0.1,4.43,-2.37,-21.32,13.49,-73.15,2.24,-0.2,-9.05,2.69,-3.11,Left Fall while Sitting
52:03.9,6,477,715.5,876,374,1.74,576.27,1.83,0,0,287,0,0,0,84165,1435,0.92,0.28,0.13,-2.75,0.88,-20.15,16.37,-69.59,1.97,-0.33,-11.42,2.55,-3.1,Left Fall while Sitting
52:04.0,0,382,573,876,368,1.78,561.83,1.8,0,0,287,0,0,0,100998,1722,0.95,0.32,0.13,6.28,1.45,-18.2,17.71,-68.67,2.81,-0.4,-13.56,3.41,-3.13,Left Fall while Sitting
52:04.2,162,345,517.5,876,363,1.82,550,1.77,0,0,287,0,0,0,117831,2009,0.92,0.35,0.12,10.44,-2.38,-22.24,20.12,-66.54,4.14,-0.93,-16.15,4.78,-3.56,Left Fall while Sitting
52:04.3,735,401,601.5,876,360,1.84,542.99,1.76,0,0,286,0,0,0,134091,2295,0.88,0.4,0.08,-1.69,-4.74,-11.44,23.92,-63.45,4.01,-1.76,-17.46,4.8,-4.23,Left Fall while Sitting
52:04.4,999,475,712.5,999,360,1.84,542.99,1.76,0,0,286,0,0,0,150351,2581,0.93,0.41,0.09,-3.29,3.96,-9.85,23.41,-63.85,3.67,-1.52,-18.58,4.46,-4.01,Left Fall while Sitting
52:04.5,993,533,799.5,999,358,1.86,538.35,1.75,71.22,368,286,129.08,286,16660,0,0,0.91,0.43,0.08,-0.81,0.68,-15.07,24.69,-62.7,3.64,-1.68,-20.35,4.48,-4.12,Left Fall while Sitting
52:04.6,612,541,811.5,999,357,1.87,536.04,1.74,71.22,368,286,129.08,286,16660,16260,286,0.85,0.47,0.08,-7.73,-2.59,-11.8,28.11,-59.29,2.75,-2.25,-21.71,3.76,-4.53,Left Fall while Sitting
52:04.8,406,528,792,999,354,1.89,529.15,1.73,71.22,368,286,129.08,286,16660,32520,572,0.88,0.47,0.13,3.65,8.16,-3.98,27.18,-59.52,3.28,-1.48,-22.11,4.23,-3.8,Left Fall while Sitting
52:04.9,148,497,745.5,999,346,1.96,511.08,1.69,71.22,368,286,129.08,286,16660,48780,858,0.9,0.48,0.12,6.6,9.43,-10.27,27.27,-59.66,4.16,-0.56,-23.29,5.09,-2.92,Left Fall while Sitting
52:05.0,978,534,801,999,347,1.95,513.31,1.7,71.22,368,286,129.08,286,16660,65040,1144,0.82,0.51,0.08,3,8.05,-12.92,31.34,-56.08,4.6,0.19,-24.79,5.67,-2.06,Left Fall while Sitting
52:05.1,997,567,850.5,999,352,1.91,524.59,1.72,71.22,368,286,129.08,286,16660,81300,1430,0.8,0.53,0.09,-2.65,2.41,-6.44,32.91,-54.37,4.35,0.24,-25.49,5.49,-1.94,Left Fall while Sitting
52:05.3,439,558,837,999,356,1.87,533.73,1.74,71.22,368,286,129.08,286,16660,97560,1716,0.84,0.52,0.14,-1.68,0.69,-3.48,30.99,-55.65,4.21,0.08,-25.82,5.28,-2.15,Left Fall while Sitting
52:05.4,0,523,784.5,999,355,1.88,531.44,1.74,71.22,368,286,129.08,286,16660,113820,2002,0.82,0.54,0.13,6.7,-1.37,-7.21,32.29,-54.47,5.1,-0.34,-26.61,6.19,-2.5,Left Fall while Sitting
52:05.5,236,506,759,999,349,1.93,517.8,1.71,71.22,368,286,129.08,286,16660,130080,2288,0.84,0.55,0.07,6.11,-0.14,-7.43,32.48,-55.04,5.93,-0.6,-27.44,6.99,-2.78,Left Fall while Sitting
52:05.6,998,534,801,999,351,1.91,522.32,1.72,71.22,368,286,129.08,286,16660,146340,2574,0.81,0.56,0.03,2.11,-3.03,-1.35,34.34,-53.44,6.26,-1.23,-27.51,7.39,-3.32,Left Fall while Sitting
52:05.8,994,558,837,999,356,1.87,533.73,1.74,20724.14,352,286,127.51,286,16259,0,0,0.75,0.55,0.12,-16.69,6.6,0.03,35.2,-51.7,4.26,-0.66,-27.41,5.5,-2.7,Left Fall while Sitting
52:05.9,371,548,822,999,358,1.86,538.35,1.75,20724.14,352,286,127.51,286,16259,16260,286,0.8,0.54,0.18,-4.79,7.93,-6.47,32.79,-53.09,3.74,0.08,-28.12,4.9,-2.04,Left Fall while Sitting
52:06.0,0,522,783,999,354,1.89,529.15,1.73,20724.14,352,286,127.51,286,16259,32520,572,0.81,0.58,0.16,0.92,9.4,-3.63,34.61,-51.78,3.92,1,-28.47,5.15,-1.11,Left Fall while Sitting
52:06.1,336,514,771,999,349,1.93,517.8,1.71,20724.14,352,286,127.51,286,16259,48780,858,0.84,0.57,0.11,2.21,11.36,2.82,33.5,-53.66,4.26,2.16,-28.03,5.43,-0.07,Left Fall while Sitting
52:06.3,999,535,802.5,999,350,1.92,520.06,1.71,20724.14,352,286,127.51,286,16259,65040,1144,0.77,0.55,0.14,-0.08,13.08,-3.35,34.12,-52.35,4.32,3.55,-28.35,5.51,1.31,Left Fall while Sitting
52:06.4,920,551,826.5,999,353,1.9,526.87,1.73,20724.14,352,286,127.51,286,16259,81300,1430,0.77,0.58,0.17,6.65,16.88,1.29,35.55,-50.5,5.22,5.41,-28.09,6.44,3.17,Left Fall while Sitting
52:06.5,45,531,796.5,999,355,1.88,531.44,1.74,20724.14,352,286,127.51,286,16259,97560,1716,0.84,0.58,0.19,4.34,13.36,3.05,33.61,-52.24,5.83,6.81,-27.61,6.94,4.45,Left Fall while Sitting
52:06.6,0,510,765,999,350,1.92,520.06,1.71,20724.14,352,286,127.51,286,16259,113820,2002,0.8,0.56,0.21,6.69,12.34,1.31,33.5,-51.63,6.73,8.1,-27.35,7.8,5.71,Left Fall while Sitting
52:06.8,624,514,771,999,346,1.96,511.08,1.69,20724.14,352,286,127.51,286,16259,130080,2288,0.81,0.57,0.23,5.84,-13.93,-5.89,33.53,-51.27,7.53,6.11,-27.99,8.57,3.81,Left Fall while Sitting
52:06.9,998,532,798,999,349,1.93,517.8,1.71,20724.14,352,286,127.51,286,16259,146340,2574,0.81,0.59,0.13,9.62,-9.76,-18.25,35.08,-51.72,8.78,4.66,-30.14,9.83,2.4,Left Fall while Sitting
52:07.0,608,534,801,999,353,1.9,526.87,1.73,20724.13,351,286,127.51,286,16259,0,0,0.73,0.63,0.05,-1.82,-9.31,-13.13,40.3,-47.39,8.63,3.26,-31.67,9.89,1.23,Left Fall while Sitting
52:07.1,0,516,774,999,353,1.9,526.87,1.73,20724.13,351,286,127.51,286,16259,16260,286,0.73,0.64,0.09,-5.17,4.53,0.24,40.4,-46.95,8.05,3.57,-31.54,9.35,1.55,Left Fall while Sitting
52:07.3,0,500,750,999,346,1.96,511.08,1.69,20724.13,351,286,127.51,286,16259,32520,572,0.75,0.62,0.05,-7.46,-1.82,6.18,39.04,-48.65,7.2,3.1,-30.67,8.47,1.03,Left Fall while Sitting
52:07.4,689,506,759,999,344,1.97,506.63,1.68,20724.13,351,285,127.51,286,16259,48209,857,0.82,0.62,0.1,-10.95,-12.52,11.65,36.6,-50.69,5.9,1.28,-29.12,7.13,-0.8,Left Fall while Sitting
52:07.5,998,521,781.5,999,350,1.92,520.06,1.71,20724.13,351,286,127.51,286,16259,64469,1143,0.81,0.58,0.1,2.52,1.08,2.18,35.04,-52.24,6.28,1.17,-28.75,7.44,-0.97,Left Fall while Sitting
52:07.6,546,521,781.5,999,353,1.9,526.87,1.73,20724.13,351,286,127.51,286,16259,80729,1429,0.82,0.57,0.11,-4.17,5.12,-2.73,34.18,-52.98,5.84,1.56,-28.99,6.97,-0.63,Left Fall while Sitting
52:07.7,0,506,759,999,351,1.91,522.32,1.72,20724.13,351,286,127.51,286,16259,96989,1715,0.79,0.6,0.1,-3.04,3.96,-1.85,36.46,-50.73,5.53,1.8,-29.12,6.77,-0.3,Left Fall while Sitting
52:07.9,315,501,751.5,999,346,1.96,511.08,1.69,20724.13,351,286,127.51,286,16259,113249,2001,0.79,0.59,0.11,-4.69,1.19,-1.16,35.86,-51.22,5.02,1.7,-29.17,6.25,-0.42,Left Fall while Sitting
52:08.0,999,515,772.5,999,349,1.93,517.8,1.71,20724.13,351,286,127.51,286,16259,129509,2287,0.91,0.6,0.03,0.89,-8.89,0.02,32.93,-54.86,5.2,0.34,-29.07,6.31,-1.87,Left Fall while Sitting
52:08.1,894,525,787.5,999,353,1.9,526.87,1.73,20724.13,351,286,127.51,286,16259,145769,2573,0.78,0.58,0.07,1.17,-9.15,1.44,36.13,-51.42,5.41,-1.05,-28.79,6.64,-3.07,Left Fall while Sitting
52:08.2,0,511,766.5,999,353,1.9,526.87,1.73,20724.09,349,286,127.29,285,16201,0,0,0.79,0.58,0.05,-1.38,-0.67,2.92,35.8,-51.89,5.31,-1.38,-28.34,6.53,-3.4,Left Fall while Sitting
52:08.4,0,498,747,999,348,1.94,515.56,1.7,20724.09,349,286,127.29,285,16201,16260,286,0.94,0.57,0.02,-4.44,-4.75,6.65,30.84,-56.97,4.83,-2.22,-27.41,5.87,-4.41,Left Fall while Sitting
52:08.5,593,501,751.5,999,346,1.96,511.08,1.69,20724.09,349,286,127.29,285,16201,32520,572,0.81,0.57,0.07,-1.22,-1.85,0.31,34.72,-52.82,4.75,-2.7,-27.27,5.94,-4.71,Left Fall while Sitting
52:08.6,999,512,768,999,350,1.92,520.06,1.71,20724.09,349,286,127.29,285,16201,48780,858,0.8,0.55,0.06,-1.37,-5.08,3.85,33.66,-53.92,4.65,-3.59,-26.69,5.81,-5.6,Left Fall while Sitting
52:08.7,630,515,772.5,999,354,1.89,529.15,1.73,20724.09,349,286,127.29,285,16201,65040,1144,0.82,0.56,0.05,0.34,-0.59,6.23,33.59,-54.1,4.76,-3.91,-25.81,5.91,-5.92,Left Fall while Sitting
52:08.9,0,503,754.5,999,350,1.92,520.06,1.71,20724.09,349,286,127.29,285,16201,81300,1430,0.84,0.53,0.04,-12.47,-16.73,17.19,31.4,-56.33,3.28,-6.23,-23.58,4.41,-8.23,Left Fall while Sitting
52:09.0,273,498,747,999,342,1.99,502.2,1.67,20724.09,349,286,127.29,285,16201,97560,1716,0.83,0.52,0.01,-2.63,-11.72,22.01,31.29,-56.54,3.02,-7.96,-20.71,4.15,-9.9,Left Fall while Sitting
52:09.1,999,509,763.5,999,345,1.97,508.85,1.69,20724.09,349,286,127.29,285,16201,113820,2002,0.89,0.44,0,0.33,-15.42,25.94,25.83,-62.01,3.13,-10.14,-17.37,4.04,-12.21,Left Fall while Sitting
52:09.2,667,513,769.5,999,349,1.93,517.8,1.71,20724.09,349,286,127.29,285,16201,130080,2288,1.04,0.37,-0.13,6.16,-11.92,27.64,18.8,-67.86,3.97,-11.88,-13.82,4.57,-14.12,Left Fall while Sitting
52:09.4,0,502,753,999,346,1.96,511.08,1.69,20724.09,349,286,127.29,285,16201,146340,2574,0.89,0.35,-0.11,-0.19,2.42,29.15,20.76,-65.93,4.02,-11.82,-10.04,4.69,-13.99,Left Fall while Sitting
52:09.5,490,502,753,999,341,2,500,1.67,20724.05,347,286,127.51,286,16259,0,0,0.97,0.25,-0.05,0.24,9.67,44.49,13.58,-73.96,4.12,-10.87,-4.43,4.5,-13.4,Left Fall while Sitting
52:09.6,999,512,768,999,346,1.96,511.08,1.69,20724.05,347,286,127.51,286,16259,16260,286,1.01,0.13,-0.05,3.48,6.54,40.99,6.73,-80.54,4.62,-10.3,0.79,4.71,-13.11,Left Fall while Sitting
52:09.7,935,520,780,999,352,1.91,524.59,1.72,20724.05,347,286,127.51,286,16259,32520,572,1.05,0.05,-0.07,-0.76,2.76,37.56,2.05,-83.86,4.6,-10.21,5.55,4.5,-13.16,Left Fall while Sitting
52:09.9,312,516,774,999,355,1.88,531.44,1.74,20724.05,347,286,127.51,286,16259,48780,858,1.06,-0.03,-0.02,-6.06,-0.71,28.65,-1.99,-86.55,3.92,-10.55,9.2,3.68,-13.59,Left Fall while Sitting
52:10.0,84,508,762,999,351,1.91,522.32,1.72,20724.05,347,286,127.51,286,16259,65040,1144,1.06,-0.08,-0.03,-3.34,-1.31,13.71,-5.15,-83.62,3.57,-10.96,11.01,3.22,-13.87,Left Fall while Sitting
52:10.1,997,517,775.5,999,356,1.87,533.73,1.74,20724.05,347,286,127.51,286,16259,81300,1430,1.01,-0.1,-0.03,-11.52,-10.77,12.39,-5.99,-82.82,2.19,-12.57,12.67,1.86,-15.38,Left Fall while Sitting
52:10.2,817,522,783,999,364,1.81,552.35,1.78,20724.05,347,286,127.51,286,16259,97560,1716,1.01,-0.12,-0.04,-11.35,1.43,11.66,-7.48,-81.11,0.83,-12.64,14.24,0.5,-15.38,Left Fall while Sitting
52:10.4,321,519,778.5,999,370,1.76,566.62,1.81,20724.05,347,287,127.51,286,16259,114393,2003,1.02,-0.14,-0.07,-6.13,12.42,9.74,-8.32,-79.85,0.13,-11.34,15.56,-0.21,-14.08,Left Fall while Sitting
52:10.5,696,522,783,999,370,1.76,566.62,1.81,20724.05,347,286,127.51,286,16259,130653,2289,1.06,-0.16,0.01,-3.64,6.6,4.33,-8.92,-80.06,-0.26,-10.76,16.2,-0.6,-13.53,Left Fall while Sitting
52:10.6,981,530,795,999,374,1.74,576.27,1.83,20724.05,347,286,127.51,286,16259,146913,2575,1,-0.16,-0.06,-1.31,13.62,-3.79,-9.75,-78.54,-0.35,-9.29,15.82,-0.73,-12.06,Left Fall while Sitting
52:10.7,434,528,792,999,377,1.71,583.59,1.84,20724.3,361,286,127.74,286,16316,0,0,1.05,-0.16,0.05,-5,-3.95,-2.36,-9.17,-79.4,-0.9,-10.03,15.63,-1.23,-12.81,Left Fall while Sitting
52:10.9,102,521,781.5,999,374,1.74,576.27,1.83,20724.3,361,287,127.74,286,16316,16833,287,0.99,-0.16,0,-1.15,-0.37,-0.5,-9.7,-79.3,-0.98,-10.33,15.67,-1.32,-13.09,Left Fall while Sitting
52:11.0,579,522,783,999,371,1.76,569.02,1.81,20724.3,361,286,127.74,286,16316,33093,573,1.02,-0.15,-0.05,-0.16,-2.88,0.84,-9.02,-79.55,-0.93,-10.94,15.87,-1.25,-13.69,Left Fall while Sitting
52:11.1,771,526,789,999,375,1.73,578.7,1.83,20724.3,361,287,127.74,286,16316,49926,860,1.04,-0.14,-0.04,-0.13,4.92,-2.21,-8.27,-80.4,-0.87,-10.57,15.69,-1.17,-13.37,Left Fall while Sitting
52:11.3,339,523,784.5,999,377,1.71,583.59,1.84,20724.3,361,287,127.74,286,16316,66759,1147,1.01,-0.14,-0.05,-0.74,3.38,-0.3,-8.47,-80.08,-0.89,-10.4,15.75,-1.2,-13.19,Left Fall while Sitting
52:11.4,348,520,780,999,372,1.75,571.43,1.82,20724.3,361,287,127.74,286,16316,83592,1434,1.02,-0.17,0,-7.76,3.67,-0.96,-9.96,-79.04,-1.79,-10.19,15.73,-2.12,-12.94,Left Fall while Sitting
52:14.3,686,686,1029,686,378,1.71,586.05,1.85,0,0,285,0,0,0,31949,571,1.03,-0.09,0.08,-1.37,4.65,-1.57,-5.34,-81.98,-0.32,0.62,-0.39,-0.53,-2.68,Right Fall while Sitting
52:14.4,645,665,997.5,686,384,1.66,600.94,1.88,0,0,285,0,0,0,47638,856,1.02,-0.08,0.08,-1.76,8.92,-7.37,-5.07,-82.24,-0.47,1.47,-1.2,-0.66,-1.88,Right Fall while Sitting
52:14.5,467,599,898.5,686,378,1.71,586.05,1.85,0,0,285,0,0,0,63327,1141,1,-0.07,0.07,-7.38,6.24,-2.12,-4.65,-82.52,-1.3,1.99,-1.36,-1.44,-1.39,Right Fall while Sitting
52:14.7,312,527,790.5,686,376,1.72,581.14,1.84,0,0,285,0,0,0,79016,1426,0.93,-0.07,0.1,-20.38,-1.16,20.6,-5.01,-80.64,-3.74,1.6,1.27,-3.79,-1.69,Right Fall while Sitting
52:14.8,459,513,769.5,686,377,1.71,583.59,1.84,0,0,286,0,0,0,95276,1712,1,-0.13,0.14,-14.5,6.62,15.41,-8.04,-77.37,-5.46,2.17,3.26,-5.56,-1.01,Right Fall while Sitting
52:14.9,509,513,769.5,686,380,1.69,590.98,1.86,0,0,286,0,0,0,111536,1998,0.99,-0.17,0.13,-2.66,19.91,15.31,-10.09,-76.26,-5.72,4.37,5.24,-5.89,1.15,Right Fall while Sitting
52:15.0,513,513,769.5,686,386,1.65,605.97,1.89,0,0,286,0,0,0,127796,2284,0.94,-0.22,0.12,-14.14,11.18,21.03,-13.95,-73.14,-7.37,5.49,7.9,-7.63,2.35,Right Fall while Sitting
52:15.1,623,526,789,686,392,1.61,621.24,1.92,0,0,286,0,0,0,144056,2570,0.91,-0.28,0.17,-26.16,-0.49,32.44,-17.22,-68.71,-10.52,5.19,11.99,-10.79,2.23,Right Fall while Sitting
52:15.3,659,541,811.5,686,395,1.59,628.98,1.93,121.13,381,285,126.39,285,15973,0,0,0.98,-0.37,0.25,-10.26,-9.35,30.06,-20.82,-63.87,-11.72,3.78,15.81,-12.09,1.07,Right Fall while Sitting
52:15.4,483,535,802.5,686,396,1.58,631.58,1.94,121.13,381,286,126.39,285,15973,16260,286,0.94,-0.41,0.14,11.96,6.32,24.15,-23.78,-63.89,-10.16,4.32,18.93,-10.7,1.59,Right Fall while Sitting
52:15.5,239,508,762,686,392,1.61,621.24,1.92,121.13,381,286,126.39,285,15973,32520,572,0.89,-0.46,0.14,0.63,6.47,19.66,-27.75,-59.91,-10.01,4.88,21.49,-10.72,2.29,Right Fall while Sitting
52:15.6,405,500,750,686,392,1.61,621.24,1.92,121.13,381,286,126.39,285,15973,48780,858,0.87,-0.48,0.15,2.35,-6.75,18.89,-29.12,-58.36,-9.65,3.79,23.95,-10.42,1.3,Right Fall while Sitting
52:15.8,547,503,754.5,686,398,1.57,636.8,1.95,121.13,381,286,126.39,285,15973,65040,1144,0.86,-0.51,0.12,1.05,-2.4,21.78,-30.88,-57.15,-9.45,3.24,26.74,-10.3,0.82,Right Fall while Sitting
52:15.9,518,504,756,686,403,1.54,650,1.97,121.13,381,284,126.39,285,15973,80160,1428,0.83,-0.57,0.14,1.63,-3.33,17.47,-34.71,-53.21,-9.17,2.57,29.03,-10.19,0.34,Right Fall while Sitting
52:16.0,330,493,739.5,686,399,1.56,639.42,1.95,121.13,381,285,126.39,285,15973,95849,1713,0.81,-0.61,0.14,-0.11,-5.95,12.31,-36.88,-51.05,-9.11,1.58,30.67,-10.23,-0.53,Right Fall while Sitting
52:16.1,369,485,727.5,686,396,1.58,631.58,1.94,121.13,381,285,126.39,285,15973,111538,1998,0.83,-0.63,0.09,-3.83,-4.11,10.9,-37.78,-50.76,-9.53,0.81,32.14,-10.66,-1.25,Right Fall while Sitting
52:16.3,587,491,736.5,686,397,1.58,634.19,1.94,121.13,381,285,126.39,285,15973,127227,2283,0.8,-0.64,0.1,-5.92,-6.67,10.48,-38.82,-49.6,-10.2,-0.27,33.55,-11.34,-2.25,Right Fall while Sitting
52:16.4,592,496,744,686,396,1.58,631.58,1.94,121.13,381,285,126.39,285,15973,142916,2568,0.78,-0.66,0.11,0.11,-6.67,8.53,-40.71,-47.6,-10.11,-1.37,34.72,-11.34,-3.22,Right Fall while Sitting
52:16.5,366,489,733.5,686,392,1.61,621.24,1.92,160.73,396,286,126.16,285,15916,0,0,0.77,-0.68,0.1,2.91,-7.08,7.03,-41.53,-46.97,-9.69,-2.48,35.68,-10.96,-4.26,Right Fall while Sitting
52:16.6,460,488,732,686,389,1.63,613.56,1.9,160.73,396,284,126.16,285,15916,15120,284,0.76,-0.69,0.06,3.91,-4.45,6.9,-42.42,-46.4,-9.13,-3.28,36.64,-10.46,-5.01,Right Fall while Sitting
52:16.8,612,494,741,686,390,1.62,616.11,1.91,160.73,396,286,126.16,285,15916,31380,570,0.77,-0.69,0.06,-3.6,-5.71,3.16,-42.47,-46.35,-9.51,-4.25,37.13,-10.83,-5.93,Right Fall while Sitting
52:16.9,643,501,751.5,686,393,1.6,623.81,1.92,160.73,396,286,126.16,285,15916,47640,856,0.77,-0.71,0.06,-4.34,-3.48,-4.31,-43,-45.83,-9.98,-4.93,36.69,-11.3,-6.57,Right Fall while Sitting
52:17.0,351,494,741,686,392,1.61,621.24,1.92,160.73,396,286,126.16,285,15916,63900,1142,0.74,-0.68,0.07,-0.71,-0.52,-5.08,-43.07,-45.68,-10,-5.25,36.15,-11.32,-6.87,Right Fall while Sitting
52:17.1,443,492,738,686,388,1.64,611.02,1.9,160.73,396,286,126.16,285,15916,80160,1428,0.77,-0.67,0.06,2.95,1.73,-2.54,-41.53,-47.28,-9.56,-5.28,35.93,-10.84,-6.96,Right Fall while Sitting
52:17.3,646,498,747,686,391,1.62,618.67,1.91,160.73,396,285,126.16,285,15916,95849,1713,0.77,-0.68,0.05,1.33,2.91,-3.53,-42.1,-46.77,-9.33,-5.17,35.59,-10.64,-6.83,Right Fall while Sitting
52:17.4,639,503,754.5,686,393,1.6,623.81,1.92,160.73,396,285,126.16,285,15916,111538,1998,0.76,-0.68,0.08,-5.3,-0.86,-5.19,-42.04,-46.64,-9.92,-5.53,35.03,-11.21,-7.18,Right Fall while Sitting
52:17.5,381,499,748.5,686,392,1.61,621.24,1.92,160.73,396,286,126.16,285,15916,127798,2284,0.76,-0.65,0.07,-2.73,4.8,-2.96,-41.04,-47.64,-10.2,-5.18,34.76,-11.43,-6.88,Right Fall while Sitting
52:17.6,468,498,747,686,388,1.64,611.02,1.9,160.73,396,286,126.16,285,15916,144058,2570,0.78,-0.67,0.09,-0.66,2.73,-3.53,-41.2,-47.36,-10.21,-5.09,34.42,-11.45,-6.78,Right Fall while Sitting
52:17.8,655,503,754.5,686,391,1.62,618.67,1.91,146.89,390,285,126.39,285,15973,0,0,0.8,-0.66,0.09,-0.04,1.81,-6.87,-39.89,-48.71,-10.14,-5.11,33.66,-11.33,-6.86,Right Fall while Sitting
52:17.9,602,506,759,686,394,1.6,626.39,1.93,146.89,390,285,126.39,285,15973,15689,285,0.78,-0.64,0.08,1.39,1.11,-7.02,-39.69,-48.97,-9.9,-5.22,32.88,-11.09,-6.97,Right Fall while Sitting
52:18.0,420,504,756,686,393,1.6,623.81,1.92,146.89,390,285,126.39,285,15973,31378,570,0.79,-0.63,0.09,-0.24,0.27,-5.56,-38.94,-49.63,-9.86,-5.44,32.29,-11.02,-7.21,Right Fall while Sitting
52:18.1,398,500,750,686,388,1.64,611.02,1.9,146.89,390,285,126.39,285,15973,47067,855,0.8,-0.62,0.09,-0.26,-0.06,-4.8,-38.41,-50.13,-9.82,-5.7,31.79,-10.97,-7.47,Right Fall while Sitting
52:18.3,606,504,756,686,390,1.62,616.11,1.91,146.89,390,285,126.39,285,15973,62756,1140,0.8,-0.62,0.08,-0.7,0.08,-4.62,-38.36,-50.23,-9.84,-5.93,31.31,-10.98,-7.71,Right Fall while Sitting
52:18.4,629,507,760.5,686,392,1.61,621.24,1.92,146.89,390,285,126.39,285,15973,78445,1425,0.82,-0.62,0.09,-1.25,2.56,-5.84,-37.57,-50.96,-9.93,-5.86,30.68,-11.03,-7.67,Right Fall while Sitting
52:18.5,393,504,756,686,391,1.62,618.67,1.91,146.89,390,286,126.39,285,15973,94705,1711,0.82,-0.6,0.08,1.71,3.36,-5.76,-36.63,-52.04,-9.64,-5.69,30.05,-10.72,-7.55,Right Fall while Sitting
52:18.6,409,501,751.5,686,387,1.64,608.49,1.89,146.89,390,285,126.39,285,15973,110394,1996,0.83,-0.6,0.1,-4.37,1.25,-6.09,-36.2,-52.27,-10.12,-5.79,29.39,-11.16,-7.65,Right Fall while Sitting
52:18.8,630,505,757.5,686,390,1.62,616.11,1.91,146.89,390,285,126.39,285,15973,126083,2281,0.82,-0.58,0.1,-3.39,4.27,-8.31,-35.41,-52.96,-10.47,-5.5,28.45,-11.47,-7.4,Right Fall while Sitting
52:18.9,536,506,759,686,392,1.61,621.24,1.92,146.89,390,285,126.39,285,15973,141772,2566,0.84,-0.58,0.12,2.37,7.78,-8.78,-34.94,-53.19,-10.1,-4.77,27.45,-11.1,-6.71,Right Fall while Sitting
52:19.0,309,501,751.5,686,389,1.63,613.56,1.9,146.63,390,285,125.48,285,15745,0,0,0.89,-0.57,0.11,-0.33,4.23,-20.27,-32.98,-55.39,-10.07,-4.5,25.03,-10.99,-6.53,Right Fall while Sitting
52:19.1,391,498,747,686,384,1.66,600.94,1.88,146.63,390,285,125.48,285,15745,15689,285,0.87,-0.54,0.11,-8.24,-0.92,-31.05,-31.92,-56.39,-11.03,-4.86,21.25,-11.87,-6.92,Right Fall while Sitting
52:19.3,667,502,753,686,385,1.66,603.45,1.88,146.63,390,285,125.48,285,15745,31378,570,0.91,-0.45,0.17,0.63,-2.67,-27.99,-26.57,-60.41,-10.88,-5.45,17.82,-11.51,-7.65,Right Fall while Sitting
52:19.4,509,502,753,686,385,1.66,603.45,1.88,146.63,390,285,125.48,285,15745,47067,855,0.93,-0.39,0.12,6.08,5.98,-32.04,-23,-64.95,-10.05,-4.95,13.91,-10.57,-7.35,Right Fall while Sitting
52:19.5,385,499,748.5,686,379,1.7,588.51,1.85,146.63,390,285,125.48,285,15745,62756,1140,0.94,-0.33,0.07,-8,-7.79,-30.34,-20.02,-68.55,-10.99,-6.19,10.19,-11.35,-8.68,Right Fall while Sitting
52:19.6,469,499,748.5,686,373,1.74,573.85,1.82,146.63,390,285,125.48,285,15745,78445,1425,1.01,-0.25,0.09,-16.69,-16.38,-29.8,-14.69,-73.49,-13.01,-8.48,6.56,-13.08,-11.08,Right Fall while Sitting
52:19.8,712,503,754.5,712,377,1.71,583.59,1.84,146.63,390,285,125.48,285,15745,94134,1710,0.99,-0.19,0.08,-11.22,-8.11,-34.7,-11.17,-76.93,-14.35,-9.76,2.29,-14.23,-12.45,Right Fall while Sitting
52:19.9,426,502,753,712,379,1.7,588.51,1.85,146.63,390,285,125.48,285,15745,109823,1995,0.98,-0.13,0.03,-5.31,-8.36,-29.6,-7.96,-80.88,-14.95,-11.06,-1.34,-14.67,-13.86,Right Fall while Sitting
52:20.0,387,499,748.5,712,373,1.74,573.85,1.82,146.63,390,285,125.48,285,15745,125512,2280,1,-0.08,-0.03,-0.69,2.33,-26.22,-4.89,-83.77,-14.97,-11.02,-4.54,-14.56,-13.93,Right Fall while Sitting
52:20.1,661,503,754.5,712,375,1.73,578.7,1.83,146.63,390,285,125.48,285,15745,141201,2565,0.98,0,0.03,-15.1,-0.68,-14.05,-0.62,-86.94,-16.8,-11.36,-6.21,-16.15,-14.38,Right Fall while Sitting
52:20.3,552,504,756,712,378,1.71,586.05,1.85,111.52,378,285,125.26,285,15688,0,0,1.04,-0.05,0.08,-9.42,-6.13,-12.24,-3.54,-83.34,-17.9,-12.37,-7.63,-17.32,-15.21,Right Fall while Sitting
52:20.4,392,501,751.5,712,376,1.72,581.14,1.84,111.52,378,286,125.26,285,15688,16260,286,1.04,0.01,-0.02,-7.33,-2.84,-16.82,0.22,-87.11,-18.75,-12.98,-9.65,-17.99,-15.94,Right Fall while Sitting
52:20.5,541,502,753,712,373,1.74,573.85,1.82,111.52,378,286,125.26,285,15688,32520,572,0.97,0.03,0.02,-1.36,-9.29,-3.24,1.44,-86.08,-18.85,-14.39,-9.96,-18.04,-17.26,Right Fall while Sitting
52:20.7,746,507,760.5,746,377,1.71,583.59,1.84,111.52,378,285,125.26,285,15688,48209,857,1,0.04,0.02,-7.15,-6.72,7.76,1.94,-85.71,-19.68,-15.49,-8.88,-18.82,-18.3,Right Fall while Sitting
52:20.8,385,504,756,746,380,1.69,590.98,1.86,111.52,378,286,125.26,285,15688,64469,1143,1.02,-0.02,-0.02,-2.81,-6.76,5.45,-1.53,-87.15,-19.96,-16.58,-8.1,-19.23,-19.4,Right Fall while Sitting
52:20.9,272,500,750,746,377,1.71,583.59,1.84,111.52,378,287,125.26,285,15688,81302,1430,1.06,0,-0.12,-0.76,2.85,2.37,-0.47,-81.78,-19.99,-16.48,-7.71,-19.21,-19.09,Right Fall while Sitting
52:21.0,551,501,751.5,746,375,1.73,578.7,1.83,111.52,378,286,125.26,285,15688,97562,1716,1.06,-0.03,-0.06,-1.72,7.87,1.98,-1.98,-84.97,-20.13,-15.74,-7.36,-19.41,-18.51,Right Fall while Sitting
52:21.2,670,504,756,746,378,1.71,586.05,1.85,111.52,378,287,125.26,285,15688,114395,2003,1.03,-0.04,0,-6.05,2.08,-1.96,-2.61,-86.39,-20.82,-15.73,-7.5,-20.1,-18.55,Right Fall while Sitting
52:21.3,331,501,751.5,746,381,1.69,593.46,1.86,111.52,378,287,125.26,285,15688,131228,2290,0.98,0,-0.01,-0.36,1.93,-2.44,-0.84,-88.02,-20.8,-15.73,-7.71,-20,-18.63,Right Fall while Sitting
52:21.4,277,497,745.5,746,375,1.73,578.7,1.83,111.52,378,286,125.26,285,15688,147488,2576,0.96,-0.04,0.07,0.7,5.72,2.61,-2.75,-83.87,-20.64,-15.27,-7.28,-19.93,-18.01,Right Fall while Sitting
52:21.5,619,499,748.5,746,375,1.73,578.7,1.83,104.1,376,286,127.96,286,16373,0,0,1.04,-0.02,-0.03,-4.01,-1.28,1.49,-1.87,-86.15,-21.07,-15.67,-7,-20.3,-18.49,Right Fall while Sitting
52:24.3,820,820,1230,820,389,1.63,613.56,1.9,0,0,286,0,0,0,32520,572,1.02,-0.04,0.03,3.12,6.63,-1.69,-3.04,-85.5,0.18,1.01,0.39,0.05,-2.45,Forward Fall while Sitting
52:24.4,692,756,1134,820,387,1.64,608.49,1.89,0,0,286,0,0,0,48780,858,1.01,-0.05,0.01,-3.85,-5.6,-0.21,-3.56,-85.4,-0.22,0.09,0.46,-0.36,-3.33,Forward Fall while Sitting
52:24.5,369,627,940.5,820,379,1.7,588.51,1.85,0,0,286,0,0,0,65040,1144,1.02,-0.06,0.01,-0.02,2.34,0.2,-3.9,-85.08,-0.16,0.13,0.58,-0.31,-3.28,Forward Fall while Sitting
52:24.6,161,510,765,820,372,1.75,571.43,1.82,0,0,286,0,0,0,81300,1430,1.03,-0.06,-0.01,-1.15,-0.91,-0.85,-3.74,-85.23,-0.23,-0.23,0.57,-0.37,-3.63,Forward Fall while Sitting
52:24.7,244,457,685.5,820,365,1.8,554.71,1.78,0,0,286,0,0,0,97560,1716,0.99,-0.06,0.01,3.53,10.92,-0.85,-3.94,-85.05,0.28,0.87,0.56,0.11,-2.57,Forward Fall while Sitting
52:24.9,346,438,657,820,359,1.85,540.66,1.75,0,0,286,0,0,0,113820,2002,1.03,-0.06,-0.01,-6.39,-6.79,3.05,-3.82,-85.17,-0.43,-0.2,1.03,-0.57,-3.59,Forward Fall while Sitting
52:25.0,789,488,732,820,357,1.87,536.04,1.74,0,0,286,0,0,0,130080,2288,1.02,-0.09,0.01,-4.76,-5.13,-1.33,-5.62,-83.35,-0.95,-1.07,0.96,-1.13,-4.36,Forward Fall while Sitting
52:25.1,941,545,817.5,941,360,1.84,542.99,1.76,0,0,286,0,0,0,146340,2574,1,-0.07,-0.04,-8.27,-11.47,1.48,-4.62,-83.67,-1.9,-2.73,1.24,-2,-5.97,Forward Fall while Sitting
52:25.2,743,567,850.5,941,360,1.84,542.99,1.76,83.29,371,286,127.51,286,16259,0,0,1.03,-0.09,-0.08,-12.5,-32.31,4.73,-5.64,-81.57,-3.38,-6.98,1.93,-3.47,-9.97,Forward Fall while Sitting
52:25.4,96,520,780,941,357,1.87,536.04,1.74,83.29,371,286,127.51,286,16259,16260,286,1.03,-0.11,-0.11,-10.41,-39.7,-0.61,-6.78,-79.67,-4.61,-12.2,1.95,-4.69,-14.9,Forward Fall while Sitting
52:25.5,33,475,712.5,941,348,1.94,515.56,1.7,83.29,371,286,127.51,286,16259,32520,572,1.02,-0.09,-0.24,-1.95,-28.76,-6.51,-5.43,-74.05,-4.78,-16.04,1.23,-4.81,-18.36,Forward Fall while Sitting
52:25.6,786,501,751.5,941,347,1.95,513.31,1.7,83.29,371,286,127.51,286,16259,48780,858,0.96,-0.07,-0.31,0.45,-33.55,2.07,-4.68,-69.99,-4.65,-20.49,1.59,-4.66,-22.47,Forward Fall while Sitting
52:25.7,836,527,790.5,941,350,1.92,520.06,1.71,83.29,371,286,127.51,286,16259,65040,1144,0.88,-0.1,-0.4,2.05,-35.79,7.76,-6.4,-63.38,-4.33,-25.21,2.66,-4.41,-26.74,Forward Fall while Sitting
52:25.9,230,506,759,941,351,1.91,522.32,1.72,83.29,371,286,127.51,286,16259,81300,1430,0.93,-0.14,-0.42,5.69,-34.76,6.7,-8.23,-62.94,-3.55,-29.8,3.59,-3.73,-31.13,Forward Fall while Sitting
52:26.0,0,472,708,941,306,2.34,426.78,1.5,83.29,371,172,127.51,286,16259,110884,1602,0.94,-0.14,-0.58,3.34,-22.44,-1.33,-7.55,-56.21,-3.06,-32.86,3.53,-3.24,-33.79,Forward Fall while Sitting
52:26.1,0,442,663,941,291,2.52,397.54,1.42,83.29,371,174,127.51,286,16259,141160,1776,0.86,-0.17,-0.61,-12.79,-28.5,-3.27,-9.96,-51.86,-4.59,-36.67,3.22,-4.8,-37.28,Forward Fall while Sitting
52:26.2,235,430,645,941,294,2.48,403.29,1.44,83.29,371,168,127.51,286,16259,169384,1944,0.81,-0.12,-0.55,3.63,-21.67,-0.93,-7.45,-53.65,-4.06,-39.65,3.2,-4.2,-40.21,Forward Fall while Sitting
52:26.4,253,420,630,941,300,2.41,414.94,1.47,83.29,371,182,127.51,286,16259,136972,2126,0.81,-0.15,-0.74,-0.44,-28.79,1.68,-8.35,-45.39,-4.05,-43.5,3.51,-4.22,-43.58,Forward Fall while Sitting
52:26.5,327,415,622.5,941,291,2.52,397.54,1.42,84.29,323,207,106.9,233,11427,0,0,0.86,-0.11,-0.77,-3.89,-35.27,0.76,-6.15,-46.15,-4.46,-48.09,3.7,-4.52,-48.01,Forward Fall while Sitting
52:26.6,756,432,648,941,292,2.5,399.45,1.43,84.29,323,188,106.9,233,11427,4294937104,188,0.72,-0.15,-0.81,0.51,-18.86,1.21,-8.39,-39.83,-4.32,-50.71,3.95,-4.48,-50.28,Forward Fall while Sitting
52:26.7,990,459,688.5,990,302,2.39,418.86,1.48,84.29,323,221,106.9,233,11427,4294920409,409,0.7,-0.17,-0.8,-2.85,-22.69,0.98,-9.42,-39.13,-4.61,-53.83,4.17,-4.8,-53.24,Forward Fall while Sitting
52:26.9,587,465,697.5,990,306,2.34,426.78,1.5,84.29,323,177,106.9,233,11427,4294951738,586,0.68,-0.14,-0.9,-3.66,-18.11,3.92,-7.9,-35.06,-5,-56.36,4.77,-5.11,-55.51,Forward Fall while Sitting
52:27.0,436,463,694.5,990,294,2.48,403.29,1.44,84.29,323,213,106.9,233,11427,4294931571,799,0.63,-0.16,-0.83,-2.34,-24.39,6.24,-9.47,-34.94,-5.22,-59.66,5.65,-5.39,-58.67,Forward Fall while Sitting
52:27.1,974,485,727.5,990,297,2.44,409.09,1.45,84.29,323,191,106.9,233,11427,4294902516,990,0.61,-0.16,-0.93,-3.09,-26.11,2.53,-8.9,-31.23,-5.54,-63.2,6.07,-5.67,-61.92,Forward Fall while Sitting
52:27.2,641,491,736.5,990,299,2.42,412.98,1.46,84.29,323,168,106.9,233,11427,4294930740,1158,0.53,-0.15,-0.95,-3.83,-9.63,0.73,-8.45,-27.06,-5.95,-64.67,6.26,-6.05,-63.16,Forward Fall while Sitting
52:27.4,132,477,715.5,990,294,2.48,403.29,1.44,84.29,323,190,106.9,233,11427,4294901304,1348,0.53,-0.15,-0.93,-6.69,-15.85,3.51,-8.45,-27.72,-6.73,-66.92,6.8,-6.79,-65.35,Forward Fall while Sitting
52:27.5,912,493,739.5,990,290,2.53,395.63,1.42,84.29,323,199,106.9,233,11427,4294875369,1547,0.46,-0.16,-0.93,2.24,-10.43,5.21,-9.19,-24.46,-6.37,-68.48,7.55,-6.49,-66.72,Forward Fall while Sitting
52:27.6,931,509,763.5,990,300,2.41,414.94,1.47,84.29,323,209,106.9,233,11427,4294853514,1756,0.49,-0.16,-0.98,-5.97,-18.13,0.58,-8.78,-24.63,-7.05,-71.02,7.73,-7.12,-69.16,Forward Fall while Sitting
52:27.7,400,505,757.5,990,306,2.34,426.78,1.5,152.63,298,220,20723.99,197,429483648,0,0,0.41,-0.15,-0.98,-2.48,-12.25,-0.94,-8.6,-21.06,-7.29,-72.8,7.71,-7.35,-70.73,Forward Fall while Sitting
52:27.9,254,497,745.5,990,297,2.44,409.09,1.45,152.63,298,228,20723.99,197,429483648,4294953744,228,0.4,-0.16,-1.02,-3.24,-11.73,1.47,-9.04,-19.45,-7.63,-74.54,7.99,-7.69,-72.34,Forward Fall while Sitting
52:28.0,951,511,766.5,990,302,2.39,418.86,1.48,152.63,298,204,20723.99,197,429483648,4294929824,432,0.37,-0.15,-1.02,-3.21,-9.52,1.24,-8.54,-18.34,-7.97,-76.01,8.25,-7.99,-73.7,Forward Fall while Sitting
52:28.1,443,509,763.5,990,313,2.27,440.85,1.53,152.63,298,250,20723.99,197,429483648,4294926788,682,0.36,-0.16,-1.02,0.72,-4.8,-0.05,-9.2,-17.65,-7.81,-76.87,8.35,-7.86,-74.5,Forward Fall while Sitting
52:28.2,319,503,754.5,990,302,2.39,418.86,1.48,152.63,298,241,20723.99,197,429483648,4294919333,923,0.34,-0.16,-1.04,-3.12,-3.35,-1.43,-8.92,-16.22,-8.13,-77.55,8.26,-8.16,-75.1,Forward Fall while Sitting
52:28.4,969,517,775.5,990,308,2.32,430.77,1.51,152.63,298,211,20723.99,197,429483648,4294898318,1134,0.33,-0.17,-1.01,-3.34,-2.53,-1.78,-9.49,-16.44,-8.49,-78.12,8.14,-8.53,-75.66,Forward Fall while Sitting
52:28.5,285,510,765,990,315,2.25,444.92,1.54,152.63,298,250,20723.99,197,429483648,4294895282,1384,0.32,-0.15,-1.05,-2.21,3.08,-1.65,-8.41,-15.4,-8.7,-77.99,8.03,-8.69,-75.48,Forward Fall while Sitting
52:28.6,427,508,762,990,304,2.37,422.81,1.49,152.63,298,207,20723.99,197,429483648,4294872595,1591,0.33,-0.15,-1.02,-2.95,2.31,-1.08,-8.39,-16.21,-9,-77.95,7.99,-8.98,-75.48,Forward Fall while Sitting
52:28.8,912,519,778.5,990,311,2.29,436.8,1.52,152.63,298,228,20723.99,197,429483648,4294859043,1819,0.35,-0.16,-1.04,0.31,4.94,0.76,-8.8,-16.94,-8.89,-77.57,8.19,-8.89,-75.15,Forward Fall while Sitting
52:28.9,168,510,765,990,317,2.23,449.01,1.55,152.63,298,251,20723.99,197,429483648,4294856508,2070,0.36,-0.16,-1.01,-0.44,6.36,-2.14,-9.29,-17.76,-8.88,-77.02,8.02,-8.89,-74.65,Forward Fall while Sitting
52:29.0,452,508,762,990,305,2.35,424.79,1.49,126.05,307,208,20723.98,227,429483424,0,0,0.37,-0.16,-0.99,0.45,5.76,-2.06,-9.11,-18.7,-8.75,-76.55,7.86,-8.77,-74.24,Forward Fall while Sitting
52:29.1,904,518,777,990,310,2.3,434.78,1.52,126.05,307,210,20723.98,227,429483424,4294945860,210,0.37,-0.17,-1.02,2.38,14.02,-0.61,-9.58,-18.14,-8.38,-75.03,7.88,-8.43,-72.75,Forward Fall while Sitting
52:29.3,407,515,772.5,990,319,2.21,453.13,1.56,126.05,307,251,20723.98,227,429483424,4294943325,461,0.41,-0.17,-1,0.78,13.89,-1.08,-9.7,-20.26,-8.21,-73.52,7.85,-8.27,-71.39,Forward Fall while Sitting
52:29.4,207,508,762,990,308,2.32,430.77,1.51,126.05,307,216,20723.98,227,429483424,4294924445,677,0.43,-0.18,-0.97,0.92,12.02,-0.5,-10.36,-22.04,-8.02,-72.25,7.88,-8.11,-70.24,Forward Fall while Sitting
52:29.5,832,516,774,990,311,2.29,436.8,1.52,126.05,307,210,20723.98,227,429483424,4294903009,887,0.45,-0.19,-0.98,1.56,10.16,-1.8,-10.38,-22.62,-7.75,-71.21,7.76,-7.85,-69.27,Forward Fall while Sitting
52:29.6,274,510,765,990,319,2.21,453.13,1.56,126.05,307,215,20723.98,227,429483424,4294883698,1102,0.49,-0.2,-0.97,2.15,20.43,-3.98,-10.95,-24.79,-7.41,-68.89,7.35,-7.55,-67.12,Forward Fall while Sitting
52:29.8,340,506,759,990,307,2.33,428.77,1.5,126.05,307,207,20723.98,227,429483424,4294861011,1309,0.53,-0.21,-0.95,9.35,37.19,-7.12,-11.46,-27.18,-6.15,-64.42,6.55,-6.36,-62.93,Forward Fall while Sitting
52:29.9,856,514,771,990,313,2.27,440.85,1.53,126.05,307,216,20723.98,227,429483424,4294842131,1525,0.62,-0.22,-0.86,13.79,62.15,-7.85,-12.3,-33.32,-4.33,-56.78,5.65,-4.65,-55.84,Forward Fall while Sitting
52:30.0,116,505,757.5,990,318,2.22,451.06,1.55,126.05,307,219,20723.98,227,429483424,4294824556,1744,0.71,-0.25,-0.82,9.95,73.87,-8.67,-13.46,-37.97,-2.98,-47.58,4.65,-3.4,-47.2,Forward Fall while Sitting
52:30.2,496,505,757.5,990,306,2.34,426.78,1.5,126.05,307,198,20723.98,227,429483424,4294798224,1942,0.79,-0.23,-0.61,-13.14,41.64,-2.68,-13.74,-48.5,-4.58,-42.55,4.41,-4.94,-42.78,Forward Fall while Sitting
52:30.3,711,509,763.5,990,312,2.28,438.82,1.52,111.16,312,195,20723.83,213,429477056,0,0,0.89,-0.23,-0.51,8.31,42.74,-3.43,-13.4,-56.19,-3.47,-37.45,4.08,-3.87,-38.2,Forward Fall while Sitting
52:30.4,192,503,754.5,990,315,2.25,444.92,1.54,111.16,312,217,20723.83,213,429477056,4294948849,217,0.94,-0.22,-0.53,9.66,45.19,-9.43,-12.1,-57.17,-2.17,-31.97,2.98,-2.57,-32.98,Forward Fall while Sitting
52:30.5,611,505,757.5,990,313,2.27,440.85,1.53,111.16,312,225,20723.83,213,429477056,4294933938,442,0.94,-0.21,-0.38,3.76,34.3,-9.5,-12.29,-63.39,-1.62,-27.87,1.87,-2.05,-29.29,Forward Fall while Sitting
52:30.7,991,514,771,991,323,2.17,461.43,1.58,111.16,312,218,20723.83,213,429477056,4294915926,660,0.95,-0.2,-0.32,7.63,33.44,-8.34,-12.15,-66.6,-0.58,-23.87,0.91,-1.04,-25.58,Forward Fall while Sitting
52:30.8,51,506,759,991,324,2.16,463.52,1.58,111.16,312,199,20723.83,213,429477056,4294889991,859,0.96,-0.18,-0.27,13.89,45.62,-12.01,-10.77,-70.01,1.25,-18.33,-0.51,0.77,-20.4,Forward Fall while Sitting
52:30.9,524,506,759,991,318,2.22,451.06,1.55,111.16,312,194,20723.83,213,429477056,4294862091,1053,0.93,-0.24,-0.1,-0.52,33.51,-9.53,-14.94,-72.9,1.26,-14.3,-1.63,0.61,-16.64,Forward Fall while Sitting
52:31.0,1001,515,772.5,1001,375,1.73,578.7,1.83,111.16,312,869,20723.83,213,429477056,4294830820,1922,0.99,-0.12,-0.07,-4.66,10.32,-8.66,-7.7,-80.26,0.74,-13.24,-2.63,0.4,-15.93,Forward Fall while Sitting
52:31.2,999,524,786,1001,407,1.51,660.71,1.99,111.16,312,855,20723.83,213,429477056,4294840949,2777,1.02,-0.14,-0.07,9.12,9.92,-5.1,-8.2,-79.91,1.97,-12.24,-3.17,1.56,-14.95,Forward Fall while Sitting
52:31.3,759,528,792,1001,413,1.48,677.05,2.02,111.16,312,296,20723.83,213,429477056,4294863029,3073,1.03,-0.14,-0.06,7.82,25.39,-4.38,-8.6,-79.82,3.03,-9.27,-3.63,2.57,-12.09,Forward Fall while Sitting
52:31.4,661,530,795,1001,406,1.52,658.02,1.98,111.16,312,289,20723.83,213,429477056,4294881014,3362,1.01,-0.12,-0.03,-6,-3.8,-0.33,-7.52,-81.33,2.34,-10.01,-3.57,1.95,-12.86,Forward Fall while Sitting
52:31.6,142,523,784.5,1001,396,1.58,631.58,1.94,20723.98,359,287,20724.14,364,429489792,0,0,1.04,-0.14,-0.01,-4.07,-22.92,0.83,-8.15,-80.84,1.9,-13.14,-3.37,1.5,-15.85,Forward Fall while Sitting
52:31.7,371,521,781.5,1001,386,1.65,605.97,1.89,20723.98,359,286,20724.14,364,429489792,16260,286,1.01,-0.14,-0.11,-1.3,-14.54,0.55,-8.29,-78.37,1.81,-15.23,-3.2,1.4,-17.75,Forward Fall while Sitting
52:31.8,470,520,780,1001,384,1.66,600.94,1.88,20723.98,359,285,20724.14,364,429489792,31949,571,1.02,-0.14,-0.13,7.49,-4.13,-1.72,-8.25,-77.79,2.83,-16.01,-3.32,2.39,-18.48,Forward Fall while Sitting
52:31.9,140,514,771,1001,384,1.66,600.94,1.88,20723.98,359,285,20724.14,364,429489792,47638,856,1,-0.15,-0.15,-1.31,-3.34,2.53,-8.98,-76.67,2.74,-16.68,-2.9,2.27,-19.08,Forward Fall while Sitting
52:32.1,302,511,766.5,1001,378,1.71,586.05,1.85,20723.98,359,285,20724.14,364,429489792,63327,1141,1.02,-0.15,-0.14,-0.97,1.98,-2.98,-8.91,-76.83,2.68,-16.68,-3.18,2.22,-19.09,Forward Fall while Sitting
52:32.2,623,512,768,1001,382,1.68,595.94,1.87,20723.98,359,285,20724.14,364,429489792,79016,1426,0.98,-0.15,-0.11,0.49,3.14,-3.63,-8.95,-77.91,2.82,-16.54,-3.53,2.35,-18.99,Forward Fall while Sitting
52:32.3,289,509,763.5,1001,384,1.66,600.94,1.88,20723.98,359,286,20724.14,364,429489792,95276,1712,1.01,-0.14,-0.13,-1.05,2.67,-0.31,-8.13,-77.95,2.75,-16.45,-3.47,2.32,-18.91,Forward Fall while Sitting
52:32.4,309,506,759,1001,379,1.7,588.51,1.85,20723.98,359,285,20724.14,364,429489792,110965,1997,1.01,-0.14,-0.12,-3.78,-3.75,1.08,-8.24,-78.1,2.35,-17.18,-3.24,1.92,-19.62,Forward Fall while Sitting
52:35.5,770,770,1155,770,382,1.68,595.94,1.87,0,0,285,0,0,0,31378,570,0.99,-0.15,-0.1,1.26,10.12,3.02,-9.04,-78.26,-0.49,0.02,0.24,-0.83,-3.11,Walking
52:35.6,825,797,1195.5,825,383,1.67,598.44,1.87,0,0,285,0,0,0,47067,855,1.03,-0.07,-0.21,-0.58,-4.69,-5.28,-4.58,-76.46,-0.49,-0.79,-0.31,-0.66,-3.82,Walking
52:35.7,637,744,1116,825,385,1.66,603.45,1.88,0,0,285,0,0,0,62756,1140,0.99,-0.15,-0.08,-0.18,15.6,-1.31,-9.02,-78.74,-0.45,0.88,-0.37,-0.79,-2.31,Walking
52:35.9,392,656,984,825,388,1.64,611.02,1.9,0,0,286,0,0,0,79016,1426,1.02,-0.1,-0.17,-9.4,-4.37,0.39,-5.97,-77.61,-1.54,0.09,-0.23,-1.72,-3.02,Walking
52:36.0,261,577,865.5,825,397,1.58,634.19,1.94,0,0,285,0,0,0,94705,1711,1.04,-0.11,-0.03,1.07,17.63,-1.85,-6.55,-82.16,-1.34,2,-0.35,-1.55,-1.37,Walking
52:36.1,242,521,781.5,825,402,1.54,647.34,1.96,0,0,285,0,0,0,110394,1996,1.01,-0.15,-0.08,1.46,7.08,-1.73,-8.98,-78.89,-1.1,2.62,-0.47,-1.41,-0.64,Walking
52:36.2,383,501,751.5,825,412,1.48,674.3,2.01,0,0,284,0,0,0,125514,2280,1.02,-0.06,-0.08,-9.93,-8.47,1.01,-3.97,-82.91,-2.24,1.34,-0.25,-2.31,-2.03,Walking
52:36.4,570,510,765,825,408,1.51,663.41,1.99,0,0,284,0,0,0,140634,2564,1,-0.18,-0.05,1.96,-0.92,2.31,-10.76,-77.85,-1.93,0.99,0.13,-2.28,-2.17,Walking
52:36.5,712,532,798,825,397,1.58,634.19,1.94,103.45,393,284,124.8,284,15574,0,0,1.04,-0.11,-0.13,-4.31,-11.63,-1.78,-6.85,-78.9,-2.39,-0.7,0.01,-2.57,-3.83,Walking
52:36.6,474,526,789,825,369,1.77,564.22,1.8,103.45,393,285,124.8,284,15574,15689,285,1.02,-0.1,-0.14,-0.56,-4.51,-2.5,-6.08,-78.68,-2.39,-1.52,-0.21,-2.54,-4.6,Walking
52:36.7,0,478,717,825,340,2.01,497.8,1.66,103.45,393,285,124.8,284,15574,31378,570,1.04,-0.11,-0.14,0.6,19.14,2.1,-6.38,-78.89,-2.25,0.62,0.16,-2.41,-2.56,Walking
52:36.9,226,457,685.5,825,322,2.18,459.34,1.57,103.45,393,285,124.8,284,15574,47067,855,1.06,-0.14,-0.12,-9.26,-0.69,-4.11,-8.05,-78.71,-3.33,0.29,-0.26,-3.52,-2.87,Walking
52:37.0,806,484,726,825,328,2.12,471.94,1.6,103.45,393,285,124.8,284,15574,62756,1140,0.99,-0.12,-0.09,-10.95,-2.6,-7.31,-7.69,-79.47,-4.63,-0.28,-1.07,-4.75,-3.45,Walking
52:37.1,846,510,765,846,352,1.91,524.59,1.72,103.45,393,285,124.8,284,15574,78445,1425,0.99,-0.13,-0.04,-6.35,17.85,6.53,-8.25,-80.4,-5.35,1.7,-0.15,-5.47,-1.59,Walking
52:37.2,420,504,756,846,368,1.78,561.83,1.8,103.45,393,286,124.8,284,15574,94705,1711,1.01,-0.11,-0.1,10.72,38.44,-9.15,-6.87,-79.99,-3.94,6.25,-1.2,-4.06,2.8,Walking
52:37.4,427,499,748.5,846,370,1.76,566.62,1.81,103.45,393,286,124.8,284,15574,110965,1997,0.98,-0.13,-0.05,-16.83,-31.53,2.16,-8.24,-80.12,-5.98,2.06,-0.83,-6.07,-1.23,Walking
52:37.5,564,503,754.5,846,375,1.73,578.7,1.83,103.45,393,285,124.8,284,15574,126654,2282,1.04,-0.1,-0.05,4.79,7.92,-4.08,-6.23,-82.14,-5.3,2.81,-1.25,-5.34,-0.59,Walking
52:37.6,564,506,759,846,381,1.69,593.46,1.86,103.45,393,285,124.8,284,15574,142343,2567,0.97,-0.16,0.02,1.44,21.79,-8.11,-10.09,-78.81,-5.05,5.26,-2.15,-5.25,1.9,Walking
52:37.7,126,486,729,846,378,1.71,586.05,1.85,20724.25,358,286,125.94,285,15859,0,0,0.99,-0.08,-0.06,-6.06,-23.41,2.14,-5.39,-82.46,-5.73,2.13,-1.79,-5.72,-1.25,Walking
52:37.9,0,462,693,846,358,1.86,538.35,1.75,20724.25,358,286,125.94,285,15859,16260,286,1.04,-0.12,-0.07,1.64,-10.12,5.9,-7.22,-80.72,-5.45,0.62,-0.96,-5.52,-2.63,Walking
52:38.0,331,456,684,846,329,2.11,474.06,1.61,20724.25,358,285,125.94,285,15859,31949,571,1.11,-0.12,-0.15,11.58,4.09,-6.29,-6.5,-78.56,-3.94,0.88,-1.65,-4.04,-2.3,Walking
52:38.1,937,477,715.5,937,326,2.14,467.72,1.59,20724.25,358,285,125.94,285,15859,47638,856,1.03,-0.05,-0.16,7.46,7.33,-2.9,-3.28,-79.38,-2.93,1.55,-1.91,-2.95,-1.69,Walking
52:38.2,366,473,709.5,937,325,2.15,465.62,1.59,20724.25,358,286,125.94,285,15859,63898,1142,1.04,-0.1,-0.11,-14.12,35.04,-2.65,-5.83,-80.59,-4.63,5.68,-2.14,-4.68,2.23,Walking
52:38.4,0,453,679.5,937,321,2.19,457.26,1.57,20724.25,358,286,125.94,285,15859,80158,1428,0.97,-0.12,0,-9.74,35.47,-10.31,-7.41,-81.59,-5.78,9.86,-3.33,-5.84,6.2,Walking
52:38.5,524,456,684,937,299,2.42,412.98,1.46,20724.25,358,286,125.94,285,15859,96418,1714,1.01,-0.09,0.11,-25.28,-2.53,3.08,-5.88,-80.38,-8.87,9.29,-2.85,-8.75,5.71,Walking
52:38.6,892,472,708,937,308,2.32,430.77,1.51,20724.25,358,286,125.94,285,15859,112678,2000,0.92,-0.1,0.17,-18.72,-17.96,-0.63,-6.88,-75.98,-11.15,6.78,-2.83,-10.98,3.47,Walking
52:38.7,850,486,729,937,354,1.89,529.15,1.73,20724.25,358,286,125.94,285,15859,128938,2286,1,-0.08,0.08,5.08,7.64,-3.5,-5.15,-82,-10.44,7.49,-3.17,-10.23,3.91,Walking
52:38.9,405,483,724.5,937,369,1.77,564.22,1.8,20724.25,358,286,125.94,285,15859,145198,2572,1.02,-0.11,0.13,-4.49,-7.67,1.22,-6.63,-78.99,-10.94,6.28,-2.92,-10.76,2.87,Walking
52:39.0,685,490,735,937,361,1.83,545.32,1.76,20724.18,335,285,126.84,285,16087,0,0,1.06,-0.13,0.18,16.98,8.53,-6.95,-7.52,-76.47,-8.76,7.09,-3.68,-8.71,3.75,Walking
52:39.1,805,501,751.5,937,352,1.91,524.59,1.72,20724.18,335,285,126.84,285,16087,15689,285,0.94,-0.07,0.14,42.67,8.34,-12.63,-4.97,-78.96,-3.4,7.88,-5.15,-3.46,4.4,Walking
52:39.2,426,498,747,937,349,1.93,517.8,1.71,20724.18,335,285,126.84,285,16087,31378,570,0.99,-0.05,0.02,36.42,3.23,1.14,-3.49,-85.36,1.22,8.03,-4.91,1.03,4.29,Walking
52:39.4,221,490,735,937,361,1.83,545.32,1.76,20724.18,335,286,126.84,285,16087,47638,856,0.99,-0.05,-0.01,17.34,0.12,0.33,-3.53,-85.44,3.46,7.8,-4.77,3.18,4.07,Walking
52:39.5,331,485,727.5,937,358,1.86,538.35,1.75,20724.18,335,286,126.84,285,16087,63898,1142,1.05,-0.03,0.05,8.79,-9.11,-1.69,-2.43,-84.96,4.61,6.43,-4.88,4.33,2.77,Walking
52:39.6,738,492,738,937,351,1.91,522.32,1.72,20724.18,335,285,126.84,285,16087,79587,1427,1,-0.06,0,10.13,-16.9,2.47,-3.72,-85.27,5.95,4.07,-4.47,5.56,0.49,Walking
52:39.7,633,496,744,937,335,2.05,486.92,1.64,20724.18,335,285,126.84,285,16087,95276,1712,1.03,-0.01,-0.02,-2.34,1.44,-4.37,-0.99,-87.21,5.73,4,-4.92,5.46,0.35,Walking
52:39.9,478,496,744,937,349,1.93,517.8,1.71,20724.18,335,285,126.84,285,16087,110965,1997,1.03,0.03,0.01,10.37,26.7,-3.11,0.97,-86.74,7.09,7.08,-5.2,6.85,3.33,Walking
52:40.0,477,495,742.5,937,369,1.77,564.22,1.8,20724.18,335,286,126.84,285,16087,127225,2283,1.03,-0.03,0.01,-7.44,-8.75,-3.45,-2.31,-86.6,6.23,5.74,-5.54,5.89,2.05,Walking
52:40.1,707,501,751.5,937,382,1.68,595.94,1.87,20724.18,335,285,126.84,285,16087,142914,2568,1.05,0.05,-0.09,-10.32,3.96,-4.23,2.02,-82.78,5.01,5.99,-5.97,4.89,2.44,Walking
52:40.2,852,510,765,937,379,1.7,588.51,1.85,20724.25,358,285,125.94,285,15859,0,0,1,-0.01,-0.02,-15.65,11.55,-3.21,-0.93,-87.39,3.16,7.16,-6.26,2.99,3.38,Walking
52:40.4,560,511,766.5,937,367,1.79,559.45,1.79,20724.25,358,286,125.94,285,15859,16260,286,1,-0.03,0.12,-10.19,-0.1,0.58,-2.01,-81.24,1.95,6.9,-6.09,1.79,3.37,Walking
52:40.5,152,502,753,937,359,1.85,540.66,1.75,20724.25,358,286,125.94,285,15859,32520,572,1.06,0,0.01,-23.02,0.99,2.74,-0.61,-87.63,-0.83,6.77,-5.66,-0.82,3,Walking
52:40.6,191,495,742.5,937,352,1.91,524.59,1.72,20724.25,358,286,125.94,285,15859,48780,858,0.98,0,0.05,-20.92,-2.65,-0.85,-0.64,-85.42,-3.38,6.19,-5.66,-3.27,2.53,Walking
52:40.7,609,498,747,937,346,1.96,511.08,1.69,20724.25,358,285,125.94,285,15859,64469,1143,1.01,-0.05,0.06,-30.08,-5,0.44,-3.61,-83.82,-7.07,5.32,-5.51,-6.93,1.75,Walking
52:40.9,626,500,750,937,332,2.08,480.46,1.62,20724.25,358,285,125.94,285,15859,80158,1428,1.04,-0.07,0.14,-22.66,13.14,-6.85,-4.55,-79.83,-9.83,6.71,-6.27,-9.62,3.25,Walking
52:41.0,327,497,745.5,937,343,1.98,504.41,1.68,20724.25,358,286,125.94,285,15859,96418,1714,1.01,-0.04,0.09,-16.15,12.42,0.38,-2.99,-82.65,-11.76,8,-6.12,-11.41,4.38,Walking
52:41.1,237,491,736.5,937,343,1.98,504.41,1.68,20724.25,358,286,125.94,285,15859,112678,2000,1.08,-0.09,0.2,-19.31,0.11,-2.32,-5.3,-76.71,-14.13,7.76,-6.32,-13.77,4.38,Walking
52:41.2,659,494,741,937,331,2.09,478.32,1.62,20724.25,358,285,125.94,285,15859,128367,2285,0.91,-0.07,0.16,-7.08,-11.03,-13.47,-4.79,-77.86,-14.95,6.12,-7.91,-14.54,2.76,Walking
52:41.4,674,498,747,937,339,2.02,495.61,1.66,20724.25,358,286,125.94,285,15859,144627,2571,0.92,-0.03,0.13,-5.81,-2.82,-1.38,-2.48,-80.28,-15.6,5.52,-7.99,-15.08,2.09,Walking
52:41.5,427,497,745.5,937,361,1.83,545.32,1.76,20724.05,347,286,126.84,285,16087,0,0,1.06,-0.04,0.13,3.04,1.09,1.29,-2.59,-81.32,-15.16,5.41,-7.73,-14.65,1.94,Walking
52:41.6,405,495,742.5,937,367,1.79,559.45,1.79,20724.05,347,285,126.84,285,16087,15689,285,0.97,-0.02,0.12,19.55,21.92,-5.56,-1.66,-81.29,-12.66,7.88,-8.32,-12.22,4.31,Walking
52:41.7,987,505,757.5,987,366,1.8,557.08,1.79,20724.05,347,285,126.84,285,16087,31378,570,0.99,-0.03,0.15,21.87,12.92,-0.4,-2.24,-79.9,-9.86,9.24,-8.27,-9.55,5.68,Walking
52:41.9,604,506,759,987,353,1.9,526.87,1.73,20724.05,347,285,126.84,285,16087,47067,855,1,0.02,0.07,9.3,1.05,-3.17,0.85,-84.25,-8.63,9.12,-8.57,-8.25,5.39,Walking
52:42.0,500,506,759,987,364,1.81,552.35,1.78,20724.05,347,285,126.84,285,16087,62756,1140,0.96,0,0.15,6.89,-3.6,4.11,-0.69,-79.52,-7.69,8.42,-7.96,-7.41,4.9,Walking
52:42.1,141,500,750,987,358,1.86,538.35,1.75,20724.05,347,286,126.84,285,16087,79016,1426,1.05,-0.02,0.14,15.19,-0.53,10.05,-1.52,-80.72,-5.74,8.11,-6.61,-5.57,4.55,Walking
52:42.2,488,499,748.5,987,346,1.96,511.08,1.69,20724.05,347,285,126.84,285,16087,94705,1711,1.04,0,0.09,13.52,16.55,0.26,-0.73,-83.36,-3.98,9.93,-6.48,-3.85,6.19,Walking
52:42.4,671,502,753,987,336,2.04,489.08,1.64,20724.05,347,285,126.84,285,16087,110394,1996,1,-0.03,0.12,-0.33,-10.82,-1.4,-2.44,-81.06,-3.95,8.32,-6.56,-3.89,4.75,Walking
52:42.5,597,504,756,987,351,1.91,522.32,1.72,20724.05,347,285,126.84,285,16087,126083,2281,0.96,-0.02,0.15,5.98,-6.61,-4.78,-1.64,-79.36,-3.13,7.24,-7.06,-3.07,3.77,Walking
52:42.6,148,498,747,987,353,1.9,526.87,1.73,20724.05,347,286,126.84,285,16087,142343,2567,0.99,0.04,0.06,1.08,-8.17,-4.35,1.99,-84.29,-2.92,5.97,-7.5,-2.73,2.36,Walking
