Datetime, ECGR , AvgECG , ampECG , MAX , GSRR , Resistance , GSR(kohm) , SCL , GSRRMS , GSRMAV , EMGR , EMGRMS , EMGMAV , EMGVAR , EMGSSI , IEMG , AccX , AccY, AccZ , GyroX , GyroY , GyroZ , Aroll , Apitch , Groll , Gpitch, Gy , Combroll , Combpitch,Features
03:44.1,393,529,793.5,814,227,3.51,285.18,1.11,20723.86,217,177,162.94,162,26550,246721,1489,1.02,-0.08,0.07,-2.31,-0.82,2.97,-5.09,-82.33,-2.71,-4.4,-1.18,-2.81,-7.51,Standing
03:44.2,736,540,810,814,218,3.69,270.81,1.07,20723.88,218,138,163.02,162,26575,0,0,1.01,-0.09,0.08,-0.66,-0.98,-0.92,-5.74,-81.67,-2.72,-4.77,-1.2,-2.84,-7.84,Standing
03:44.3,758,551,826.5,814,209,3.89,256.76,1.02,20723.88,218,155,163.02,162,26575,24025,155,1.01,-0.1,0.06,-4.02,-1.21,0.89,-6.04,-82.12,-3.15,-5.16,-0.99,-3.27,-8.24,Standing
03:44.4,290,539,808.5,814,218,3.69,270.81,1.07,20723.88,218,162,163.02,162,26575,50269,317,1.01,-0.09,0.07,-2.59,4.06,-2.44,-5.43,-82.26,-3.41,-4.91,-1.19,-3.49,-8,Standing
03:44.6,409,533,799.5,814,229,3.47,288.41,1.12,20723.88,218,176,163.02,162,26575,81245,493,1,-0.09,0.1,-1.9,4.15,-2.17,-5.46,-80.91,-3.57,-4.64,-1.37,-3.65,-7.69,Standing
03:44.7,741,542,813,814,218,3.69,270.81,1.07,20723.88,218,149,163.02,162,26575,103446,642,1.01,-0.08,0.09,-2.98,1,1.71,-5.37,-81.53,-3.88,-4.76,-1.05,-3.94,-7.83,Standing
03:44.8,603,544,816,814,210,3.87,258.3,1.03,20723.88,218,154,163.02,162,26575,127162,796,1,-0.09,0.09,-0.18,0.84,-1.11,-5.86,-80.99,-3.83,-4.91,-1.09,-3.91,-7.95,Standing
03:44.9,269,533,799.5,814,221,3.63,275.56,1.08,20723.88,218,165,163.02,162,26575,154387,961,1,-0.09,0.08,0.18,1.28,1.07,-5.91,-81.56,-3.74,-5,-0.86,-3.82,-8.06,Standing
03:45.1,406,528,792,814,228,3.49,286.79,1.11,20723.88,218,176,163.02,162,26575,185363,1137,1.01,-0.1,0.07,-0.95,-0.15,-1.25,-6.46,-81.19,-3.79,-5.27,-0.92,-3.89,-8.3,Standing
03:45.2,807,539,808.5,814,215,3.76,266.09,1.05,20723.88,218,159,163.02,162,26575,210644,1296,0.99,-0.09,0.07,-3.03,1.28,-1.41,-5.88,-81.76,-4.1,-5.36,-1,-4.17,-8.41,Standing
03:45.3,393,533,799.5,814,213,3.8,262.96,1.04,20723.88,218,163,163.02,162,26575,237213,1459,1,-0.09,0.08,-2.34,1.72,-0.58,-5.94,-81.51,-4.32,-5.39,-0.97,-4.38,-8.44,Standing
03:45.4,317,526,789,814,224,3.57,280.35,1.09,20723.88,218,171,163.23,163,26644,0,0,1,-0.09,0.09,-2.15,4.02,0.6,-5.74,-81.06,-4.52,-5.14,-0.8,-4.57,-8.18,Standing
03:45.6,468,524,786,814,226,3.53,283.56,1.1,20723.88,218,171,163.23,163,26644,29241,171,1.01,-0.11,0.12,-1.42,2.32,-0.95,-6.76,-79.38,-4.62,-5.1,-0.82,-4.71,-8.07,Standing
03:45.7,792,533,799.5,814,214,3.78,264.52,1.05,20723.88,218,159,163.23,163,26644,54522,330,1.01,-0.1,0.09,-2.15,-2.76,-1.57,-6.12,-80.71,-4.82,-5.69,-0.92,-4.87,-8.69,Standing
03:45.8,372,528,792,814,213,3.8,262.96,1.04,20723.88,218,163,163.23,163,26644,81091,493,1,-0.1,0.08,-1.72,1.07,0.5,-6.05,-81.45,-4.97,-5.81,-0.76,-5.01,-8.84,Standing
03:45.9,307,521,781.5,814,223,3.59,278.75,1.09,20723.88,218,167,163.23,163,26644,108980,660,0.99,-0.11,0.1,-0.4,5.36,-1.9,-6.99,-79.91,-4.95,-5.39,-0.89,-5.03,-8.37,Standing
03:46.1,520,521,781.5,814,223,3.59,278.75,1.09,20723.88,218,169,163.23,163,26644,137541,829,1.01,-0.09,0.09,-1.96,-0.4,-0.61,-5.44,-81.53,-5.12,-5.69,-0.87,-5.14,-8.73,Standing
03:46.2,808,529,793.5,814,211,3.85,259.85,1.03,20723.88,218,156,163.23,163,26644,161877,985,1.02,-0.11,0.09,-1.02,-0.74,-1.1,-6.63,-80.63,-5.18,-6.03,-0.91,-5.24,-9.02,Standing
03:46.3,280,522,783,814,216,3.74,267.66,1.06,20723.88,218,161,163.23,163,26644,187798,1146,1.01,-0.1,0.1,-2.11,-0.59,-5.63,-6.37,-80.47,-5.37,-6.36,-1.52,-5.41,-9.32,Standing
03:46.4,337,517,775.5,814,229,3.47,288.41,1.12,20723.88,218,178,163.23,163,26644,219482,1324,0.99,-0.08,0.08,-3.11,-2.25,-2.78,-5.26,-81.89,-5.69,-6.89,-1.77,-5.68,-9.89,Standing
03:46.6,780,524,786,814,217,3.71,269.23,1.06,20723.88,218,162,163.23,163,26644,245726,1486,1,-0.1,0.08,-2.54,-1.91,1.75,-6.19,-81.02,-5.94,-7.38,-1.45,-5.95,-10.33,Standing
03:46.7,481,523,784.5,814,211,3.85,259.85,1.03,20723.87,218,150,163.77,163,26821,0,0,1.01,-0.1,0.09,0.04,2.12,-0.74,-6.11,-81.06,-5.87,-7.37,-1.44,-5.88,-10.32,Standing
03:46.8,262,516,774,814,219,3.67,272.39,1.07,20723.87,218,165,163.77,163,26821,27225,165,1.02,-0.08,0.09,-0.34,2.93,-2.74,-5.21,-81.75,-5.84,-7.25,-1.69,-5.82,-10.23,Standing
03:46.9,437,514,771,814,227,3.51,285.18,1.11,20723.87,218,176,163.77,163,26821,58201,341,1,-0.09,0.07,-1.13,-0.37,-2.36,-5.96,-81.66,-5.91,-7.55,-1.88,-5.91,-10.51,Standing
03:47.1,779,521,781.5,814,214,3.78,264.52,1.05,20723.87,218,161,163.77,163,26821,84122,502,0.99,-0.08,0.07,-1.28,1.49,-0.5,-5.4,-82.22,-6,-7.61,-1.85,-5.98,-10.6,Standing
03:47.2,412,518,777,814,212,3.83,261.41,1.04,20723.87,218,161,163.77,163,26821,110043,663,1,-0.09,0.08,-1.81,3.02,-0.08,-5.93,-81.3,-6.16,-7.49,-1.76,-6.15,-10.44,Standing
03:47.3,305,513,769.5,814,223,3.59,278.75,1.09,20723.87,218,168,163.77,163,26821,138267,831,1.01,-0.09,0.09,-0.34,2.36,-1.11,-5.62,-81.17,-6.13,-7.44,-1.8,-6.11,-10.39,Standing
03:47.5,513,513,769.5,814,222,3.61,277.15,1.09,20723.87,218,170,163.77,163,26821,167167,1001,1,-0.09,0.08,-0.86,-3.18,-1.41,-5.98,-81.3,-6.17,-8.09,-1.88,-6.16,-11.02,Standing
03:47.6,793,519,778.5,814,210,3.87,258.3,1.03,20723.87,218,157,163.77,163,26821,191816,1158,1,-0.09,0.06,-0.34,-0.06,-1.08,-5.65,-82.3,-6.14,-8.35,-1.91,-6.12,-11.31,Standing
03:47.7,263,514,771,814,218,3.69,270.81,1.07,20723.87,218,162,163.77,163,26821,218060,1320,1,-0.1,0.08,-0.89,5.69,1.35,-6.09,-81.29,-6.18,-7.88,-1.64,-6.18,-10.82,Standing
03:47.8,380,511,766.5,814,229,3.47,288.41,1.12,20723.87,218,176,163.77,163,26821,249036,1496,1.02,-0.08,0.08,-1.27,2.16,-2.4,-5.27,-81.73,-6.27,-7.86,-1.84,-6.23,-10.82,Standing
03:48.0,794,517,775.5,814,215,3.76,266.09,1.05,20723.88,218,160,165.72,165,27462,0,0,1.02,-0.09,0.11,-1.48,-3.26,1.28,-5.6,-80.69,-6.39,-8.52,-1.59,-6.36,-11.4,Standing
03:48.1,594,518,777,814,209,3.89,256.76,1.02,20723.88,218,155,165.72,165,27462,24025,155,1.01,-0.11,0.07,-1.68,-3.09,-2.08,-7.08,-80.76,-6.53,-9.15,-1.75,-6.55,-12.02,Standing
03:48.2,271,513,769.5,814,221,3.63,275.56,1.08,20723.88,218,166,165.72,165,27462,51581,321,0.99,-0.1,0.07,-1.39,-0.42,-3.98,-6.6,-81.26,-6.63,-9.46,-2.15,-6.63,-12.33,Standing
03:48.3,471,513,769.5,814,226,3.53,283.56,1.1,20723.88,218,171,165.72,165,27462,80822,492,1.01,-0.09,0.07,-1.95,1.76,-0.04,-5.46,-82.05,-6.8,-9.49,-2.05,-6.75,-12.39,Standing
03:48.5,790,518,777,814,213,3.8,262.96,1.04,20723.88,218,159,165.72,165,27462,106103,651,1.02,-0.1,0.07,-4.1,-0.66,-0.82,-6.22,-81.46,-7.25,-9.82,-2.05,-7.21,-12.69,Standing
03:48.6,324,514,771,814,214,3.78,264.52,1.05,20723.88,218,163,165.72,165,27462,132672,814,1,-0.09,0.07,-2.52,3.02,-2.26,-5.78,-81.8,-7.49,-9.7,-2.24,-7.43,-12.58,Standing
03:48.7,346,511,766.5,814,226,3.53,283.56,1.1,20723.88,218,175,165.72,165,27462,163297,989,1,-0.09,0.07,-2.85,-0.01,-0.74,-5.84,-81.76,-7.78,-9.95,-2.23,-7.7,-12.82,Standing
03:48.8,654,514,771,814,220,3.65,273.97,1.08,20723.88,218,168,165.72,165,27462,191521,1157,1,-0.11,0.08,-4.24,0.63,0.89,-6.64,-80.81,-8.24,-10.12,-2.02,-8.18,-12.95,Standing
03:49.0,719,517,775.5,814,208,3.92,255.21,1.02,20723.88,218,156,165.72,165,27462,215857,1313,1.01,-0.11,0.1,-0.28,3.96,-3.67,-6.53,-80.2,-8.21,-9.87,-2.39,-8.14,-12.69,Standing
03:49.1,263,513,769.5,814,219,3.67,272.39,1.07,20723.88,218,165,165.72,165,27462,243082,1478,1.01,-0.09,0.09,-1.39,-1.44,0.39,-5.9,-81.07,-8.31,-10.3,-2.24,-8.22,-13.13,Standing
03:49.2,449,512,768,814,226,3.53,283.56,1.1,20723.87,218,172,165.12,165,27265,0,0,1.01,-0.1,0.07,-1.42,-0.4,2.42,-6.45,-81.19,-8.42,-10.6,-1.84,-8.34,-13.43,Standing
03:49.3,805,517,775.5,814,216,3.74,267.66,1.06,20723.87,218,161,165.12,165,27265,25921,161,1.01,-0.11,0.07,-2.21,0.37,-2.94,-6.91,-80.93,-8.63,-10.81,-2.11,-8.56,-13.61,Standing
03:49.5,443,516,774,814,210,3.87,258.3,1.03,20723.87,218,158,165.12,165,27265,50885,319,1.01,-0.1,0.07,-3.67,2.42,-1.99,-6.51,-81.27,-9.02,-10.75,-2.26,-8.92,-13.57,Standing
03:49.6,305,512,768,814,223,3.59,278.75,1.09,20723.87,218,167,165.12,165,27265,78774,486,1.01,-0.11,0.1,-1.82,1.56,-2.38,-6.67,-80.14,-9.18,-10.81,-2.46,-9.08,-13.58,Standing
03:49.7,514,512,768,814,224,3.57,280.35,1.09,20723.87,218,170,165.12,165,27265,107674,656,1.01,-0.1,0.09,-1.52,0.2,-3.77,-6.22,-80.84,-9.3,-11.03,-2.83,-9.17,-13.83,Standing
03:49.8,789,516,774,814,210,3.87,258.3,1.03,20723.87,218,158,165.12,165,27265,132638,814,1,-0.09,0.07,-1.55,0.53,0.01,-5.91,-81.62,-9.42,-11.22,-2.73,-9.28,-14.03,Standing
03:50.0,276,513,769.5,814,217,3.71,269.23,1.06,20723.87,218,162,165.12,165,27265,158882,976,1.01,-0.1,0.08,-0.74,2.79,-2.06,-6.08,-81.44,-9.44,-11.12,-2.89,-9.31,-13.93,Standing
03:50.1,408,511,766.5,814,229,3.47,288.41,1.12,20723.87,218,176,165.12,165,27265,189858,1152,1.01,-0.1,0.08,-1.59,0.78,-1.61,-6.07,-81.32,-9.57,-11.27,-2.99,-9.43,-14.08,Standing
03:50.2,793,515,772.5,814,217,3.71,269.23,1.06,20723.87,218,160,165.12,165,27265,215458,1312,1,-0.1,0.08,-2.69,0.63,-0.2,-6.11,-81.12,-9.84,-11.45,-2.91,-9.69,-14.23,Standing
03:50.3,413,514,771,814,212,3.83,261.41,1.04,20723.87,218,159,165.12,165,27265,240739,1471,1,-0.1,0.08,-4.17,0.06,-1.16,-6.26,-81.3,-10.29,-11.69,-2.96,-10.13,-14.47,Standing
03:50.5,335,511,766.5,814,225,3.55,281.95,1.1,20723.87,218,173,164.52,164,27065,0,0,1,-0.09,0.08,-1.36,3.87,-0.92,-5.66,-81.44,-10.39,-11.45,-2.98,-10.2,-14.25,Standing
03:50.6,543,512,768,814,224,3.57,280.35,1.09,20723.87,218,170,164.52,164,27065,28900,170,1.01,-0.1,0.09,-1.28,-1.14,-0.86,-6.25,-80.83,-10.48,-11.85,-2.99,-10.31,-14.61,Standing
03:50.7,794,516,774,814,211,3.85,259.85,1.03,20723.87,218,155,164.52,164,27065,52925,325,0.99,-0.1,0.07,-2.83,-2.1,-1.4,-6.26,-81.5,-10.77,-12.37,-3.06,-10.59,-15.13,Standing
03:50.8,256,512,768,814,220,3.65,273.97,1.08,20723.87,218,163,164.52,164,27065,79494,488,1,-0.09,0.09,1.08,5.57,-2.37,-5.77,-81.02,-10.56,-11.92,-3.26,-10.37,-14.68,Standing
03:51.0,443,511,766.5,814,228,3.49,286.79,1.11,20723.87,218,175,164.52,164,27065,110119,663,1.02,-0.1,0.08,-3.89,3.01,0.36,-6.31,-81.18,-10.98,-11.79,-3.12,-10.79,-14.57,Standing
03:51.1,816,515,772.5,816,214,3.78,264.52,1.05,20723.87,218,158,164.52,164,27065,135083,821,1.02,-0.1,0.09,-2.08,-1.15,-0.99,-6.3,-80.67,-11.17,-12.19,-3.14,-10.97,-14.93,Standing
03:51.2,312,512,768,816,215,3.76,266.09,1.05,20723.87,218,162,164.52,164,27065,161327,983,0.99,-0.1,0.08,-2.18,-1.43,-5.11,-6.34,-81.2,-11.37,-12.62,-3.69,-11.17,-15.36,Standing
03:51.3,1001,519,778.5,1001,229,3.47,288.41,1.12,20723.87,218,177,164.52,164,27065,192656,1160,1,-0.08,0.08,-1.73,5.21,0.75,-5.24,-81.84,-11.52,-12.21,-3.49,-11.27,-15,Standing
03:51.5,788,522,783,1001,217,3.71,269.23,1.06,20723.87,218,160,164.52,164,27065,218256,1320,1.02,-0.1,0.11,-2.11,0.95,-0.43,-6.29,-80.19,-11.72,-12.35,-3.45,-11.5,-15.06,Standing
03:51.6,366,520,780,1001,213,3.8,262.96,1.04,20723.87,218,161,164.52,164,27065,244177,1481,1.02,-0.1,0.1,-2.11,-1.01,-1.41,-6.01,-80.69,-11.91,-12.73,-3.53,-11.68,-15.45,Standing
03:51.7,356,518,777,1001,226,3.53,283.56,1.1,20723.89,219,175,165.77,165,27479,0,0,1,-0.1,0.1,-0.21,2.42,-3.04,-6.39,-80.3,-11.87,-12.68,-3.81,-11.65,-15.38,Standing
03:51.8,626,520,780,1001,220,3.65,273.97,1.08,20723.89,219,167,165.77,165,27479,27889,167,0.99,-0.11,0.09,-1.7,-1.37,0.47,-6.74,-80.36,-12.01,-13.1,-3.65,-11.8,-15.79,Standing
03:52.0,679,522,783,1001,208,3.92,255.21,1.02,20723.89,219,153,165.77,165,27479,51298,320,1.01,-0.09,0.09,-0.27,0.31,-2.66,-5.9,-80.93,-11.98,-13.31,-3.88,-11.73,-16.02,Standing
03:52.1,266,518,777,1001,221,3.63,275.56,1.08,20723.89,219,165,165.77,165,27479,78523,485,1,-0.11,0.1,-2.89,1.18,1.76,-6.7,-80.16,-12.27,-13.42,-3.56,-12.05,-16.09,Standing
03:52.2,481,518,777,1001,225,3.55,281.95,1.1,20723.89,219,169,165.77,165,27479,107084,654,1.01,-0.1,0.08,0.05,2.6,-0.2,-6.47,-80.92,-12.19,-13.34,-3.49,-11.96,-16.04,Standing
03:52.3,821,522,783,1001,211,3.85,259.85,1.03,20723.89,219,154,165.77,165,27479,130800,808,1,-0.11,0.09,-1.43,0.39,0.43,-7.01,-80.16,-12.3,-13.54,-3.33,-12.09,-16.21,Standing
03:52.5,272,519,778.5,1001,216,3.74,267.66,1.06,20723.89,219,161,165.77,165,27479,156721,969,1.02,-0.1,0.07,-2.64,1.92,-0.29,-6.32,-81.58,-12.56,-13.56,-3.27,-12.32,-16.28,Standing
03:52.6,424,518,777,1001,228,3.49,286.79,1.11,20723.89,219,174,165.77,165,27479,186997,1143,1.02,-0.11,0.08,-0.61,1.23,-2.68,-6.61,-81.03,-12.57,-13.65,-3.51,-12.33,-16.35,Standing
03:52.7,999,523,784.5,1001,213,3.8,262.96,1.04,20723.89,219,156,165.77,165,27479,211333,1299,1.01,-0.11,0.07,-3.92,-1.16,-4.45,-6.53,-81.32,-12.99,-14.05,-3.97,-12.74,-16.74,Standing
03:52.8,295,521,781.5,1001,214,3.78,264.52,1.05,20723.89,219,160,165.77,165,27479,236933,1459,0.99,-0.09,0.08,-4.53,4.25,-5.6,-5.93,-81.25,-13.5,-13.76,-4.58,-13.2,-16.46,Standing
03:53.0,400,519,778.5,1001,227,3.51,285.18,1.11,20723.87,218,175,163.57,163,26754,0,0,1,-0.08,0.1,-4.02,2.42,-0.77,-4.91,-81.21,-13.93,-13.71,-4.58,-13.57,-16.41,Standing
03:53.1,737,522,783,1001,217,3.71,269.23,1.06,20723.87,218,155,163.57,163,26754,24025,155,1.01,-0.09,0.1,-1.67,1.66,1.05,-5.87,-80.58,-14.07,-13.76,-4.35,-13.74,-16.43,Standing
03:53.2,543,522,783,1001,208,3.92,255.21,1.02,20723.87,218,149,163.57,163,26754,46226,304,1.01,-0.1,0.09,-1.75,-1.18,-1.82,-6.43,-80.56,-14.22,-14.16,-4.48,-13.9,-16.81,Standing
03:53.4,297,519,778.5,1001,223,3.59,278.75,1.09,20723.87,218,166,163.57,163,26754,73782,470,0.97,-0.09,0.08,-4.1,-0.5,-1.68,-6.12,-81.26,-14.66,-14.47,-4.59,-14.32,-17.14,Standing
03:53.5,883,523,784.5,1001,221,3.63,275.56,1.08,20723.87,218,168,163.57,163,26754,102006,638,0.99,-0.08,0.08,-4.18,2.37,5.99,-5.26,-81.78,-15.12,-14.43,-3.73,-14.72,-17.12,Standing
03:53.6,756,526,789,1001,209,3.89,256.76,1.02,20723.87,218,153,163.57,163,26754,125415,791,1.05,-0.12,0.1,-3.4,0.18,7.24,-7.09,-79.86,-15.48,-14.66,-2.72,-15.14,-17.26,Standing
03:53.7,259,523,784.5,1001,219,3.67,272.39,1.07,20723.87,218,164,163.57,163,26754,152311,955,1.03,-0.15,0.11,-2.87,-1.08,-4.97,-8.84,-78.25,-15.77,-15.04,-3.25,-15.49,-17.57,Standing
03:53.9,478,522,783,1001,223,3.59,278.75,1.09,20723.87,218,168,163.57,163,26754,180535,1123,1,-0.12,0.07,-4.4,-1.41,-6.07,-7.56,-80.42,-16.25,-15.47,-3.91,-15.9,-18.07,Standing
03:54.0,810,525,787.5,1001,209,3.89,256.76,1.02,20723.87,218,154,163.57,163,26754,204251,1277,0.99,-0.12,0.07,-6.42,-2.11,-0.88,-7.35,-80.6,-17,-16,-3.92,-16.61,-18.58,Standing
03:54.1,393,524,786,1001,217,3.71,269.23,1.06,20723.87,218,163,163.57,163,26754,230820,1440,1,-0.11,0.09,-4.03,4.55,-1.56,-6.73,-80.47,-17.43,-15.67,-4.02,-17,-18.27,Standing
03:54.2,476,524,786,1001,224,3.57,280.35,1.09,20723.86,217,168,160.95,160,25903,0,0,1.01,-0.12,0.08,-1.3,1.57,2.27,-7.55,-80.04,-17.53,-15.73,-3.64,-17.13,-18.3,Standing
03:54.4,822,527,790.5,1001,213,3.8,262.96,1.04,20723.86,217,157,160.95,160,25903,24649,157,1.01,-0.12,0.08,-1.95,-1.69,-1.25,-7.4,-80.23,-17.7,-16.19,-3.7,-17.29,-18.75,Standing
03:54.5,326,522,783,1001,212,3.83,261.41,1.04,20723.86,217,160,160.95,160,25903,50249,317,1,-0.13,0.06,-0.63,3.38,-3.28,-7.93,-80.32,-17.71,-16.02,-4.01,-17.32,-18.59,Standing
03:54.6,371,519,778.5,1001,225,3.55,281.95,1.1,20723.86,217,175,160.95,160,25903,80874,492,1,-0.11,0.07,-2.08,-0.3,-3.09,-7.08,-80.68,-17.9,-16.31,-4.3,-17.47,-18.88,Standing
03:54.7,771,524,786,1001,216,3.74,267.66,1.06,20723.86,217,158,160.95,160,25903,105838,650,1,-0.11,0.1,-1.34,3.44,-0.54,-6.87,-80.08,-18,-16.13,-4.27,-17.55,-18.69,Standing
03:54.9,633,527,790.5,1001,210,3.87,258.3,1.03,20723.86,217,159,160.95,160,25903,131119,809,1.01,-0.12,0.09,-2.08,-0.47,-0.15,-7.37,-79.91,-18.19,-16.44,-4.19,-17.76,-18.98,Standing
03:55.0,328,527,790.5,1001,223,3.59,278.75,1.09,20723.86,217,173,160.95,160,25903,161048,982,1.01,-0.12,0.09,-0.95,3.69,-0.27,-7.39,-79.89,-18.24,-16.23,-4.13,-17.8,-18.77,Standing
03:55.1,694,529,793.5,1001,218,3.69,270.81,1.07,20723.86,217,156,160.95,160,25903,185384,1138,1.01,-0.12,0.09,-1.56,1.52,-0.75,-7.18,-80.23,-18.36,-16.29,-4.12,-17.92,-18.84,Standing
03:55.2,517,526,789,1001,208,3.92,255.21,1.02,20723.86,217,149,160.95,160,25903,207585,1287,1,-0.13,0.09,-2.4,-1.09,-2.79,-7.71,-79.64,-18.6,-16.68,-4.37,-18.16,-19.19,Standing
03:55.4,309,522,783,1001,222,3.61,277.15,1.09,20723.86,217,170,160.95,160,25903,236485,1457,0.99,-0.11,0.07,-2.51,1.06,-2.38,-7.07,-80.66,-18.84,-16.79,-4.57,-18.37,-19.35,Standing
03:55.5,616,524,786,1001,217,3.71,269.23,1.06,20723.85,216,166,162.49,162,26403,0,0,1.01,-0.11,0.08,0.57,3.52,-3.08,-6.81,-80.66,-18.7,-16.6,-4.86,-18.23,-19.17,Standing
03:55.6,784,525,787.5,1001,207,3.94,253.68,1.01,20723.85,216,153,162.49,162,26403,23409,153,1.01,-0.11,0.09,-1.32,0.82,-0.01,-7,-80.25,-18.8,-16.75,-4.76,-18.33,-19.29,Standing
03:58.7,696,696,1044,696,218,3.69,270.81,1.07,0,0,167,0,0,0,57473,339,1.01,-0.1,0.12,1.34,5.85,10.21,-5.99,-79.71,0.3,-0.47,2.95,0.05,-3.64,Left Fall while Standing
03:58.8,844,770,1155,844,212,3.83,261.41,1.04,0,0,157,0,0,0,82122,496,1.03,-0.12,0.15,6.16,25.82,-4.49,-7.26,-77.9,1.12,2.44,2.5,0.78,-0.77,Left Fall while Standing
03:59.0,814,784,1176,844,207,3.94,253.68,1.01,0,0,154,0,0,0,105838,650,1,-0.13,0.2,10.69,8.47,-21.95,-7.66,-74.95,2.49,3.23,-0.09,2.09,0.1,Left Fall while Standing
03:59.1,452,701,1051.5,844,208,3.92,255.21,1.02,0,0,151,0,0,0,128639,801,0.95,-0.02,0.15,21.16,8.71,-27.14,-1.87,-79.15,5.16,4.06,-3.33,4.88,0.73,Left Fall while Standing
03:59.2,257,612,918,844,214,3.78,264.52,1.05,0,0,159,0,0,0,153920,960,0.95,0.02,0.23,16.11,22.22,-15.85,0.46,-75.03,7.2,6.52,-5.16,6.93,3.26,Left Fall while Standing
03:59.3,273,556,834,844,219,3.67,272.39,1.07,0,0,162,0,0,0,180164,1122,0.99,0.09,0.28,10.68,22.33,-25.08,4.19,-71.75,8.57,9,-8.13,8.39,5.77,Left Fall while Standing
03:59.5,382,531,796.5,844,225,3.55,281.95,1.1,0,0,171,0,0,0,209405,1293,0.92,0.12,0.29,11.08,8.02,-19.94,6.51,-69.72,9.99,9.74,-10.46,9.85,6.56,Left Fall while Standing
03:59.6,471,523,784.5,844,224,3.57,280.35,1.09,0,0,173,0,0,0,239334,1466,0.95,0.18,0.27,-3.05,2.63,-16.16,9.53,-69.48,9.68,9.82,-12.35,9.68,6.64,Left Fall while Standing
03:59.7,664,539,808.5,844,218,3.69,270.81,1.07,20723.86,216,165,163.26,163,26654,0,0,0.93,0.2,0.3,4.47,-0.61,-20.59,10.79,-67.13,10.3,9.49,-14.79,10.32,6.43,Left Fall while Standing
03:59.8,826,567,850.5,844,208,3.92,255.21,1.02,20723.86,216,153,163.26,163,26654,23409,153,0.9,0.25,0.3,6.57,-1.32,-24.47,13.99,-65.07,11.19,9.08,-17.75,11.3,6.11,Left Fall while Standing
04:00.0,302,543,814.5,844,212,3.83,261.41,1.04,20723.86,216,159,163.26,163,26654,48690,312,0.75,0.3,0.37,5,12.85,-23.19,18.89,-56.16,11.89,10.43,-20.55,12.17,7.77,Left Fall while Standing
04:00.1,397,531,796.5,844,224,3.57,280.35,1.09,20723.86,216,173,163.26,163,26654,78619,485,0.9,0.35,0.3,5.37,11.11,-25.95,19.85,-61.14,12.63,11.57,-23.69,12.92,8.66,Left Fall while Standing
04:00.2,615,537,805.5,844,219,3.67,272.39,1.07,20723.86,216,166,163.26,163,26654,106175,651,0.84,0.41,0.28,5.53,15.98,-26.4,24.01,-58.08,13.39,13.32,-26.9,13.81,10.47,Left Fall while Standing
04:00.3,790,555,832.5,844,207,3.94,253.68,1.01,20723.86,216,153,163.26,163,26654,129584,804,0.81,0.46,0.33,5.26,11.27,-20.02,27.2,-53.44,14.12,14.48,-29.3,14.64,11.76,Left Fall while Standing
04:00.5,250,535,802.5,844,217,3.71,269.23,1.06,20723.86,216,160,163.26,163,26654,155184,964,0.8,0.48,0.33,5.4,7.69,-21.22,28.27,-52.27,14.87,15.2,-31.87,15.4,12.5,Left Fall while Standing
04:00.6,420,528,792,844,227,3.51,285.18,1.11,20723.86,216,173,163.26,163,26654,185113,1137,0.76,0.53,0.32,8.66,3.08,-23.78,32.3,-49.11,16.02,15.33,-34.75,16.67,12.75,Left Fall while Standing
04:00.7,803,544,816,844,215,3.76,266.09,1.05,20723.86,216,158,163.26,163,26654,210077,1295,0.73,0.57,0.3,6.81,1.92,-19.68,35.23,-46.88,16.94,15.32,-37.11,17.67,12.83,Left Fall while Standing
04:00.8,731,554,831,844,209,3.89,256.76,1.02,20723.86,216,153,163.26,163,26654,233486,1448,0.7,0.6,0.31,3.53,6.36,-16,37.35,-44.52,17.45,15.87,-39.01,18.25,13.45,Left Fall while Standing
04:01.0,283,540,810,844,221,3.63,275.56,1.08,20723.85,215,165,161.47,161,26070,0,0,0.68,0.63,0.31,4.21,6.44,-15.8,39.69,-42.46,18.04,16.42,-40.87,18.91,14.06,Left Fall while Standing
04:01.1,447,535,802.5,844,224,3.57,280.35,1.09,20723.85,215,170,161.47,161,26070,28900,170,0.64,0.65,0.32,3.29,7.66,-16.01,41.6,-39.96,18.53,17.13,-42.77,19.45,14.84,Left Fall while Standing
04:01.2,817,549,823.5,844,212,3.83,261.41,1.04,20723.85,215,158,161.47,161,26070,53864,328,0.62,0.69,0.32,3.31,4.51,-12.89,44.06,-37.62,19.01,17.44,-44.29,20.01,15.24,Left Fall while Standing
04:01.3,439,544,816,844,209,3.89,256.76,1.02,20723.85,215,157,161.47,161,26070,78513,485,0.58,0.7,0.31,2.02,4,-9.94,46.33,-35.63,19.33,17.69,-45.43,20.41,15.56,Left Fall while Standing
04:01.5,370,536,804,844,220,3.65,273.97,1.08,20723.85,215,164,161.47,161,26070,105409,649,0.58,0.71,0.32,-0.71,3.65,-4.16,46.26,-35.35,19.31,17.9,-45.85,20.39,15.77,Left Fall while Standing
04:01.6,484,534,801,844,223,3.59,278.75,1.09,20723.85,215,167,161.47,161,26070,133298,816,0.61,0.71,0.32,4.78,0.97,-10.85,45.22,-36.61,19.98,17.77,-47.11,20.99,15.59,Left Fall while Standing
04:01.7,835,546,819,844,211,3.85,259.85,1.03,20723.85,215,156,161.47,161,26070,157634,972,0.56,0.73,0.31,5.95,4.82,-19.27,48.29,-33.66,20.79,18.12,-49.42,21.89,16.05,Left Fall while Standing
04:01.8,311,537,805.5,844,212,3.83,261.41,1.04,20723.85,215,159,161.47,161,26070,182915,1131,0.5,0.77,0.26,11.02,-1.44,-11.48,53.24,-30.13,22.25,17.69,-50.77,23.49,15.77,Left Fall while Standing
04:02.0,359,530,795,844,225,3.55,281.95,1.1,20723.85,215,174,161.47,161,26070,213191,1305,0.51,0.77,0.24,12.28,6.73,-11.93,53.17,-30.75,23.86,18.28,-52.16,25.03,16.32,Left Fall while Standing
04:02.1,714,537,805.5,844,217,3.71,269.23,1.06,20723.85,215,161,161.47,161,26070,239112,1466,0.5,0.81,0.21,1.84,4.42,-9.45,55.35,-29.53,24.16,18.58,-53.25,25.41,16.66,Left Fall while Standing
04:02.2,918,550,825,918,208,3.92,255.21,1.02,20723.85,216,152,161.93,161,26220,0,0,0.48,0.8,0.25,0.98,2.36,-7.79,55.58,-28.06,24.35,18.63,-54.12,25.6,16.76,Left Fall while Standing
04:02.3,267,541,811.5,918,214,3.78,264.52,1.05,20723.85,216,157,161.93,161,26220,24649,157,0.44,0.81,0.27,4.11,1.21,-8.62,57.23,-25.52,24.93,18.53,-55.09,26.22,16.77,Left Fall while Standing
04:02.5,370,535,802.5,918,224,3.57,280.35,1.09,20723.85,216,171,161.93,161,26220,53890,328,0.44,0.83,0.22,0.01,-0.5,-3.63,58.76,-25.44,25,18.22,-55.44,26.35,16.47,Left Fall while Standing
04:02.6,705,540,810,918,217,3.71,269.23,1.06,20723.85,216,162,161.93,161,26220,80134,490,0.45,0.84,0.23,2.52,-1.65,-6.82,58.16,-26.05,25.38,17.76,-56.19,26.7,16.01,Left Fall while Standing
04:02.7,776,547,820.5,918,206,3.97,252.14,1.01,20723.85,216,147,161.93,161,26220,101743,637,0.43,0.83,0.21,1.1,2.63,-11.53,59.27,-25.25,25.59,17.84,-57.54,26.94,16.12,Left Fall while Standing
04:02.8,397,543,814.5,918,215,3.76,266.09,1.05,20723.85,216,158,161.93,161,26220,126707,795,0.41,0.85,0.19,0.07,-1.25,-8.85,61.59,-23.4,25.67,17.44,-58.55,27.11,15.8,Left Fall while Standing
04:03.0,410,539,808.5,918,225,3.55,281.95,1.1,20723.85,216,164,161.93,161,26220,153603,959,0.39,0.86,0.21,-1.11,-1.63,-8.51,62.17,-22.34,25.6,16.98,-59.52,27.07,15.41,Left Fall while Standing
04:03.1,808,547,820.5,918,212,3.83,261.41,1.04,20723.85,216,143,161.93,161,26220,174052,1102,0.4,0.88,0.2,-0.4,-0.11,-4.69,62.37,-22.52,25.62,16.72,-60.01,27.09,15.15,Left Fall while Standing
04:03.2,420,543,814.5,918,208,3.92,255.21,1.02,20723.85,216,143,161.93,161,26220,194501,1245,0.1,0.87,0.4,7.77,-6.44,-5.8,64.15,-4.64,26.67,15.66,-60.64,28.17,14.84,Left Fall while Standing
04:03.3,269,536,804,918,217,3.71,269.23,1.06,20723.85,216,148,161.93,161,26220,216405,1393,0.32,0.87,0.15,-1.08,3.09,-7.05,67.05,-18.55,26.61,15.79,-61.42,28.23,14.42,Left Fall while Standing
04:03.5,486,535,802.5,918,218,3.69,270.81,1.07,20723.84,215,158,155.36,155,24135,0,0,0.36,0.88,0.2,-1.37,1.5,-8.37,64.42,-20.07,26.51,15.73,-62.36,28.02,14.3,Left Fall while Standing
04:03.6,999,546,819,999,210,3.87,258.3,1.03,20723.84,215,146,155.36,155,24135,21316,146,0.32,0.89,0.19,-0.31,0.74,-4.02,66.77,-17.95,26.54,15.57,-62.76,28.15,14.23,Left Fall while Standing
04:03.7,380,542,813,999,210,3.87,258.3,1.03,20723.84,215,161,155.36,155,24135,47237,307,0.34,0.88,0.18,-3.23,-0.3,3.38,65.99,-18.81,26.21,15.28,-62.24,27.8,13.92,Left Fall while Standing
04:03.8,294,536,804,999,221,3.63,275.56,1.08,20723.84,215,169,155.36,155,24135,75798,476,0.36,0.88,0.19,-1.62,-1.6,3.79,64.54,-20.33,26.07,14.84,-61.67,27.61,13.43,Left Fall while Standing
04:04.0,496,535,802.5,999,222,3.61,277.15,1.09,20723.84,215,170,155.36,155,24135,104698,646,0.37,0.87,0.15,-3.27,-0.98,3.3,64.64,-21.25,25.73,14.46,-61.15,27.29,13.03,Left Fall while Standing
04:04.1,831,542,813,999,210,3.87,258.3,1.03,20723.84,215,155,155.36,155,24135,128723,801,0.38,0.87,0.17,-3.24,-2.48,6.51,63.91,-21.44,25.4,13.9,-60.24,26.94,12.49,Left Fall while Standing
04:04.2,511,541,811.5,999,213,3.8,262.96,1.04,20723.84,215,164,155.36,155,24135,155619,965,0.41,0.86,0.18,-0.46,-4.45,6.63,61.97,-23.31,25.41,13.09,-59.31,26.87,11.64,Left Fall while Standing
04:04.3,350,537,805.5,999,224,3.57,280.35,1.09,20723.84,215,177,155.36,155,24135,186948,1142,0.43,0.86,0.19,-1.34,-1.73,3.64,60.94,-24.28,25.31,12.63,-58.76,26.74,11.15,Left Fall while Standing
04:04.5,676,540,810,999,218,3.69,270.81,1.07,20723.84,215,169,155.36,155,24135,215509,1311,0.42,0.86,0.15,-0.4,-3.36,0.24,62.01,-24.06,25.33,11.96,-58.63,26.8,10.52,Left Fall while Standing
04:04.6,704,544,816,999,208,3.92,255.21,1.02,20723.84,215,156,155.36,155,24135,239845,1467,0.43,0.85,0.19,-1.7,-1.03,2.09,60.35,-24.72,25.19,11.58,-58.27,26.6,10.13,Left Fall while Standing
04:04.7,251,538,807,999,219,3.67,272.39,1.07,20723.84,215,166,163.52,163,26739,0,0,0.43,0.86,0.15,-2.03,-0.16,0.13,61.61,-24.47,25.01,11.31,-58.16,26.47,9.88,Left Fall while Standing
04:04.8,378,534,801,999,227,3.51,285.18,1.11,20723.84,215,178,163.52,163,26739,31684,178,0.45,0.85,0.16,-1.93,0.84,0.44,60.18,-25.79,24.84,11.16,-58.01,26.25,9.69,Left Fall while Standing
04:05.0,997,543,814.5,999,219,3.67,272.39,1.07,20723.84,215,168,163.52,163,26739,59908,346,0.42,0.85,0.15,-2.41,0.74,0.59,61.46,-24.6,24.61,11.01,-57.83,26.08,9.58,Left Fall while Standing
04:05.1,797,548,822,999,208,3.92,255.21,1.02,20723.84,215,162,163.52,163,26739,86152,508,0.43,0.85,0.15,-2.38,-0.27,3.96,61.12,-24.91,24.38,10.73,-57.24,25.85,9.3,Left Fall while Standing
04:05.2,263,543,814.5,999,216,3.74,267.66,1.06,20723.84,215,165,163.52,163,26739,113377,673,0.48,0.85,0.14,-2.25,-2.93,5.2,59.05,-27.34,24.17,10.11,-56.5,25.56,8.61,Left Fall while Standing
04:05.3,382,540,810,999,227,3.51,285.18,1.11,20723.84,215,180,163.52,163,26739,145777,853,0.47,0.85,0.16,-3.57,1.42,-0.42,58.97,-27.05,23.79,10.04,-56.45,25.2,8.55,Left Fall while Standing
04:05.5,722,543,814.5,999,218,3.69,270.81,1.07,20723.84,215,159,163.52,163,26739,171058,1012,0.46,0.83,0.17,-2.98,-0.45,-0.55,59.11,-26.62,23.49,9.73,-56.42,24.91,8.27,Left Fall while Standing
04:05.6,898,550,825,999,209,3.89,256.76,1.02,20723.84,215,166,163.52,163,26739,198614,1178,0.47,0.83,0.17,-2.44,0.37,1.63,58.7,-27.13,23.25,9.52,-56.12,24.67,8.06,Left Fall while Standing
04:05.7,253,544,816,999,219,3.67,272.39,1.07,20723.84,215,169,163.52,163,26739,227175,1347,0.49,0.83,0.16,-0.97,-1.21,0.81,57.99,-28.16,23.2,9.12,-55.92,24.59,7.63,Left Fall while Standing
04:05.8,425,542,813,999,228,3.49,286.79,1.11,20723.84,215,182,163.52,163,26739,194763,1529,0.48,0.84,0.16,-1.05,0.87,-2.65,58.21,-27.93,23.14,8.98,-56.15,24.54,7.51,Left Fall while Standing
04:06.0,785,546,819,999,216,3.74,267.66,1.06,20723.88,218,182,127.42,171,16234,0,0,0.47,0.83,0.15,-1.11,1.42,-3.85,58.87,-27.33,23.07,8.91,-56.53,24.51,7.46,Left Fall while Standing
04:06.1,764,550,825,999,208,3.92,255.21,1.02,20723.88,218,179,127.42,171,16234,32041,179,0.46,0.83,0.14,-2.17,-0.31,0.31,59.45,-27.05,22.87,8.62,-56.39,24.34,7.2,Left Fall while Standing
04:06.2,267,545,817.5,999,216,3.74,267.66,1.06,20723.88,218,171,127.42,171,16234,61282,350,0.48,0.85,0.14,-1.48,0.24,0.4,58.94,-27.54,22.76,8.4,-56.24,24.21,6.97,Left Fall while Standing
04:06.3,375,543,814.5,999,226,3.53,283.56,1.1,20723.88,218,184,127.42,171,16234,29602,534,0.47,0.84,0.15,-1.34,-1.77,-0.98,58.97,-27.39,22.66,7.94,-56.27,24.11,6.52,Left Fall while Standing
04:06.5,670,545,817.5,999,218,3.69,270.81,1.07,20723.88,218,178,127.42,171,16234,61286,712,0.46,0.85,0.13,-4.13,-2.79,7.63,60.12,-26.54,22.22,7.34,-55.21,23.73,5.98,Left Fall while Standing
04:06.6,788,548,822,999,208,3.92,255.21,1.02,20723.88,218,182,127.42,171,16234,28874,894,0.49,0.83,0.15,-9.89,-6.91,33.34,57.57,-28.69,21.05,6.22,-50.95,22.51,4.83,Left Fall while Standing
04:06.7,258,544,816,999,216,3.74,267.66,1.06,20723.88,218,170,127.42,171,16234,57774,1064,0.61,0.77,0.14,1.97,-17.57,27.79,50.34,-36.38,21.37,3.78,-47.37,22.52,2.17,Left Fall while Standing
04:06.8,388,542,813,999,226,3.53,283.56,1.1,20723.88,218,187,127.42,171,16234,27207,1251,0.65,0.74,0.08,2.65,-7.07,11.11,47.71,-39.72,21.77,2.64,-45.89,22.8,0.95,Left Fall while Standing
04:07.0,1001,548,822,1001,218,3.69,270.81,1.07,20723.88,218,157,127.42,171,16234,51856,1408,0.65,0.72,0.1,0.18,-3.92,6.52,46.93,-40.34,21.86,1.9,-44.97,22.86,0.21,Left Fall while Standing
04:07.1,741,551,826.5,1001,207,3.94,253.68,1.01,20723.88,218,185,127.42,171,16234,20545,1593,0.67,0.72,0.09,-1.21,-6.78,5.14,46.36,-41.01,21.78,0.81,-44.23,22.76,-0.87,Left Fall while Standing
04:07.2,253,547,820.5,1001,216,3.74,267.66,1.06,20723.85,215,174,71.29,176,5081,0,0,0.66,0.71,0.08,-4.31,-1.76,8.16,46.17,-41.28,21.31,0.34,-43.12,22.31,-1.32,Left Fall while Standing
04:07.3,362,544,816,1001,224,3.57,280.35,1.09,20723.85,215,187,71.29,176,5081,4294936729,187,0.69,0.7,0.05,-8.63,-1.25,21.98,44.5,-43.2,20.3,-0.07,-40.28,21.27,-1.79,Left Fall while Standing
04:07.5,749,547,820.5,1001,215,3.76,266.09,1.05,20723.85,215,194,71.29,176,5081,4294908829,381,0.75,0.64,0.09,-9.11,0.31,29.76,39.49,-47.87,19.23,-0.28,-36.43,20.04,-2.18,Left Fall while Standing
04:07.6,511,547,820.5,1001,208,3.92,255.21,1.02,20723.85,215,158,71.29,176,5081,4294933793,539,0.8,0.6,0.1,-9.42,0.14,19.53,36.01,-51.29,18.11,-0.51,-33.87,18.83,-2.54,Left Fall while Standing
04:07.7,285,543,814.5,1001,221,3.63,275.56,1.08,20723.85,215,174,71.29,176,5081,4294964069,713,0.8,0.57,0.11,-10.69,2.79,19.65,34.27,-52.78,16.84,-0.42,-31.31,17.54,-2.51,Left Fall while Standing
04:07.8,530,543,814.5,1001,221,3.63,275.56,1.08,20723.85,215,177,71.29,176,5081,28102,890,0.83,0.51,0.13,-13.63,-0.44,27.69,30.7,-56,15.22,-0.72,-27.78,15.84,-2.93,Left Fall while Standing
04:08.0,825,547,820.5,1001,209,3.89,256.76,1.02,20723.85,215,186,71.29,176,5081,4294964458,1076,0.86,0.44,0.19,-12.01,4.37,24.16,25.91,-59.43,13.77,-0.42,-24.61,14.25,-2.78,Left Fall while Standing
04:08.1,253,543,814.5,1001,215,3.76,266.09,1.05,20723.85,215,170,71.29,176,5081,26062,1246,0.91,0.41,0.15,-9.72,0.39,17.1,23.26,-62.84,12.62,-0.62,-22.38,13.05,-3.11,Left Fall while Standing
04:08.2,398,541,811.5,1001,225,3.55,281.95,1.1,20723.85,215,175,71.29,176,5081,56687,1421,0.92,0.37,0.14,-3.51,-2.73,10.61,20.92,-65.26,12.26,-1.21,-20.95,12.6,-3.77,Left Fall while Standing
04:08.3,1000,547,820.5,1001,213,3.8,262.96,1.04,20723.85,215,179,71.29,176,5081,88728,1600,0.9,0.35,0.14,-5.95,-1.61,10.92,20.27,-65.94,11.58,-1.66,-19.49,11.93,-4.23,Left Fall while Standing
04:08.5,546,547,820.5,1001,206,3.97,252.14,1.01,20723.85,215,165,107.68,176,11594,0,0,0.94,0.33,0.14,-9.69,0.62,12.58,18.6,-67.61,10.44,-1.83,-17.81,10.77,-4.46,Left Fall while Standing
04:08.6,246,543,814.5,1001,216,3.74,267.66,1.06,20723.85,215,165,107.68,176,11594,27225,165,0.94,0.3,0.14,-4.4,-2.81,10.29,16.75,-69.14,9.96,-2.43,-16.43,10.23,-5.1,Left Fall while Standing
04:08.7,430,542,813,1001,224,3.57,280.35,1.09,20723.85,215,170,107.68,176,11594,56125,335,0.93,0.27,0.14,-9.18,-0.29,19.26,15.27,-70.51,8.88,-2.72,-13.92,9.14,-5.43,Left Fall while Standing
04:08.8,810,545,817.5,1001,211,3.85,259.85,1.03,20723.85,215,167,107.68,176,11594,84014,502,0.96,0.21,0.15,-10.26,-1.56,20.88,11.65,-73.39,7.67,-3.17,-11.22,7.83,-5.98,Left Fall while Standing
04:09.0,499,544,816,1001,206,3.97,252.14,1.01,20723.85,215,157,107.68,176,11594,108663,659,0.98,0.18,0.18,-8.92,-6.27,18.66,9.96,-73.74,6.62,-4.2,-8.78,6.76,-6.98,Left Fall while Standing
04:09.1,254,541,811.5,1001,216,3.74,267.66,1.06,20723.85,215,156,107.68,176,11594,132999,815,0.99,0.12,0.11,-9.56,-0.67,22.34,6.21,-79.22,5.5,-4.53,-5.89,5.53,-7.52,Left Fall while Standing
04:09.2,452,540,810,1001,220,3.65,273.97,1.08,20723.85,215,156,107.68,176,11594,157335,971,1,0.06,0.12,-26.37,-6.09,26.17,2.7,-80.89,2.27,-5.55,-2.52,2.29,-8.56,Left Fall while Standing
04:09.3,841,543,814.5,1001,207,3.94,253.68,1.01,20723.85,215,141,107.68,176,11594,177216,1112,1.05,-0.02,0.14,-12.56,8.98,9.49,-1.41,-80.9,0.77,-4.67,-1.24,0.69,-7.72,Left Fall while Standing
04:09.5,388,541,811.5,1001,204,4.01,249.08,1,20723.85,215,148,107.68,176,11594,199120,1260,0.97,0,0.13,-8.69,14.44,-8.32,-0.65,-80.61,-0.25,-3.1,-2.19,-0.27,-6.2,Left Fall while Standing
04:09.6,312,539,808.5,1001,218,3.69,270.81,1.07,20723.85,215,165,107.68,176,11594,226345,1425,0.97,-0.02,0.19,-24.87,0.47,18.94,-1.88,-77.2,-3.27,-3.3,0.26,-3.21,-6.25,Left Fall while Standing
04:09.7,1001,544,816,1001,215,3.76,266.09,1.05,20723.83,213,159,158.63,158,25161,0,0,0.98,-0.11,0.17,-12.63,-18.6,31.19,-7.06,-76.46,-4.77,-5.87,4.26,-4.87,-8.69,Left Fall while Standing
04:09.8,827,547,820.5,1001,205,3.99,250.61,1,20723.83,213,144,158.63,158,25161,20736,144,1.01,-0.15,0.11,1.61,0.67,11.91,-8.67,-78.17,-4.5,-6.04,5.84,-4.67,-8.92,Left Fall while Standing
04:10.0,267,544,816,1001,211,3.85,259.85,1.03,20723.83,213,155,158.63,158,25161,44761,299,0.97,-0.14,0.07,0.62,1.77,1.3,-8.66,-79.45,-4.36,-6.06,6.11,-4.53,-9,Left Fall while Standing
04:10.1,338,542,813,1001,221,3.63,275.56,1.08,20723.83,213,171,158.63,158,25161,74002,470,0.99,-0.17,0.09,-13.54,-2.11,14.19,-10.46,-77.15,-5.98,-6.58,7.98,-6.16,-9.4,Left Fall while Standing
04:10.2,708,544,816,1001,213,3.8,262.96,1.04,20723.83,213,157,158.63,158,25161,98651,627,1,-0.2,0.11,-7.9,1.39,5.06,-11.82,-75.69,-6.9,-6.65,8.71,-7.09,-9.42,Left Fall while Standing
04:10.3,779,546,819,1001,204,4.01,249.08,1,20723.83,213,145,158.63,158,25161,119676,772,1,-0.22,0.1,-7.5,8.01,-2.69,-12.98,-74.85,-7.76,-5.9,8.47,-7.97,-8.66,Left Fall while Standing
04:10.5,241,543,814.5,1001,214,3.78,264.52,1.05,20723.83,213,161,158.63,158,25161,145597,933,0.98,-0.21,0.07,2.43,14.41,-2.75,-12.57,-75.72,-7.39,-4.34,8.23,-7.59,-7.2,Left Fall while Standing
04:10.6,438,542,813,1001,224,3.57,280.35,1.09,20723.83,213,172,158.63,158,25161,175181,1105,1.02,-0.23,0.18,-4.03,7.18,3.21,-13.19,-72.42,-7.82,-3.69,8.72,-8.04,-6.44,Left Fall while Standing
04:10.7,834,545,817.5,1001,211,3.85,259.85,1.03,20723.83,213,150,158.63,158,25161,197681,1255,1.02,-0.21,0.16,-0.02,-5.69,-4.72,-12.28,-73.62,-7.75,-4.66,8.23,-7.93,-7.42,Left Fall while Standing
04:10.8,344,543,814.5,1001,210,3.87,258.3,1.03,20723.83,213,161,158.63,158,25161,223602,1416,0.96,-0.19,0.14,1.43,0.93,-9.08,-11.89,-74.32,-7.5,-4.79,7.19,-7.68,-7.58,Left Fall while Standing
04:11.0,319,540,810,1001,222,3.61,277.15,1.09,20723.82,213,173,159.23,158,25352,0,0,0.96,-0.18,0.14,-2.02,3.28,-1.39,-11.3,-75.06,-7.69,-4.64,7.12,-7.83,-7.45,Left Fall while Standing
04:11.1,1000,545,817.5,1001,221,3.63,275.56,1.08,20723.82,213,169,159.23,158,25352,28561,169,0.99,-0.17,0.15,-1.56,5.02,2.63,-10.27,-75.51,-7.81,-4.25,7.55,-7.91,-7.1,Left Fall while Standing
04:11.2,844,547,820.5,1001,209,3.89,256.76,1.02,20723.82,213,161,159.23,158,25352,54482,330,0.99,-0.21,0.18,-1.6,0.09,1,-12.13,-73.01,-7.94,-4.49,7.77,-8.11,-7.23,Left Fall while Standing
04:11.3,298,541,811.5,1001,213,3.8,262.96,1.04,20723.82,213,173,159.23,158,25352,84411,503,0.98,-0.21,0.16,-1.25,-2.3,-1.92,-12.41,-73.48,-8.03,-5.03,7.63,-8.2,-7.77,Left Fall while Standing
04:11.5,348,536,804,1001,224,3.57,280.35,1.09,20723.82,213,177,159.23,158,25352,115740,680,0.98,-0.2,0.18,0.15,2.74,-2.62,-11.75,-73.35,-7.94,-4.94,7.41,-8.09,-7.67,Left Fall while Standing
04:11.6,684,539,808.5,1001,216,3.74,267.66,1.06,20723.82,213,167,159.23,158,25352,143629,847,0.97,-0.2,0.15,-1.52,-1.27,0.75,-12.37,-73.73,-8.06,-5.35,7.6,-8.23,-8.09,Left Fall while Standing
04:11.7,744,544,816,1001,204,4.01,249.08,1,20723.82,213,150,159.23,158,25352,166129,997,0.97,-0.2,0.16,-0.82,1.9,0.51,-12.02,-73.56,-8.09,-5.36,7.76,-8.25,-8.09,Left Fall while Standing
04:11.8,241,543,814.5,1001,214,3.78,264.52,1.05,20723.82,213,166,159.23,158,25352,193685,1163,0.97,-0.2,0.17,1.05,1.57,0.72,-11.87,-73.31,-7.89,-5.42,7.95,-8.05,-8.13,Left Fall while Standing
04:12.0,431,544,816,1001,221,3.63,275.56,1.08,20723.82,213,175,159.23,158,25352,224310,1338,0.98,-0.21,0.16,-2.92,-2.85,3.89,-12.59,-73.32,-8.19,-6.03,8.54,-8.37,-8.72,Left Fall while Standing
04:12.1,828,547,820.5,828,207,3.94,253.68,1.01,20723.82,213,153,159.23,158,25352,247719,1491,0.98,-0.23,0.15,-0.21,-0.31,0.33,-13.69,-72.66,-8.15,-6.32,8.68,-8.37,-8.97,Left Fall while Standing
04:12.2,389,545,817.5,828,204,4.01,249.08,1,20723.82,213,160,165.32,165,27330,0,0,0.97,-0.22,0.16,1.17,-0.77,-2.28,-13.26,-72.8,-7.93,-6.66,8.5,-8.15,-9.31,Left Fall while Standing
04:12.3,261,539,808.5,828,212,3.83,261.41,1.04,20723.82,213,166,165.32,165,27330,27556,166,0.98,-0.22,0.14,-3.63,-4.37,0.69,-13.13,-73.54,-8.32,-7.46,8.68,-8.51,-10.1,Left Fall while Standing
04:12.5,1000,546,819,1000,216,3.74,267.66,1.06,20723.82,213,169,165.32,165,27330,56117,335,0.97,-0.22,0.13,-1.21,1.6,-2.06,-13.41,-73.63,-8.4,-7.51,8.52,-8.6,-10.15,Left Fall while Standing
04:15.4,491,491,736.5,491,205,3.99,250.61,1,0,0,150,0,0,0,44404,298,0.99,-0.17,0.18,-0.38,-8.78,7.36,-10.11,-74.29,0.12,-1.75,1.92,-0.29,-4.65,Right Fall while Standing
04:15.5,267,379,568.5,491,211,3.85,259.85,1.03,0,0,157,0,0,0,69053,455,0.99,-0.18,0.12,-5.72,-7.78,3.39,-10.99,-76.08,-0.51,-2.94,2.43,-0.93,-5.87,Right Fall while Standing
04:15.7,753,503,754.5,753,217,3.71,269.23,1.06,0,0,159,0,0,0,94334,614,0.98,-0.2,0.09,-4.75,-4.6,3.69,-11.99,-75.8,-1.03,-3.75,2.98,-1.47,-6.63,Right Fall while Standing
04:15.8,377,472,708,753,222,3.61,277.15,1.09,0,0,170,0,0,0,123234,784,0.98,-0.21,0.1,-8.44,-4.17,6.08,-12.48,-75.24,-2,-4.51,3.83,-2.42,-7.34,Right Fall while Standing
04:15.9,494,476,714,753,218,3.69,270.81,1.07,0,0,163,0,0,0,149803,947,0.99,-0.21,0.1,-2.32,-1.7,8.76,-12.63,-75.19,-2.22,-4.97,5,-2.63,-7.78,Right Fall while Standing
04:16.0,799,530,795,799,211,3.85,259.85,1.03,0,0,154,0,0,0,173519,1101,0.98,-0.25,0.08,-8.85,-5.79,7.53,-14.98,-73.37,-3.23,-5.92,6.03,-3.7,-8.62,Right Fall while Standing
04:16.2,804,569,853.5,804,204,4.01,249.08,1,0,0,149,0,0,0,195720,1250,1,-0.25,0.05,-2.02,0.92,5.14,-14.73,-73.97,-3.41,-6.06,6.75,-3.87,-8.77,Right Fall while Standing
04:16.3,274,532,798,804,205,3.99,250.61,1,0,0,147,0,0,0,217329,1397,1.02,-0.28,0.07,-4.38,19.98,8.99,-16.09,-72.42,-3.88,-3.84,7.95,-4.37,-6.59,Right Fall while Standing
04:16.4,240,499,748.5,804,213,3.8,262.96,1.04,20723.8,211,157,155.55,155,24196,0,0,0.98,-0.29,0.07,-4.54,0.78,6.93,-17.11,-71.39,-4.38,-4,8.91,-4.89,-6.69,Right Fall while Standing
04:16.5,371,487,730.5,804,221,3.63,275.56,1.08,20723.8,211,170,155.55,155,24196,28900,170,0.97,-0.31,0.06,-4.27,3.27,5.4,-18.37,-70.24,-4.84,-3.84,9.68,-5.38,-6.49,Right Fall while Standing
04:16.7,690,505,757.5,804,214,3.78,264.52,1.05,20723.8,211,160,155.55,155,24196,54500,330,0.98,-0.31,0.08,-3.93,8.29,5.31,-17.85,-70.51,-5.26,-3.05,10.44,-5.76,-5.75,Right Fall while Standing
04:16.8,782,528,792,804,203,4.04,247.56,0.99,20723.8,211,145,155.55,155,24196,75525,475,0.97,-0.34,0.08,-5.78,2.04,7.29,-19.71,-68.67,-5.91,-3.05,11.45,-6.46,-5.67,Right Fall while Standing
04:16.9,367,516,774,804,212,3.83,261.41,1.04,20723.8,211,155,155.55,155,24196,99550,630,0.93,-0.36,0.09,-3.59,-2.63,6.28,-21.46,-66.83,-6.29,-3.63,12.34,-6.9,-6.15,Right Fall while Standing
04:17.0,405,508,762,804,223,3.59,278.75,1.09,20723.8,211,167,155.55,155,24196,127439,797,0.92,-0.37,0.1,0.27,-0.32,12.17,-22.21,-65.96,-6.18,-3.92,13.97,-6.83,-6.4,Right Fall while Standing
04:17.2,809,528,792,809,210,3.87,258.3,1.03,20723.8,211,147,155.55,155,24196,149048,944,0.93,-0.39,0.09,3.49,3,17.39,-22.91,-65.48,-5.68,-3.79,16.24,-6.37,-6.26,Right Fall while Standing
04:17.3,493,526,789,809,203,4.04,247.56,0.99,20723.8,211,148,155.55,155,24196,170952,1092,0.91,-0.45,0.09,2.04,6.98,17.47,-26.65,-61.8,-5.35,-3.17,18.52,-6.21,-5.52,Right Fall while Standing
04:17.4,268,510,765,809,216,3.74,267.66,1.06,20723.8,211,159,155.55,155,24196,196233,1251,0.87,-0.48,0.13,1.62,-0.95,13.56,-28.99,-58.94,-5.08,-3.54,20.33,-6.04,-5.76,Right Fall while Standing
04:17.5,471,508,762,809,217,3.71,269.23,1.06,20723.8,211,163,155.55,155,24196,222802,1414,0.94,-0.49,0.06,3.55,2.11,13.37,-28.05,-60.75,-4.57,-3.53,22.1,-5.51,-5.82,Right Fall while Standing
04:17.7,838,525,787.5,838,206,3.97,252.14,1.01,20723.81,212,151,156.72,156,24559,0,0,0.87,-0.53,0.13,4.24,5.21,14.07,-31.92,-55.98,-3.98,-3.13,23.93,-5.09,-5.25,Right Fall while Standing
04:17.8,338,516,774,838,208,3.92,255.21,1.02,20723.81,212,158,156.72,156,24559,24964,158,0.84,-0.55,0.12,-0.15,-5.4,13.99,-33.62,-54.56,-3.92,-4.06,25.78,-5.11,-6.08,Right Fall while Standing
04:17.9,320,507,760.5,838,221,3.63,275.56,1.08,20723.81,212,168,156.72,156,24559,53188,326,0.83,-0.57,0.11,-4.53,-4.6,17.95,-35.06,-53.23,-4.43,-4.89,28.14,-5.65,-6.82,Right Fall while Standing
04:18.0,619,512,768,838,216,3.74,267.66,1.06,20723.81,212,162,156.72,156,24559,79432,488,0.81,-0.62,0.17,0.58,-7.14,19.4,-37.3,-50.01,-4.28,-6.03,30.66,-5.6,-7.79,Right Fall while Standing
04:18.2,814,525,787.5,838,204,4.01,249.08,1,20723.81,212,149,156.72,156,24559,101633,637,0.79,-0.65,0.09,-3.76,-6.77,8.02,-39.84,-48.68,-4.68,-7.13,31.76,-6.09,-8.79,Right Fall while Standing
04:18.3,366,518,777,838,212,3.83,261.41,1.04,20723.81,212,159,156.72,156,24559,126914,796,0.79,-0.66,0.06,-2.11,-2.79,5.44,-40.5,-48.33,-4.88,-7.73,32.55,-6.3,-9.36,Right Fall while Standing
04:18.4,416,514,771,838,224,3.57,280.35,1.09,20723.81,212,173,156.72,156,24559,156843,969,0.78,-0.66,0.04,-4.93,-0.88,7.95,-40.84,-48.05,-5.42,-8.09,33.64,-6.84,-9.69,Right Fall while Standing
04:18.5,813,526,789,838,211,3.85,259.85,1.03,20723.81,212,159,156.72,156,24559,182124,1128,0.75,-0.68,0.06,0.07,4.44,13.79,-42.36,-46.44,-5.34,-7.78,35.48,-6.83,-9.33,Right Fall while Standing
04:18.7,453,523,784.5,838,205,3.99,250.61,1,20723.81,212,152,156.72,156,24559,205228,1280,0.74,-0.71,0.06,-0.06,5.93,15.29,-44.43,-44.35,-5.28,-7.29,37.49,-6.85,-8.77,Right Fall while Standing
04:18.8,284,514,771,838,218,3.69,270.81,1.07,20723.81,212,161,156.72,156,24559,231149,1441,0.72,-0.74,0.06,-5.82,0.63,11.83,-46.46,-42.33,-5.95,-7.47,39.08,-7.57,-8.86,Right Fall while Standing
04:18.9,520,515,772.5,838,218,3.69,270.81,1.07,20723.83,213,164,160.64,160,25803,0,0,0.7,-0.76,0.08,-6.02,-1.73,6.77,-47.65,-41.04,-6.62,-7.93,40.02,-8.26,-9.25,Right Fall while Standing
04:19.0,845,526,789,845,208,3.92,255.21,1.02,20723.83,213,157,160.64,160,25803,24649,157,0.68,-0.76,0.08,0.56,0.08,2.73,-48.75,-39.87,-6.48,-8.17,40.46,-8.17,-9.44,Right Fall while Standing
04:19.2,331,519,778.5,845,209,3.89,256.76,1.02,20723.83,213,158,160.64,160,25803,49613,315,0.68,-0.76,0.05,-0.15,0.15,4.86,-48.95,-39.91,-6.43,-8.4,41.16,-8.13,-9.66,Right Fall while Standing
04:19.3,310,513,769.5,845,221,3.63,275.56,1.08,20723.83,213,170,160.64,160,25803,78513,485,0.68,-0.77,0.06,-0.62,0.53,0.48,-49.17,-39.66,-6.44,-8.58,41.32,-8.15,-9.83,Right Fall while Standing
04:19.4,543,514,771,845,217,3.71,269.23,1.06,20723.83,213,166,160.64,160,25803,106069,651,0.65,-0.77,0.06,0.53,3.15,3.47,-50.35,-38.46,-6.3,-8.44,41.85,-8.06,-9.64,Right Fall while Standing
04:19.5,835,523,784.5,845,205,3.99,250.61,1,20723.83,213,156,160.64,160,25803,130405,807,0.66,-0.78,0.06,-1.92,3.44,5.48,-50.45,-38.34,-6.47,-8.26,42.63,-8.23,-9.46,Right Fall while Standing
04:19.7,431,520,780,845,210,3.87,258.3,1.03,20723.83,213,158,160.64,160,25803,155369,965,0.66,-0.8,0.08,-0.24,3.79,2.73,-51.08,-37.56,-6.43,-8.04,43.07,-8.22,-9.22,Right Fall while Standing
04:19.8,372,516,774,845,223,3.59,278.75,1.09,20723.83,213,172,160.64,160,25803,184953,1137,0.65,-0.78,0.13,-2.49,-1.4,-6.61,-50.49,-37.61,-6.67,-8.46,42.34,-8.43,-9.63,Right Fall while Standing
04:19.9,777,523,784.5,845,212,3.83,261.41,1.04,20723.83,213,157,160.64,160,25803,209602,1294,0.66,-0.78,0.08,-1.63,2.89,-3.5,-50,-38.64,-6.81,-8.35,42,-8.54,-9.56,Right Fall while Standing
04:20.0,517,523,784.5,845,205,3.99,250.61,1,20723.83,213,153,160.64,160,25803,233011,1447,0.67,-0.76,0.09,-3.31,-0.49,-1.01,-49.21,-39.33,-7.15,-8.67,41.97,-8.84,-9.89,Right Fall while Standing
04:20.2,272,517,775.5,845,218,3.69,270.81,1.07,20723.82,212,164,161.21,161,25989,0,0,0.66,-0.78,0.08,-1.73,1,-1.66,-50.16,-38.45,-7.3,-8.79,41.86,-9.01,-9.98,Right Fall while Standing
04:20.3,441,515,772.5,845,221,3.63,275.56,1.08,20723.82,212,169,161.21,161,25989,28561,169,0.66,-0.77,0.08,-2.64,-1.29,-3.14,-49.66,-39.01,-7.56,-9.2,41.57,-9.24,-10.39,Right Fall while Standing
04:20.4,846,523,784.5,846,209,3.89,256.76,1.02,20723.82,212,166,161.21,161,25989,56117,335,0.66,-0.78,0.06,-4.47,-0.27,-1.13,-50.29,-38.53,-8.05,-9.49,41.53,-9.74,-10.65,Right Fall while Standing
04:20.5,296,517,775.5,846,211,3.85,259.85,1.03,20723.82,212,163,161.21,161,25989,82686,498,0.66,-0.78,0.08,-3.29,-0.31,-1.89,-50.25,-38.44,-8.39,-9.78,41.39,-10.07,-10.92,Right Fall while Standing
04:20.7,357,514,771,846,224,3.57,280.35,1.09,20723.82,212,177,161.21,161,25989,114015,675,0.66,-0.78,0.06,-3,-1.18,-1.08,-50.35,-38.43,-8.7,-10.18,41.35,-10.37,-11.31,Right Fall while Standing
04:20.8,770,519,778.5,846,214,3.78,264.52,1.05,20723.82,212,173,161.21,161,25989,143944,848,0.67,-0.78,0.06,-4.25,-1.33,-0.4,-49.8,-38.99,-9.17,-10.6,41.4,-10.79,-11.73,Right Fall while Standing
04:20.9,432,518,777,846,207,3.94,253.68,1.01,20723.82,212,159,161.21,161,25989,169225,1007,0.66,-0.78,0.06,-1.94,1.34,-1.34,-50.06,-38.73,-9.34,-10.68,41.33,-10.97,-11.8,Right Fall while Standing
04:21.0,362,514,771,846,221,3.63,275.56,1.08,20723.82,212,176,161.21,161,25989,200201,1183,0.66,-0.78,0.05,-2.41,0.95,-1.29,-50.36,-38.53,-9.58,-10.81,41.27,-11.21,-11.92,Right Fall while Standing
04:21.2,681,518,777,846,217,3.71,269.23,1.06,20723.82,212,171,161.21,161,25989,229442,1354,0.67,-0.78,0.06,-0.79,0.45,-4.65,-49.55,-39.24,-9.6,-11.01,40.78,-11.2,-12.14,Right Fall while Standing
04:21.3,629,520,780,846,205,3.99,250.61,1,20723.82,212,174,161.21,161,25989,259718,1528,0.67,-0.77,0.05,-0.22,-0.14,-4.34,-49.71,-39.18,-9.56,-11.28,40.34,-11.17,-12.39,Right Fall while Standing
04:21.4,272,515,772.5,846,218,3.69,270.81,1.07,20723.83,214,171,169.99,169,28894,0,0,0.69,-0.77,0.05,-0.47,-1.08,-5.18,-48.76,-40.12,-9.55,-11.66,39.79,-11.12,-12.8,Right Fall while Standing
04:21.5,476,514,771,846,220,3.65,273.97,1.08,20723.83,214,174,169.99,169,28894,30276,174,0.68,-0.76,0.03,-2.24,0.87,-2.28,-48.63,-40.31,-9.76,-11.8,39.6,-11.32,-12.94,Right Fall while Standing
04:21.7,818,520,780,846,208,3.92,255.21,1.02,20723.83,214,180,169.99,169,28894,62676,354,0.67,-0.75,0.05,-5.58,-0.18,0.71,-48.8,-40.04,-10.39,-12.07,39.79,-11.93,-13.19,Right Fall while Standing
04:21.8,76,512,768,846,212,3.83,261.41,1.04,20723.83,214,166,169.99,169,28894,90232,520,0.68,-0.76,0.06,-5.01,-1.18,0.98,-48.54,-40.25,-10.95,-12.47,40.01,-12.45,-13.59,Right Fall while Standing
04:21.9,398,509,763.5,846,224,3.57,280.35,1.09,20723.83,214,181,169.99,169,28894,122993,701,0.71,-0.77,0.05,-2.11,-2.53,-4.6,-48.1,-40.78,-11.15,-13.05,39.53,-12.62,-14.16,Right Fall while Standing
04:22.0,834,515,772.5,846,210,3.87,258.3,1.03,20723.83,214,185,169.99,169,28894,91682,886,0.71,-0.76,0.05,4.88,3.24,-15.6,-47.61,-41.28,-10.46,-12.89,37.67,-11.95,-14.03,Right Fall while Standing
04:22.2,342,512,768,846,208,3.92,255.21,1.02,20723.83,214,167,169.99,169,28894,119571,1053,0.71,-0.72,0.03,7.47,4.56,-17.85,-45.97,-42.99,-9.45,-12.57,35.52,-10.91,-13.78,Right Fall while Standing
04:22.3,355,509,763.5,846,222,3.61,277.15,1.09,20723.83,214,181,169.99,169,28894,152332,1234,0.71,-0.71,0.05,-0.01,2.37,-9.41,-45.25,-43.6,-9.38,-12.52,34.43,-10.81,-13.76,Right Fall while Standing
04:22.4,741,513,769.5,846,213,3.8,262.96,1.04,20723.83,214,185,169.99,169,28894,121021,1419,0.74,-0.69,0.09,4.52,8.19,-11.61,-43.51,-45.06,-8.74,-11.74,33.07,-10.13,-13.07,Right Fall while Standing
04:22.5,462,513,769.5,846,205,3.99,250.61,1,20723.83,214,164,169.99,169,28894,147917,1583,0.78,-0.66,0.09,6.72,5.67,-16.19,-40.74,-47.86,-7.82,-11.28,31.13,-9.14,-12.74,Right Fall while Standing
04:22.7,296,509,763.5,846,219,3.67,272.39,1.07,20723.83,214,174,133.49,175,17818,0,0,0.79,-0.64,0.1,3.56,6.24,-19.6,-39.35,-49.03,-7.31,-10.75,28.78,-8.59,-12.28,Right Fall while Standing
04:22.8,482,508,762,846,218,3.69,270.81,1.07,20723.83,214,173,133.49,175,17818,29929,173,0.81,-0.61,0.13,0.59,6.75,-17.21,-36.88,-51.2,-7.16,-10.15,26.73,-8.35,-11.8,Right Fall while Standing
04:22.9,840,514,771,846,206,3.97,252.14,1.01,20723.83,214,183,133.49,175,17818,4294965178,356,0.83,-0.56,0.17,1.79,3.43,-14.77,-34.4,-52.98,-6.87,-9.97,24.96,-7.97,-11.69,Right Fall while Standing
04:23.1,243,509,763.5,846,213,3.8,262.96,1.04,20723.83,214,166,133.49,175,17818,25438,522,0.85,-0.55,0.14,-3.8,1.35,-13.66,-33.14,-54.7,-7.28,-10.06,23.34,-8.31,-11.84,Right Fall while Standing
04:23.2,389,508,762,846,223,3.59,278.75,1.09,20723.83,214,180,133.49,175,17818,57838,702,0.87,-0.52,0.16,-2.27,-0.65,-20.73,-31.12,-56.42,-7.49,-10.39,20.83,-8.44,-12.23,Right Fall while Standing
04:23.3,842,513,769.5,846,210,3.87,258.3,1.03,20723.83,214,186,133.49,175,17818,26898,888,0.88,-0.48,0.16,-1.15,-1.91,-26.13,-28.87,-58.49,-7.56,-10.88,17.66,-8.42,-12.78,Right Fall while Standing
04:23.4,310,510,765,846,209,3.89,256.76,1.02,20723.83,214,167,133.49,175,17818,54787,1055,0.91,-0.43,0.14,-1.15,0.64,-25.23,-25.9,-61.72,-7.64,-11.05,14.58,-8.37,-13.08,Right Fall while Standing
04:23.6,352,507,760.5,846,221,3.63,275.56,1.08,20723.83,214,180,133.49,175,17818,87187,1235,0.93,-0.39,0.16,0,6.21,-27.35,-23.09,-64.04,-7.57,-10.52,11.24,-8.19,-12.66,Right Fall while Standing
04:23.7,752,511,766.5,846,212,3.83,261.41,1.04,20723.83,214,160,133.49,175,17818,112787,1395,0.97,-0.34,0.17,0.18,2.14,-28.18,-19.55,-67.09,-7.47,-10.5,7.78,-7.96,-12.76,Right Fall while Standing
04:23.8,536,511,766.5,846,203,4.04,247.56,0.99,20723.83,214,176,133.49,175,17818,143763,1571,0.97,-0.28,0.17,-3.75,-4.82,-34.21,-16.39,-69.66,-7.88,-11.36,3.57,-8.22,-13.69,Right Fall while Standing
04:23.9,973,518,777,973,217,3.71,269.23,1.06,20723.82,213,172,131.66,174,17333,0,0,0.95,-0.2,0.16,-5.41,-4.21,-27.79,-12.28,-73.26,-8.48,-12.14,0.2,-8.63,-14.58,Right Fall while Standing
04:24.1,476,517,775.5,973,218,3.69,270.81,1.07,20723.82,213,178,131.66,174,17333,31684,178,0.99,-0.15,0.13,-6.34,-2.74,-22.84,-9.39,-76.76,-9.2,-12.72,-2.54,-9.21,-15.29,Right Fall while Standing
04:24.2,841,522,783,973,205,3.99,250.61,1,20723.82,213,191,131.66,174,17333,2629,369,0.99,-0.11,0.12,-8.11,-7.52,-17.79,-7.13,-78.87,-10.15,-13.92,-4.68,-10.03,-16.52,Right Fall while Standing
04:24.3,253,518,777,973,209,3.89,256.76,1.02,20723.82,213,167,131.66,174,17333,30518,536,1.06,-0.03,0.07,-7.38,-9.89,-14.59,-2.05,-84.17,-11.01,-15.42,-6.42,-10.65,-18.17,Right Fall while Standing
04:24.4,421,517,775.5,973,221,3.63,275.56,1.08,20723.82,213,181,131.66,174,17333,63279,717,0.85,-0.04,0.21,-5.89,-8.86,-11.15,-3.32,-74.11,-11.68,-16.79,-7.72,-11.35,-19.08,Right Fall while Standing
04:24.6,874,522,783,973,207,3.94,253.68,1.01,20723.82,213,184,131.66,174,17333,31599,901,1.01,-0.04,0.08,-8.83,12.26,-0.96,-2.89,-83.44,-12.73,-15.5,-7.74,-12.33,-18.22,Right Fall while Standing
04:24.7,295,519,778.5,973,206,3.97,252.14,1.01,20723.82,213,159,131.66,174,17333,56880,1060,1.13,-0.06,0.03,3.73,15.12,-12.46,-3.81,-84.75,-12.19,-13.85,-9.21,-11.85,-16.68,Right Fall while Standing
04:24.8,349,516,774,973,215,3.76,266.09,1.05,20723.82,213,153,131.66,174,17333,80289,1213,0.99,-0.02,0.13,-7.03,16.34,-13.26,-1.53,-80.68,-13,-12.04,-10.78,-12.54,-14.78,Right Fall while Standing
04:24.9,827,520,780,973,201,4.09,244.53,0.98,20723.82,213,138,131.66,174,17333,99333,1351,0.99,-0.01,0.19,-26.2,-5.15,7.93,-1.05,-77.48,-16.23,-12.94,-9.68,-15.62,-15.52,Right Fall while Standing
04:25.1,361,518,777,973,198,4.17,240,0.97,20723.82,213,144,131.66,174,17333,120069,1495,0.98,-0.06,0.13,-11.27,-23.85,21.54,-3.86,-79.98,-17.58,-16.2,-6.87,-17.03,-18.75,Right Fall while Standing
04:25.2,348,516,774,973,214,3.78,264.52,1.05,20723.78,209,159,120.56,165,14534,0,0,1,-0.08,0.15,-0.61,-17.71,15.42,-5.26,-78.82,-17.59,-18.68,-4.83,-17.09,-21.09,Right Fall while Standing
04:25.3,1001,522,783,1001,205,3.99,250.61,1,20723.78,209,143,120.56,165,14534,20449,143,0.99,-0.12,0.02,-4.77,-13.21,7.1,-7.3,-81.58,-18.12,-20.6,-3.83,-17.69,-23.04,Right Fall while Standing
04:25.4,584,523,784.5,1001,195,4.25,235.51,0.95,20723.78,209,139,120.56,165,14534,39770,282,0.99,-0.18,0.05,-8.38,3.25,8.83,-10.57,-78.05,-19.1,-20.44,-2.62,-18.76,-22.74,Right Fall while Standing
04:25.6,253,520,780,1001,208,3.92,255.21,1.02,20723.78,209,152,120.56,165,14534,62874,434,0.92,-0.19,0.11,-0.99,-8.56,-3.95,-12.21,-75.09,-19.16,-21.77,-3.02,-18.88,-23.9,Right Fall while Standing
04:25.7,587,520,780,1001,206,3.97,252.14,1.01,20723.78,209,155,120.56,165,14534,86899,589,1.02,-0.14,0.03,4.91,13.4,-11,-8.4,-80.46,-18.47,-20.33,-4.31,-18.07,-22.74,Right Fall while Standing
04:25.8,778,524,786,1001,193,4.3,232.53,0.94,20723.78,209,133,120.56,165,14534,104588,722,1.01,-0.13,0.1,-7.43,8.85,4.51,-8.09,-79.15,-19.33,-19.47,-3.64,-18.88,-21.86,Right Fall while Standing
04:25.9,232,520,780,1001,205,3.99,250.61,1,20723.78,209,154,120.56,165,14534,128304,876,0.95,-0.14,0.13,-5.18,-1.27,-1.42,-9.16,-76.76,-19.92,-19.88,-3.72,-19.49,-22.16,Right Fall while Standing
04:26.1,610,521,781.5,1001,210,3.87,258.3,1.03,20723.78,209,159,120.56,165,14534,153585,1035,1,-0.14,0.13,-0.06,2.95,-2.3,-8.34,-77.63,-19.85,-19.76,-3.91,-19.39,-22.08,Right Fall while Standing
04:26.2,836,525,787.5,1001,197,4.19,238.5,0.96,20723.78,209,134,120.56,165,14534,171541,1169,0.98,-0.14,0.11,-1.18,5.91,-2.31,-8.71,-78.01,-19.93,-19.27,-4.1,-19.48,-21.62,Right Fall while Standing
04:26.3,225,521,781.5,1001,206,3.97,252.14,1.01,20723.78,209,158,120.56,165,14534,196505,1327,1.04,-0.12,0.1,2.01,11.32,-2.48,-6.99,-80.11,-19.61,-18.09,-4.31,-19.11,-20.57,Right Fall while Standing
04:26.5,461,521,781.5,1001,213,3.8,262.96,1.04,20723.73,203,165,149.58,149,22372,0,0,1.01,-0.14,0.13,-3.95,-0.48,2.04,-8.55,-77.69,-20.03,-18.4,-3.96,-19.57,-20.77,Right Fall while Standing
04:26.6,856,524,786,1001,203,4.04,247.56,0.99,20723.73,203,143,149.58,149,22372,20449,143,0.89,-0.14,0.16,-0.49,-10.25,-2.82,-9.36,-74.89,-20.02,-19.93,-4.22,-19.6,-22.13,Right Fall while Standing
04:26.7,489,524,786,1001,203,4.04,247.56,0.99,20723.73,203,159,149.58,149,22372,45730,302,0.98,-0.14,0.13,-2.34,1.58,-1.95,-8.83,-77.18,-20.25,-19.99,-4.36,-19.79,-22.27,Right Fall while Standing
04:26.8,362,522,783,1001,216,3.74,267.66,1.06,20723.73,203,176,149.58,149,22372,76706,478,0.99,-0.14,0.12,-4.28,3.27,-2.15,-8.79,-77.67,-20.72,-19.83,-4.53,-20.24,-22.14,Right Fall while Standing
04:27.0,803,525,787.5,1001,205,3.99,250.61,1,20723.73,203,146,149.58,149,22372,98022,624,0.97,-0.13,0.14,-1.56,5.91,-1.79,-8.41,-77.24,-20.84,-19.34,-4.66,-20.35,-21.65,Right Fall while Standing
04:29.9,451,451,676.5,451,217,3.71,269.23,1.06,0,0,166,0,0,0,52205,323,0.95,-0.08,0.15,-6.99,-1.49,3.27,-5.57,-77.95,-2.34,-1.33,-0.22,-2.47,-4.4,Forward Fall while Standing
04:30.0,723,587,880.5,723,210,3.87,258.3,1.03,0,0,161,0,0,0,78126,484,1.02,-0.1,0.16,-3.84,-13.07,4.99,-6.08,-77.74,-2.74,-3.18,0.49,-2.87,-6.17,Forward Fall while Standing
04:30.2,858,677,1015.5,858,204,4.01,249.08,1,0,0,142,0,0,0,98290,626,1.02,-0.1,0.11,-5.04,-12.77,-1.39,-5.91,-80.17,-3.29,-5,0.41,-3.4,-8.01,Forward Fall while Standing
04:30.3,592,656,984,858,201,4.09,244.53,0.98,0,0,140,0,0,0,117890,766,1.02,-0.1,0.03,-3.78,-23.52,-2.27,-6.45,-82.37,-3.69,-8.14,0.23,-3.8,-11.11,Forward Fall while Standing
04:30.4,248,574,861,858,207,3.94,253.68,1.01,0,0,151,0,0,0,140691,917,1.02,-0.13,0.02,-0.11,-7.16,1.23,-8,-80.9,-3.63,-9.27,0.48,-3.81,-12.13,Forward Fall while Standing
04:30.5,268,523,784.5,858,214,3.78,264.52,1.05,0,0,154,0,0,0,164407,1071,1.01,-0.13,0.02,-5.1,-0.98,-0.43,-7.98,-80.94,-4.19,-9.63,0.52,-4.34,-12.49,Forward Fall while Standing
04:30.7,421,508,762,858,219,3.67,272.39,1.07,0,0,166,0,0,0,191963,1237,1.02,-0.12,-0.02,-3.86,2.61,-2.44,-7.11,-81.79,-4.59,-9.56,0.32,-4.69,-12.45,Forward Fall while Standing
04:30.8,676,529,793.5,858,211,3.85,259.85,1.03,0,0,157,0,0,0,216612,1394,1.01,-0.11,-0.03,-3.08,0.63,-2.34,-6.79,-82.04,-4.9,-9.73,0.13,-4.98,-12.62,Forward Fall while Standing
04:30.9,859,566,849,859,203,4.04,247.56,0.99,20723.78,209,133,153.07,152,23429,0,0,1.02,-0.11,-0.03,-4.47,-12.95,-1.44,-6.68,-82.14,-5.39,-11.58,0.05,-5.44,-14.4,Forward Fall while Standing
04:31.0,373,546,819,859,201,4.09,244.53,0.98,20723.78,209,147,153.07,152,23429,21609,147,1.02,-0.11,-0.07,-9.15,-18,-4.26,-6.54,-81.34,-6.47,-14.1,-0.39,-6.47,-16.79,Forward Fall while Standing
04:31.2,323,526,789,859,214,3.78,264.52,1.05,20723.78,209,159,153.07,152,23429,46890,306,1.01,-0.11,-0.05,-4.18,-11.47,-4.47,-6.78,-81.5,-6.92,-15.79,-0.85,-6.92,-18.42,Forward Fall while Standing
04:31.3,1001,566,849,1001,209,3.89,256.76,1.02,20723.78,209,133,153.07,152,23429,64579,439,1,-0.1,-0.05,-4.67,-13.72,-3.97,-6.3,-82.11,-7.45,-17.78,-1.25,-7.4,-20.36,Forward Fall while Standing
04:31.4,515,562,843,1001,201,4.09,244.53,0.98,20723.78,209,143,153.07,152,23429,85028,582,0.73,-0.09,0.13,-0.27,-19.31,-7.89,-7.11,-76.43,-7.41,-20.47,-2.15,-7.4,-22.71,Forward Fall while Standing
04:31.5,274,541,811.5,1001,215,3.76,266.09,1.05,20723.78,209,165,153.07,152,23429,112253,747,0.96,-0.07,-0.17,-1.54,-22.82,-6.63,-4.9,-77.65,-7.53,-23.6,-2.88,-7.43,-25.76,Forward Fall while Standing
04:31.7,622,546,819,1001,215,3.76,266.09,1.05,20723.78,209,168,153.07,152,23429,140477,915,1,-0.09,-0.25,-3.22,-13.52,-1.61,-5.5,-73.68,-7.87,-25.55,-2.99,-7.77,-27.48,Forward Fall while Standing
04:31.8,680,555,832.5,1001,203,4.04,247.56,0.99,20723.78,209,155,153.07,152,23429,164502,1070,1.01,-0.08,-0.23,-3.17,-1.98,-2.45,-4.77,-74.65,-8.2,-26.05,-3.19,-8.06,-28,Forward Fall while Standing
04:31.9,255,537,805.5,1001,215,3.76,266.09,1.05,20723.78,209,167,153.07,152,23429,192391,1237,1,-0.07,-0.25,0.09,-4.47,-0.49,-4.31,-74.1,-8.12,-26.87,-3.16,-7.96,-28.76,Forward Fall while Standing
04:32.0,694,546,819,1001,216,3.74,267.66,1.06,20723.78,209,170,153.07,152,23429,221291,1407,1,-0.1,-0.29,0.44,-10.1,-1.37,-5.83,-71.37,-7.99,-28.39,-3.23,-7.9,-30.11,Forward Fall while Standing
04:32.2,816,560,840,1001,202,4.06,246.04,0.99,20723.78,209,154,156.52,156,24499,0,0,0.97,-0.06,-0.29,-2.7,-10.53,-3.03,-4.04,-71.59,-8.26,-29.96,-3.51,-8.09,-31.62,Forward Fall while Standing
04:32.3,240,544,816,1001,210,3.87,258.3,1.03,20723.78,209,159,156.52,156,24499,25281,159,1.08,-0.02,-0.16,-22.39,-6.09,0.56,-1.55,-79.96,-11.01,-30.98,-3.34,-10.63,-32.94,Forward Fall while Standing
04:32.4,429,538,807,1001,218,3.69,270.81,1.07,20723.78,209,150,156.52,156,24499,47781,309,0.81,-0.06,-0.26,-1.38,-14.55,-0.69,-4.89,-70.07,-11.11,-33.06,-3.33,-10.86,-34.54,Forward Fall while Standing
04:32.5,867,553,829.5,1001,202,4.06,246.04,0.99,20723.78,209,123,156.52,156,24499,62910,432,0.93,-0.06,-0.43,-3.88,-21.04,1.34,-3.94,-63.2,-11.53,-35.99,-3.06,-11.23,-37.08,Forward Fall while Standing
04:32.7,410,547,820.5,1001,204,4.01,249.08,1,20723.78,209,140,156.52,156,24499,82510,572,0.21,0.23,-0.31,-11.53,-48.02,3.63,31.17,-26.71,-12.91,-42.29,-2.5,-11.15,-41.67,Forward Fall while Standing
04:32.8,401,541,811.5,1001,215,3.76,266.09,1.05,20723.78,209,156,156.52,156,24499,106846,728,0.97,-0.06,-0.72,-8.43,-55.45,7.11,-3.25,-51.82,-13.91,-49.53,-1.5,-13.48,-49.62,Forward Fall while Standing
04:32.9,858,554,831,1001,202,4.06,246.04,0.99,20723.78,209,129,156.52,156,24499,123487,857,0.82,-0.09,-0.68,-1.89,-29.82,14.34,-5.47,-48.68,-14.07,-53.54,0.4,-13.73,-53.34,Forward Fall while Standing
04:33.0,258,542,813,1001,204,4.01,249.08,1,20723.78,209,144,156.52,156,24499,144223,1001,0.82,-0.12,-0.71,-2.66,-19.24,3.92,-6.67,-47.22,-14.34,-56.22,1,-14.03,-55.86,Forward Fall while Standing
04:33.2,397,537,805.5,1001,217,3.71,269.23,1.06,20723.78,209,161,156.52,156,24499,170144,1162,0.73,-0.13,-0.72,-5.79,-38.75,2.39,-7.85,-43.56,-15,-61.39,1.4,-14.72,-60.68,Forward Fall while Standing
04:33.3,838,548,822,1001,204,4.01,249.08,1,20723.78,209,131,156.52,156,24499,187305,1293,0.65,-0.13,-0.79,3.79,-48.38,12.03,-7.92,-37.68,-14.45,-67.74,3.02,-14.19,-66.54,Forward Fall while Standing
04:33.4,121,533,799.5,1001,205,3.99,250.61,1,20723.77,208,144,144.24,143,20803,0,0,0.59,-0.17,-0.87,12.02,-45.63,19.13,-9.95,-31.96,-12.88,-73.69,5.51,-12.77,-72.02,Forward Fall while Standing
04:33.6,334,526,789,1001,215,3.76,266.09,1.05,20723.77,208,150,144.24,143,20803,22500,150,0.53,-0.23,-0.97,12.9,-23.07,10.6,-12.16,-26.18,-11.19,-76.85,6.94,-11.23,-74.82,Forward Fall while Standing
04:33.7,819,536,804,1001,203,4.04,247.56,0.99,20723.77,208,115,144.24,143,20803,35725,265,0.45,-0.24,-1,2.48,-27.34,11.93,-12.75,-22.35,-10.8,-80.58,8.56,-10.88,-78.25,Forward Fall while Standing
04:33.8,385,531,796.5,1001,198,4.17,240,0.97,20723.77,208,138,144.24,143,20803,54769,403,0.41,-0.24,-0.96,-3.6,-25.78,8.54,-13.44,-20.76,-11.18,-84.08,9.73,-11.27,-81.55,Forward Fall while Standing
04:33.9,314,524,786,1001,213,3.8,262.96,1.04,20723.77,208,156,144.24,143,20803,79105,559,0.36,-0.24,-0.99,1.11,-15.59,0.95,-13.51,-17.85,-10.97,-86.29,9.95,-11.07,-83.56,Forward Fall while Standing
04:34.1,752,531,796.5,1001,206,3.97,252.14,1.01,20723.77,208,120,144.24,143,20803,93505,679,0.3,-0.25,-1,-4.38,-21.19,4.73,-14.18,-14.57,-11.46,-89.22,10.65,-11.56,-86.23,Forward Fall while Standing
04:34.2,449,529,793.5,1001,198,4.17,240,0.97,20723.77,208,140,144.24,143,20803,113105,819,0.28,-0.27,-1.01,-0.3,-19.56,6.04,-14.77,-13.3,-11.42,-91.93,11.51,-11.56,-88.79,Forward Fall while Standing
04:34.3,309,523,784.5,1001,213,3.8,262.96,1.04,20723.77,208,155,144.24,143,20803,137130,974,0.25,-0.25,-1.05,-1.02,-17.03,1.53,-13.64,-11.25,-11.48,-94.35,11.8,-11.57,-91.03,Forward Fall while Standing
04:34.4,777,529,793.5,1001,205,3.99,250.61,1,20723.77,208,118,144.24,143,20803,151054,1092,0.19,-0.27,-1.05,-0.83,-12.71,0.77,-14.48,-8.24,-11.51,-96.22,12,-11.63,-92.7,Forward Fall while Standing
04:34.6,412,526,789,1001,196,4.22,237,0.96,20723.77,208,141,144.24,143,20803,170935,1233,0.17,-0.28,-1.03,-2.85,-12.26,0.7,-15.3,-7.38,-11.8,-98.02,12.19,-11.94,-94.39,Forward Fall while Standing
04:34.7,326,521,781.5,1001,211,3.85,259.85,1.03,20723.75,205,159,140.07,139,19620,0,0,0.14,-0.25,-1.04,-1.13,-12.21,0.4,-14.16,-5.61,-11.87,-99.79,12.34,-11.97,-96.02,Forward Fall while Standing
04:34.8,683,525,787.5,1001,204,4.01,249.08,1,20723.75,205,147,140.07,139,19620,21609,147,0.11,-0.27,-1.06,0.05,-11.27,1.92,-14.79,-4.21,-11.8,-101.48,12.68,-11.92,-97.59,Forward Fall while Standing
04:34.9,615,527,790.5,1001,192,4.33,231.05,0.94,20723.75,205,123,140.07,139,19620,36738,270,0.08,-0.28,-1.05,2.58,-9.68,3.29,-15.32,-2.72,-11.4,-102.95,13.2,-11.56,-98.94,Forward Fall while Standing
04:35.1,253,521,781.5,1001,207,3.94,253.68,1.01,20723.75,205,152,140.07,139,19620,59842,422,0.08,-0.28,-1.04,0.08,1.64,-0.98,-15.79,-2.7,-11.32,-102.99,13.17,-11.5,-98.98,Forward Fall while Standing
04:35.2,535,521,781.5,1001,209,3.89,256.76,1.02,20723.75,205,179,140.07,139,19620,91883,601,0.06,-0.28,-1.06,-1.76,-0.15,-1.59,-15.57,-1.8,-11.47,-103.26,13.07,-11.63,-99.21,Forward Fall while Standing
04:35.3,708,525,787.5,1001,200,4.11,243.01,0.98,20723.75,205,169,140.07,139,19620,120444,770,0.08,-0.28,-1.03,-0.67,1.44,-2.65,-15.91,-2.55,-11.48,-103.34,12.84,-11.66,-99.3,Forward Fall while Standing
04:35.4,264,520,780,1001,213,3.8,262.96,1.04,20723.75,205,180,140.07,139,19620,152844,950,0.07,-0.29,-1.06,-0.66,4.38,-2.17,-15.75,-1.93,-11.5,-103.03,12.66,-11.67,-98.99,Forward Fall while Standing
04:35.6,993,530,795,1001,215,3.76,266.09,1.05,20723.75,205,188,140.07,139,19620,122652,1138,0.08,-0.28,-1.04,-1.95,1.63,-0.47,-15.81,-2.47,-11.67,-103.08,12.7,-11.84,-99.06,Forward Fall while Standing
04:35.7,692,533,799.5,1001,202,4.06,246.04,0.99,20723.75,205,185,140.07,139,19620,91341,1323,0.09,-0.29,-1.04,-1.86,4.8,-4.02,-15.97,-3.44,-11.84,-102.72,12.29,-12,-98.75,Forward Fall while Standing
04:35.8,264,528,792,1001,215,3.76,266.09,1.05,20723.75,205,191,140.07,139,19620,62286,1514,0.11,-0.28,-1.06,-0.9,8.95,-5.33,-15.45,-4.31,-11.88,-101.85,11.72,-12.02,-97.95,Forward Fall while Standing
04:36.0,529,528,792,1001,215,3.76,266.09,1.05,20723.76,207,171,95.67,168,9151,0,0,0.17,-0.28,-1.1,-2.92,23.62,-13.63,-14.86,-6.91,-12.17,-99.17,10.13,-12.28,-95.48,Forward Fall while Standing
04:36.1,840,534,801,1001,202,4.06,246.04,0.99,20723.76,207,184,95.67,168,9151,4294935616,184,0.21,-0.28,-1.05,-5.54,44.15,-16.55,-15.17,-9.12,-12.81,-93.81,8.13,-12.9,-90.43,Forward Fall while Standing
04:36.2,509,533,799.5,1001,209,3.89,256.76,1.02,20723.76,207,171,95.67,168,9151,4294964857,355,0.31,-0.27,-1,2.27,50.58,-14.35,-14.93,-15.09,-12.45,-87.69,6.42,-12.55,-84.79,Forward Fall while Standing
04:36.3,480,532,798,1001,213,3.8,262.96,1.04,20723.76,207,175,95.67,168,9151,28186,530,0.45,-0.27,-1,8.6,66.65,-20.55,-14.58,-21.76,-11.3,-79.55,3.93,-11.43,-77.24,Forward Fall while Standing
04:36.5,839,538,807,1001,200,4.11,243.01,0.98,20723.76,207,160,95.67,168,9151,53786,690,0.61,-0.27,-0.88,15.77,101.4,-24.18,-14.56,-32.26,-9.24,-67.02,0.98,-9.45,-65.63,Forward Fall while Standing
04:36.6,237,533,799.5,1001,202,4.06,246.04,0.99,20723.76,207,140,95.67,168,9151,73386,830,0.77,-0.26,-0.71,31.92,92.05,-32.51,-14.37,-44.29,-5.14,-55.68,-3.02,-5.51,-55.22,Forward Fall while Standing
04:36.7,400,530,795,1001,207,3.94,253.68,1.01,20723.76,207,140,95.67,168,9151,92986,970,0.84,-0.25,-0.62,20.08,90.71,-34.24,-13.96,-49.95,-2.54,-44.5,-7.23,-3,-44.72,Forward Fall while Standing
04:36.8,672,533,799.5,1001,190,4.38,228.09,0.93,20723.76,207,113,95.67,168,9151,105755,1083,0.9,-0.15,-0.42,19.21,92.24,-13.27,-9.05,-61.99,-0.05,-33.13,-8.8,-0.41,-34.28,Forward Fall while Standing
04:37.0,153,526,789,1001,189,4.41,226.62,0.92,20723.76,207,127,95.67,168,9151,121884,1210,0.97,-0.15,-0.25,-6.5,63.47,-6.33,-9.2,-71.5,-0.8,-25.38,-9.5,-1.14,-27.23,Forward Fall while Standing
04:37.1,1002,534,801,1002,203,4.04,247.56,0.99,20723.76,207,144,95.67,168,9151,142620,1354,1,-0.19,-0.06,-4.49,53.54,-0.23,-11.09,-77.39,-1.3,-18.89,-9.43,-1.69,-21.23,Forward Fall while Standing
04:37.2,718,537,805.5,1002,194,4.27,234.02,0.95,20723.7,200,115,124.84,146,15583,0,0,0.99,-0.23,0.09,-0.76,21.66,-0.27,-13.31,-74.7,-1.32,-16.43,-9.37,-1.8,-18.76,Forward Fall while Standing
04:37.3,526,537,805.5,1002,189,4.41,226.62,0.92,20723.7,200,126,124.84,146,15583,15876,126,0.99,-0.21,0.08,-8.5,35.59,-7.89,-12.67,-75.43,-2.32,-12.2,-10.26,-2.74,-14.73,Forward Fall while Standing
04:37.5,192,531,796.5,1002,204,4.01,249.08,1,20723.7,200,140,124.84,146,15583,35476,266,0.96,-0.2,0.1,0.17,26.05,-10.78,-12.06,-75.56,-2.23,-9.17,-11.52,-2.63,-11.83,Forward Fall while Standing
04:37.6,476,531,796.5,1002,202,4.06,246.04,0.99,20723.7,200,140,124.84,146,15583,55076,406,0.95,-0.15,0.11,-23.04,2.33,-11.29,-9.26,-77.66,-5.06,-9.13,-12.84,-5.23,-11.87,Forward Fall while Standing
04:37.7,830,535,802.5,1002,191,4.36,229.57,0.93,20723.7,200,110,124.84,146,15583,67176,516,0.98,-0.15,0.17,-27.51,-5.8,10.36,-9.25,-75.41,-8.46,-10.11,-11.44,-8.49,-12.72,Forward Fall while Standing
04:37.8,193,530,795,1002,199,4.14,241.5,0.97,20723.7,200,138,124.84,146,15583,86220,654,0.94,-0.19,0.21,-10.16,-5.95,-7.46,-11.79,-71.69,-9.67,-11.11,-12.28,-9.75,-13.54,Forward Fall while Standing
04:38.0,430,528,792,1002,205,3.99,250.61,1,20723.7,200,143,124.84,146,15583,106669,797,0.98,-0.19,0.16,-10.3,-4.37,-6.75,-11.27,-74.34,-10.9,-11.92,-13.03,-10.91,-14.41,Forward Fall while Standing
04:38.1,831,533,799.5,1002,192,4.33,231.05,0.94,20723.7,200,112,124.84,146,15583,119213,909,0.98,-0.17,0.1,-6.67,-16.37,1.82,-10.49,-76.96,-11.67,-14.25,-12.7,-11.63,-16.76,Forward Fall while Standing
04:38.2,207,528,792,1002,201,4.09,244.53,0.98,20723.7,200,143,124.84,146,15583,139662,1052,1.01,-0.18,0.08,-8.38,-19.52,5.37,-10.49,-77.62,-12.66,-16.96,-11.92,-12.57,-19.39,Forward Fall while Standing
04:38.3,469,527,790.5,1002,206,3.97,252.14,1.01,20723.7,200,148,124.84,146,15583,161566,1200,1.01,-0.21,0.03,-3.76,-14.24,6.26,-12.08,-76.81,-13.06,-19.02,-11.03,-13.03,-21.33,Forward Fall while Standing
04:38.5,993,534,801,1002,194,4.27,234.02,0.95,20723.67,198,118,132.47,131,17548,0,0,1.01,-0.22,0,0.36,-5.5,0.39,-12.79,-76.21,-12.95,-19.97,-10.88,-12.94,-22.22,Forward Fall while Standing
04:38.6,216,529,793.5,1002,203,4.04,247.56,0.99,20723.67,198,146,132.47,131,17548,21316,146,0.99,-0.23,-0.05,-4.26,1.48,2.21,-13.49,-75.2,-13.41,-20.03,-10.5,-13.41,-22.24,Forward Fall while Standing
04:38.7,435,528,792,1002,212,3.83,261.41,1.04,20723.67,198,158,132.47,131,17548,46280,304,1,-0.24,0.03,-3.89,14.59,-1.98,-14.22,-74.69,-13.83,-18.45,-10.65,-13.85,-20.7,Forward Fall while Standing
04:38.8,857,533,799.5,1002,199,4.14,241.5,0.97,20723.67,198,124,132.47,131,17548,61656,428,1,-0.23,0.02,-4.66,6.03,-9.01,-13.52,-75.41,-14.35,-17.94,-11.69,-14.31,-20.24,Forward Fall while Standing
04:39.0,239,529,793.5,1002,203,4.04,247.56,0.99,20723.67,198,149,132.47,131,17548,83857,577,1.01,-0.22,0.02,-12.27,4.22,-12.59,-12.98,-75.98,-15.82,-17.66,-13.17,-15.71,-19.99,Forward Fall while Standing
04:39.1,420,527,790.5,1002,214,3.78,264.52,1.05,20723.67,198,162,132.47,131,17548,110101,739,1.01,-0.19,0.07,-8.73,12.54,-14.82,-11.22,-77.14,-16.86,-16.32,-14.96,-16.64,-18.75,Forward Fall while Standing
04:39.2,998,533,799.5,1002,199,4.14,241.5,0.97,20723.67,198,127,132.47,131,17548,126230,866,0.98,-0.14,0.09,-5.75,14.25,-17.1,-8.81,-78.82,-17.52,-14.76,-17.03,-17.17,-17.33,Forward Fall while Standing
04:39.4,224,529,793.5,1002,206,3.97,252.14,1.01,20723.67,198,152,132.47,131,17548,149334,1018,0.99,-0.11,0.09,-8.18,6.23,-5.17,-6.8,-80.29,-18.49,-14.23,-17.58,-18.02,-16.87,Forward Fall while Standing
04:39.5,444,528,792,1002,215,3.76,266.09,1.05,20723.67,198,161,132.47,131,17548,175255,1179,1,-0.11,0.09,-4.12,-4,3.66,-6.88,-80.24,-18.94,-14.98,-17.02,-18.45,-17.59,Forward Fall while Standing
04:39.6,858,532,798,1002,201,4.09,244.53,0.98,20723.67,198,128,132.47,131,17548,191639,1307,1,-0.16,0.12,-3.95,-4.92,4.75,-9.43,-77.32,-19.36,-15.86,-16.33,-18.97,-18.31,Forward Fall while Standing
04:39.7,233,529,793.5,1002,207,3.94,253.68,1.01,20723.75,205,154,146.75,146,21534,0,0,0.97,-0.14,0.06,-1.71,-10.87,-1.58,-8.9,-79.33,-19.51,-17.46,-16.42,-19.08,-19.94,Forward Fall while Standing
04:45.2,855,855,1282.5,855,206,3.97,252.14,1.01,0,0,153,0,0,0,51298,320,1.01,-0.09,0.02,-7.34,4.11,-3.6,-5.5,-83.36,-1.27,0.68,-0.58,-1.44,-2.68,Sitting
04:45.3,687,771,1156.5,855,202,4.06,246.04,0.99,0,0,151,0,0,0,74099,471,0.99,-0.12,0.06,-8.81,3.61,-3.68,-7.39,-80.87,-2.28,0.88,-0.93,-2.49,-2.39,Sitting
04:45.4,304,615,922.5,855,206,3.97,252.14,1.01,0,0,156,0,0,0,98435,627,0.98,-0.09,0.07,-3.4,3.7,-4.97,-5.6,-82.01,-2.63,1.09,-1.44,-2.75,-2.24,Sitting
04:45.6,231,519,778.5,855,213,3.8,262.96,1.04,0,0,159,0,0,0,123716,786,1,-0.09,0.06,-4.98,5.31,1.74,-5.85,-82.01,-3.17,1.49,-1.13,-3.28,-1.85,Sitting
04:45.7,319,479,718.5,855,218,3.69,270.81,1.07,0,0,163,0,0,0,150285,949,1.02,-0.09,0.08,-0.28,4.7,-0.02,-5.78,-81.6,-3.14,1.83,-1.04,-3.25,-1.51,Sitting
04:45.8,441,472,708,855,218,3.69,270.81,1.07,0,0,170,0,0,0,179185,1119,1.01,-0.1,0.08,-4.05,-0.62,1.04,-6.24,-81.04,-3.56,1.51,-0.82,-3.67,-1.79,Sitting
04:45.9,638,496,744,855,211,3.85,259.85,1.03,0,0,163,0,0,0,205754,1282,1.01,-0.1,0.09,-0.67,-0.85,1.25,-6.25,-80.86,-3.58,1.16,-0.56,-3.68,-2.12,Sitting
04:46.1,851,540,810,855,204,4.01,249.08,1,0,0,159,0,0,0,231035,1441,1.01,-0.11,0.06,-0.1,-1.63,1.35,-6.6,-81.51,-3.52,0.71,-0.3,-3.64,-2.57,Sitting
04:46.2,703,558,837,855,199,4.14,241.5,0.97,20723.79,209,156,159.8,159,25536,0,0,1.02,-0.11,0.06,-1.73,-1.61,0.39,-6.99,-81.27,-3.67,0.27,-0.15,-3.8,-2.99,Sitting
04:46.3,249,527,790.5,855,207,3.94,253.68,1.01,20723.79,209,156,159.8,159,25536,24336,156,1.01,-0.11,0.04,-2.85,-1.25,0.92,-7.05,-81.65,-3.95,-0.14,0.06,-4.07,-3.4,Sitting
04:46.4,360,512,768,855,219,3.67,272.39,1.07,20723.79,209,172,159.8,159,25536,53920,328,1.02,-0.12,0.05,-1.71,1.99,-0.79,-7.14,-81.38,-4.09,-0.14,0.06,-4.22,-3.39,Sitting
04:46.6,690,527,790.5,855,210,3.87,258.3,1.03,20723.79,209,160,159.8,159,25536,79520,488,1.01,-0.12,0.04,-3.39,1.61,-2.15,-7.35,-81.29,-4.45,-0.19,-0.11,-4.56,-3.43,Sitting
04:46.7,703,540,810,855,200,4.11,243.01,0.98,20723.79,209,158,159.8,159,25536,104484,646,1,-0.12,0.05,-4.43,2.45,-1.51,-7.52,-81.02,-4.93,-0.13,-0.2,-5.04,-3.37,Sitting
04:46.8,235,519,778.5,855,208,3.92,255.21,1.02,20723.79,209,155,159.8,159,25536,128509,801,1.01,-0.12,0.07,-0.76,4.63,-0.45,-7.46,-80.55,-4.96,0.2,-0.16,-5.06,-3.03,Sitting
04:46.9,391,510,765,855,218,3.69,270.81,1.07,20723.79,209,168,159.8,159,25536,156733,969,1.01,-0.12,0.07,-2.64,1.3,-1.24,-7.37,-80.45,-5.22,0.11,-0.21,-5.3,-3.11,Sitting
04:47.1,788,527,790.5,855,207,3.94,253.68,1.01,20723.79,209,164,159.8,159,25536,183629,1133,1,-0.12,0.08,-1.45,-0.69,-1.64,-7.26,-80.26,-5.33,-0.23,-0.32,-5.41,-3.43,Sitting
04:47.2,495,525,787.5,855,200,4.11,243.01,0.98,20723.79,209,155,159.8,159,25536,207654,1288,1.01,-0.11,0.05,0.73,-0.11,-0.15,-7.02,-81.29,-5.17,-0.5,-0.24,-5.24,-3.73,Sitting
04:47.3,364,516,774,855,212,3.83,261.41,1.04,20723.79,209,158,159.8,159,25536,232618,1446,1.01,-0.12,0.05,-0.86,-0.05,-0.02,-7.39,-80.96,-5.2,-0.75,-0.14,-5.29,-3.96,Sitting
04:47.4,476,514,771,855,213,3.8,262.96,1.04,20723.78,209,161,160.79,160,25852,0,0,1.01,-0.12,0.05,-2.67,1.76,-0.98,-7.47,-80.98,-5.46,-0.78,-0.17,-5.54,-3.99,Sitting
04:47.6,846,531,796.5,855,204,4.01,249.08,1,20723.78,209,163,160.79,160,25852,26569,163,1.01,-0.13,0.07,-4.08,0.93,-0.76,-7.63,-80.39,-5.9,-0.91,-0.16,-5.97,-4.09,Sitting
04:47.7,412,525,787.5,855,201,4.09,244.53,0.98,20723.78,209,154,160.79,160,25852,50285,317,1,-0.12,0.06,-0.63,1.13,-1.68,-7.38,-80.9,-5.91,-1.02,-0.27,-5.97,-4.22,Sitting
04:47.8,262,513,769.5,855,212,3.83,261.41,1.04,20723.78,209,157,160.79,160,25852,74934,474,1,-0.12,0.05,-0.38,1.66,-2.1,-7.36,-80.96,-5.89,-1.07,-0.44,-5.95,-4.26,Sitting
04:47.9,457,511,766.5,855,212,3.83,261.41,1.04,20723.78,209,159,160.79,160,25852,100215,633,1,-0.11,0.06,-2.92,-0.12,-0.59,-6.96,-81.26,-6.19,-1.33,-0.41,-6.22,-4.53,Sitting
04:48.1,861,525,787.5,861,201,4.09,244.53,0.98,20723.78,209,160,160.79,160,25852,125815,793,1.01,-0.12,0.05,-0.72,3.02,0.39,-7.25,-81.15,-6.21,-1.21,-0.26,-6.25,-4.4,Sitting
04:48.2,302,516,774,861,203,4.04,247.56,0.99,20723.78,209,154,160.79,160,25852,149531,947,1.01,-0.13,0.07,-2.34,-0.26,-1.74,-7.66,-80.3,-6.43,-1.49,-0.38,-6.48,-4.64,Sitting
04:48.3,332,509,763.5,861,216,3.74,267.66,1.06,20723.78,209,167,160.79,160,25852,177420,1114,1,-0.12,0.05,-3.46,0.85,-2.31,-7.3,-81.03,-6.79,-1.63,-0.57,-6.81,-4.81,Sitting
04:48.4,686,516,774,861,208,3.92,255.21,1.02,20723.78,209,158,160.79,160,25852,202384,1272,1.01,-0.12,0.06,-2.44,2.08,-0.67,-7.07,-81.09,-7.03,-1.62,-0.56,-7.03,-4.8,Sitting
04:48.6,747,524,786,861,198,4.17,240,0.97,20723.78,209,162,160.79,160,25852,228628,1434,1.01,-0.11,0.05,-2.74,1.12,-1.26,-6.96,-81.34,-7.3,-1.73,-0.62,-7.29,-4.92,Sitting
04:48.7,351,518,777,861,208,3.92,255.21,1.02,20723.75,206,156,159.05,159,25295,0,0,1.01,-0.12,0.06,-1.93,1.7,-1.78,-7.26,-81.04,-7.47,-1.77,-0.74,-7.46,-4.94,Sitting
04:48.8,371,513,769.5,861,218,3.69,270.81,1.07,20723.75,206,168,159.05,159,25295,28224,168,1.01,-0.12,0.06,-2.5,0.21,0.24,-7.18,-80.91,-7.71,-1.99,-0.61,-7.69,-5.15,Sitting
04:48.9,732,520,780,861,207,3.94,253.68,1.01,20723.75,206,153,159.05,159,25295,51633,321,1,-0.12,0.04,-1.66,1.65,-0.5,-7.54,-81.04,-7.85,-2.04,-0.58,-7.84,-5.2,Sitting
04:49.1,748,527,790.5,861,197,4.19,238.5,0.96,20723.75,206,161,159.05,159,25295,77554,482,1.01,-0.12,0.07,-2.4,1.7,-0.92,-7.26,-80.78,-8.08,-2.08,-0.59,-8.05,-5.22,Sitting
04:49.2,230,518,777,861,207,3.94,253.68,1.01,20723.75,206,156,159.05,159,25295,101890,638,1.01,-0.12,0.07,-2.74,1.05,-0.98,-7.5,-80.57,-8.35,-2.19,-0.62,-8.32,-5.33,Sitting
04:49.3,415,515,772.5,861,216,3.74,267.66,1.06,20723.75,206,169,159.05,159,25295,130451,807,1,-0.12,0.07,-0.99,1.66,-1.7,-7.48,-80.47,-8.41,-2.24,-0.73,-8.37,-5.37,Sitting
04:49.4,823,524,786,861,205,3.99,250.61,1,20723.75,206,170,159.05,159,25295,159351,977,1.01,-0.12,0.07,-2.06,0.77,-0.72,-7.6,-80.32,-8.59,-2.39,-0.72,-8.55,-5.51,Sitting
04:49.6,496,523,784.5,861,198,4.17,240,0.97,20723.75,206,156,159.05,159,25295,183687,1133,1.01,-0.12,0.06,-1.83,0.86,-1.68,-7.12,-81.08,-8.75,-2.53,-0.83,-8.69,-5.67,Sitting
04:49.7,261,516,774,861,212,3.83,261.41,1.04,20723.75,206,161,159.05,159,25295,209608,1294,1.01,-0.12,0.06,-1.87,1.38,-0.74,-7.24,-80.94,-8.92,-2.61,-0.83,-8.85,-5.74,Sitting
04:49.8,486,515,772.5,861,213,3.8,262.96,1.04,20723.75,206,163,159.05,159,25295,236177,1457,1.01,-0.12,0.07,-0.71,1.6,-0.34,-7.37,-80.57,-8.94,-2.66,-0.77,-8.87,-5.78,Sitting
04:49.9,855,524,786,861,201,4.09,244.53,0.98,20723.76,207,173,163.13,163,26609,0,0,1.01,-0.12,0.06,-2.85,-0.09,-1.87,-7.57,-80.52,-9.22,-2.92,-0.91,-9.15,-6.02,Sitting
04:50.1,558,525,787.5,861,202,4.06,246.04,0.99,20723.76,207,161,163.13,163,26609,25921,161,1,-0.11,0.07,-1.23,2.68,-1.3,-7.12,-80.75,-9.3,-2.83,-0.97,-9.22,-5.95,Sitting
04:50.2,283,519,778.5,861,213,3.8,262.96,1.04,20723.76,207,168,163.13,163,26609,54145,329,1,-0.13,0.07,-1.52,0.13,0,-7.69,-80.24,-9.42,-3.07,-0.87,-9.35,-6.16,Sitting
04:50.3,487,518,777,861,212,3.83,261.41,1.04,20723.76,207,165,163.13,163,26609,81370,494,1.01,-0.12,0.05,-1.97,0.01,-1.18,-7.34,-81.08,-9.6,-3.32,-0.92,-9.51,-6.43,Sitting
04:50.4,860,526,789,861,201,4.09,244.53,0.98,20723.76,207,177,163.13,163,26609,112699,671,1.03,-0.12,0.05,0.63,-0.66,-1.6,-7.13,-81.26,-9.45,-3.65,-1.02,-9.36,-6.75,Sitting
04:50.6,270,520,780,861,205,3.99,250.61,1,20723.76,207,159,163.13,163,26609,137980,830,0.99,-0.13,0.04,-4.03,-5.75,-2.97,-7.89,-80.77,-9.88,-4.62,-1.29,-9.8,-7.66,Sitting
04:50.7,391,517,775.5,861,217,3.71,269.23,1.06,20723.76,207,172,163.13,163,26609,167564,1002,1,-0.12,0.04,0.08,6.22,-1.67,-7.14,-81.47,-9.8,-4.09,-1.4,-9.7,-7.18,Sitting
04:50.8,712,522,783,861,209,3.89,256.76,1.02,20723.76,207,163,163.13,163,26609,194133,1165,1.01,-0.12,0.06,-1.93,3.14,0.19,-7.35,-80.88,-9.97,-3.94,-1.28,-9.87,-7.02,Sitting
04:50.9,770,527,790.5,861,198,4.17,240,0.97,20723.76,207,174,163.13,163,26609,224409,1339,1,-0.13,0.06,-0.37,-0.51,-3.05,-7.97,-80.21,-9.95,-4.26,-1.56,-9.87,-7.29,Sitting
04:51.1,230,521,781.5,861,208,3.92,255.21,1.02,20723.76,207,161,163.13,163,26609,250330,1500,1.01,-0.12,0.05,-2.56,-2.09,0.76,-7.38,-80.98,-10.2,-4.77,-1.37,-10.09,-7.82,Sitting
04:51.2,447,519,778.5,861,215,3.76,266.09,1.05,20723.77,208,168,166.9,166,27854,0,0,1,-0.14,0.04,-2.12,2.44,-0.44,-8.33,-80.31,-10.4,-4.72,-1.32,-10.31,-7.74,Sitting
04:51.3,829,525,787.5,861,206,3.97,252.14,1.01,20723.77,208,181,166.9,166,27854,32761,181,1,-0.12,0.06,-0.79,6.34,-3.24,-7.57,-80.6,-10.43,-4.17,-1.63,-10.31,-7.23,Sitting
04:51.4,655,528,792,861,200,4.11,243.01,0.98,20723.77,208,159,166.9,166,27854,58042,340,1.02,-0.1,0.07,-2.95,2.42,-1.05,-6.38,-81.44,-10.72,-4.12,-1.66,-10.55,-7.21,Sitting
04:51.6,266,523,784.5,861,213,3.8,262.96,1.04,20723.77,208,164,166.9,166,27854,84938,504,1,-0.13,0.06,-2.6,-2.97,1.25,-8.1,-80.04,-10.98,-4.74,-1.41,-10.86,-7.75,Sitting
04:51.7,492,522,783,861,213,3.8,262.96,1.04,20723.77,208,166,166.9,166,27854,112494,670,1.02,-0.12,0.06,0.15,3.65,-1.23,-7.25,-80.91,-10.89,-4.53,-1.46,-10.74,-7.59,Sitting
04:51.8,856,528,792,861,201,4.09,244.53,0.98,20723.77,208,178,166.9,166,27854,144178,848,1.01,-0.12,0.06,-3.44,-1.9,-1.08,-7.38,-80.89,-11.25,-5.02,-1.5,-11.09,-8.05,Sitting
04:51.9,241,523,784.5,861,206,3.97,252.14,1.01,20723.77,208,159,166.9,166,27854,169459,1007,0.99,-0.12,0.05,-2.43,1.77,-0.65,-7.26,-81.17,-11.48,-5.05,-1.48,-11.32,-8.09,Sitting
04:52.1,412,521,781.5,861,218,3.69,270.81,1.07,20723.77,208,174,166.9,166,27854,199735,1181,1.01,-0.13,0.05,-3.27,2.89,0.2,-7.7,-80.69,-11.83,-4.93,-1.36,-11.66,-7.96,Sitting
04:52.2,829,527,790.5,861,206,3.97,252.14,1.01,20723.77,208,186,166.9,166,27854,168795,1367,1.02,-0.13,0.06,-2.07,1.92,-2.04,-7.93,-80.39,-12.01,-4.94,-1.51,-11.85,-7.96,Sitting
04:52.3,416,525,787.5,861,201,4.09,244.53,0.98,20723.77,208,162,166.9,166,27854,195039,1529,1,-0.12,0.05,-3.05,-0.51,-1.66,-7.47,-80.86,-12.33,-5.26,-1.62,-12.13,-8.29,Sitting
04:52.4,294,521,781.5,861,214,3.78,264.52,1.05,20723.76,207,172,149.87,170,22461,0,0,1.01,-0.12,0.07,-0.47,2.54,-1.6,-7.57,-80.46,-12.32,-5.19,-1.72,-12.13,-8.2,Sitting
04:52.6,481,520,780,861,214,3.78,264.52,1.05,20723.76,207,168,149.87,170,22461,28224,168,1,-0.13,0.06,-3.42,-2.58,-1.12,-7.76,-80.34,-12.68,-5.77,-1.77,-12.48,-8.75,Sitting
04:52.7,855,526,789,861,201,4.09,244.53,0.98,20723.76,207,182,149.87,170,22461,4294963108,350,1,-0.12,0.05,0.23,2.04,-1.63,-7.34,-81.17,-12.58,-5.77,-1.87,-12.37,-8.78,Sitting
04:52.8,386,523,784.5,861,206,3.97,252.14,1.01,20723.76,207,160,149.87,170,22461,21412,510,1.01,-0.12,0.07,-3.08,1.12,-1.3,-7.54,-80.46,-12.89,-5.88,-1.94,-12.68,-8.86,Sitting
04:52.9,384,521,781.5,861,218,3.69,270.81,1.07,20723.76,207,174,149.87,170,22461,51688,684,1,-0.12,0.05,-1.89,0.65,-1.42,-7.63,-80.87,-13.06,-6.05,-2.01,-12.85,-9.04,Sitting
04:53.1,812,526,789,861,206,3.97,252.14,1.01,20723.76,207,186,149.87,170,22461,20748,870,1,-0.11,0.06,-0.59,2.03,-1.75,-7.13,-81.12,-13.07,-6.04,-2.13,-12.83,-9.05,Sitting
04:53.2,513,525,787.5,861,199,4.14,241.5,0.97,20723.76,207,176,149.87,170,22461,51724,1046,1.01,-0.13,0.06,-2.26,-0.67,0.37,-7.72,-80.53,-13.28,-6.38,-1.99,-13.06,-9.34,Sitting
04:53.3,250,521,781.5,861,211,3.85,259.85,1.03,20723.76,207,164,149.87,170,22461,78620,1210,1,-0.12,0.05,-0.67,1.21,-2.39,-7.54,-80.93,-13.29,-6.48,-2.19,-13.06,-9.46,Sitting
04:53.4,462,520,780,861,211,3.85,259.85,1.03,20723.76,207,167,149.87,170,22461,106509,1377,1.01,-0.11,0.07,-2.2,-0.09,-1.66,-7.08,-80.89,-13.5,-6.74,-2.3,-13.24,-9.71,Sitting
04:53.6,847,525,787.5,861,198,4.17,240,0.97,20723.76,207,181,149.87,170,22461,139270,1558,1.02,-0.12,0.07,-3.11,0.24,-1.05,-7.47,-80.6,-13.82,-6.96,-2.33,-13.57,-9.91,Sitting
04:53.7,233,521,781.5,861,206,3.97,252.14,1.01,20723.76,207,161,128.53,171,16518,0,0,1,-0.11,0.06,-4.28,0.71,-1.98,-6.86,-81.4,-14.28,-7.12,-2.48,-13.99,-10.09,Sitting
04:53.8,356,519,778.5,861,217,3.71,269.23,1.06,20723.76,207,174,128.53,171,16518,30276,174,0.99,-0.11,0.04,-2.05,0.91,-1.53,-6.65,-81.99,-14.47,-7.26,-2.57,-14.16,-10.25,Sitting
04:53.9,788,522,783,861,208,3.92,255.21,1.02,20723.76,207,186,128.53,171,16518,4294966632,360,1.02,-0.11,0.06,-1.75,0.47,-0.75,-6.87,-81.27,-14.62,-7.45,-2.57,-14.31,-10.4,Sitting
04:54.1,446,521,781.5,861,200,4.11,243.01,0.98,20723.76,207,162,128.53,171,16518,25580,522,0.99,-0.13,0.05,-2.92,1.17,0.08,-7.86,-80.51,-14.92,-7.56,-2.46,-14.63,-10.47,Sitting
04:54.2,360,519,778.5,861,212,3.83,261.41,1.04,20723.76,207,166,128.53,171,16518,53136,688,1.01,-0.11,0.04,0.39,0.92,-1.46,-6.62,-82.03,-14.8,-7.69,-2.54,-14.47,-10.67,Sitting
04:54.3,502,519,778.5,861,212,3.83,261.41,1.04,20723.76,207,168,128.53,171,16518,81360,856,1.02,-0.12,0.05,-1.53,-0.99,-0.68,-7.32,-81.08,-14.92,-8.07,-2.53,-14.61,-10.99,Sitting
04:54.4,849,523,784.5,861,200,4.11,243.01,0.98,20723.76,207,181,128.53,171,16518,114121,1037,1.01,-0.12,0.06,-0.63,1.37,-3.52,-7.41,-80.87,-14.93,-8.15,-2.87,-14.63,-11.06,Sitting
04:54.6,231,519,778.5,861,207,3.94,253.68,1.01,20723.76,207,161,128.53,171,16518,140042,1198,1,-0.11,0.04,-2.76,-0.31,-1.63,-6.89,-81.78,-15.2,-8.44,-2.98,-14.87,-11.37,Sitting
04:54.7,427,518,777,861,216,3.74,267.66,1.06,20723.76,207,175,128.53,171,16518,170667,1373,1,-0.11,0.05,-1.63,2.09,-0.06,-6.69,-81.75,-15.34,-8.43,-2.89,-14.99,-11.36,Sitting
04:54.8,832,522,783,861,204,4.01,249.08,1,20723.76,207,189,128.53,171,16518,140852,1562,1,-0.13,0.04,-2.64,0.19,0.46,-7.8,-80.79,-15.6,-8.65,-2.73,-15.29,-11.54,Sitting
04:54.9,103,517,775.5,861,203,4.04,247.56,0.99,20723.77,207,164,129.51,172,16773,0,0,1.02,-0.12,0.06,-1.97,3.85,-1.15,-7.3,-80.97,-15.77,-8.43,-2.77,-15.43,-11.33,Sitting
04:55.1,283,514,771,861,214,3.78,264.52,1.05,20723.77,207,173,129.51,172,16773,29929,173,1.01,-0.12,0.06,-3.12,1.5,-0.33,-7.3,-80.94,-16.1,-8.49,-2.71,-15.74,-11.39,Sitting
04:55.2,581,515,772.5,861,211,3.85,259.85,1.03,20723.77,207,170,129.51,172,16773,58829,343,1.01,-0.13,0.08,-1.37,1.34,-1.34,-7.7,-80.1,-16.2,-8.57,-2.78,-15.86,-11.43,Sitting
04:55.3,835,519,778.5,861,198,4.17,240,0.97,20723.77,207,185,129.51,172,16773,27518,528,1.02,-0.12,0.04,-3.5,0.43,-0.39,-7.06,-81.46,-16.57,-8.77,-2.73,-16.19,-11.68,Sitting
04:55.4,231,515,772.5,861,206,3.97,252.14,1.01,20723.77,207,162,129.51,172,16773,53762,690,1,-0.12,0.05,-4.26,0.37,-0.28,-7.65,-80.7,-17.03,-8.97,-2.67,-16.65,-11.84,Sitting
04:55.6,403,514,771,861,216,3.74,267.66,1.06,20723.77,207,176,129.51,172,16773,84738,866,1.01,-0.12,0.05,-1.89,1.24,-0.44,-7.56,-80.94,-17.2,-9.07,-2.62,-16.81,-11.94,Sitting
04:55.7,848,518,777,861,204,4.01,249.08,1,20723.77,207,187,129.51,172,16773,54171,1053,1,-0.12,0.05,-1.48,-0.47,-1.05,-7.53,-80.93,-17.31,-9.38,-2.66,-16.92,-12.24,Sitting
04:55.8,353,516,774,861,201,4.09,244.53,0.98,20723.77,207,166,129.51,172,16773,81727,1219,0.99,-0.12,0.05,-0.53,3.19,-0.73,-7.72,-80.77,-17.31,-9.23,-2.65,-16.93,-12.09,Sitting
04:56.0,307,513,769.5,861,214,3.78,264.52,1.05,20723.77,207,177,129.51,172,16773,113056,1396,1.03,-0.12,0.04,1.01,2.86,-3.95,-7.43,-81.17,-17.11,-9.12,-3.05,-16.73,-12,Sitting
04:56.1,674,515,772.5,861,209,3.89,256.76,1.02,20723.77,207,171,129.51,172,16773,142297,1567,1.01,-0.13,0.04,-3.86,1.33,-9.56,-7.81,-80.89,-17.53,-9.21,-4.15,-17.14,-12.07,Sitting
04:56.2,637,517,775.5,861,198,4.17,240,0.97,20723.76,207,191,106.41,175,11323,0,0,1,-0.09,0.05,-8.53,-1.31,-1.19,-5.48,-82.88,-18.53,-9.62,-4.2,-18,-12.55,Sitting
04:56.3,48,511,766.5,861,208,3.92,255.21,1.02,20723.76,207,169,106.41,175,11323,28561,169,1.02,-0.1,0.06,-1.63,1.49,0.5,-6.08,-81.89,-18.66,-9.68,-4.04,-18.16,-12.57,Sitting
04:56.4,408,510,765,861,218,3.69,270.81,1.07,20723.76,207,180,106.41,175,11323,60961,349,1.02,-0.12,0.04,-3.73,1.19,-0.92,-7.14,-81.56,-19.06,-9.78,-4.06,-18.58,-12.66,Sitting
04:56.6,844,514,771,861,205,3.99,250.61,1,20723.76,207,191,106.41,175,11323,31906,540,1.01,-0.11,0.05,-3.76,-0.65,-2.26,-6.72,-81.58,-19.46,-10.12,-4.24,-18.95,-12.98,Sitting
04:56.7,361,512,768,861,201,4.09,244.53,0.98,20723.76,207,169,106.41,175,11323,60467,709,1,-0.11,0.03,-3.13,-0.69,0.1,-6.67,-82.09,-19.78,-10.46,-4.13,-19.26,-13.32,Sitting
04:56.8,298,510,765,861,214,3.78,264.52,1.05,20723.76,207,178,106.41,175,11323,92151,887,1.01,-0.1,0.02,-3.77,0.18,-1.02,-6.21,-82.67,-20.19,-10.69,-4.16,-19.63,-13.57,Sitting
04:57.0,642,511,766.5,861,208,3.92,255.21,1.02,20723.76,207,171,106.41,175,11323,121392,1058,1.02,-0.11,0.04,-3.56,-1.4,-1.48,-6.87,-81.78,-20.56,-11.11,-4.25,-20.02,-13.94,Sitting
04:57.1,646,513,769.5,861,197,4.19,238.5,0.96,20723.76,207,188,106.41,175,11323,91200,1246,1.01,-0.1,0.04,-2.11,1.31,-2.74,-6.43,-82.17,-20.76,-11.2,-4.49,-20.19,-14.04,Sitting
04:57.2,246,510,765,861,211,3.85,259.85,1.03,20723.76,207,171,106.41,175,11323,120441,1417,1.01,-0.11,0.03,-2.78,0.82,0.02,-6.69,-82.14,-21.04,-11.35,-4.39,-20.47,-14.18,Sitting
04:57.3,482,510,765,861,212,3.83,261.41,1.04,20723.76,207,175,106.41,175,11323,151066,1592,1.02,-0.1,0.03,-1.82,0.22,-2.2,-6.29,-82.41,-21.2,-11.57,-4.57,-20.6,-14.4,Sitting
04:57.5,845,513,769.5,861,198,4.17,240,0.97,20723.76,207,190,110.29,178,12162,0,0,1.01,-0.1,0.04,-2.43,0.53,-0.27,-6.27,-82.37,-21.43,-11.75,-4.5,-20.82,-14.58,Sitting
04:57.6,261,511,766.5,861,204,4.01,249.08,1,20723.76,207,167,110.29,178,12162,27889,167,1.01,-0.11,0.02,-2.32,3.2,-0.88,-6.87,-82.03,-21.65,-11.6,-4.51,-21.06,-14.42,Sitting
04:57.7,306,505,757.5,861,218,3.69,270.81,1.07,20723.76,207,182,110.29,178,12162,4294962773,349,1,-0.11,0.03,-3.75,2.73,-0.74,-6.95,-81.87,-22.05,-11.51,-4.51,-21.45,-14.32,Sitting
04:57.8,851,507,760.5,851,205,3.99,250.61,1,20723.76,207,195,110.29,178,12162,4294935262,544,1.01,-0.11,0.03,-0.62,-1.02,0.92,-6.6,-82.15,-22.06,-11.89,-4.29,-21.44,-14.7,Sitting
04:58.0,285,506,759,851,204,4.01,249.08,1,20723.76,207,169,110.29,178,12162,4294963823,713,1.02,-0.11,0.04,-0.76,-3.1,0.37,-6.92,-81.75,-22.09,-12.54,-4.14,-21.48,-15.31,Sitting
04:58.1,384,508,762,851,218,3.69,270.81,1.07,20723.76,207,182,110.29,178,12162,4294931411,895,1.02,-0.11,0.01,-2.15,-2.23,-2.5,-7.01,-81.96,-22.28,-13.07,-4.36,-21.67,-15.83,Sitting
04:58.2,866,513,769.5,866,204,4.01,249.08,1,20723.76,207,198,110.29,178,12162,4294905079,1093,1.01,-0.1,0.02,-1.46,-0.08,-1.22,-6.53,-82.4,-22.4,-13.34,-4.41,-21.76,-16.1,Sitting
04:58.3,240,511,766.5,866,206,3.97,252.14,1.01,20723.76,207,168,110.29,178,12162,4294933303,1261,1.01,-0.12,0.02,-0.85,0.56,0.93,-7.43,-81.47,-22.44,-13.52,-4.19,-21.84,-16.24,Sitting
04:58.5,1001,515,772.5,1001,218,3.69,270.81,1.07,20723.76,207,180,110.29,178,12162,4294965703,1441,1.02,-0.12,0,-0.93,-2.74,-2.69,-7.08,-81.92,-22.48,-14.12,-4.44,-21.87,-16.83,Sitting
04:58.6,862,515,772.5,1001,201,4.09,244.53,0.98,20723.76,207,195,110.29,178,12162,4294938192,1636,1.01,-0.11,-0.01,-2.67,0.57,-3.63,-6.65,-82.31,-22.75,-14.3,-4.8,-22.11,-17.02,Sitting
04:58.7,226,510,765,1001,210,3.87,258.3,1.03,20723.77,208,173,9.06,180,81,0,0,1.01,-0.09,0,-2.71,3.37,-2.54,-5.76,-83.24,-23.02,-14.13,-5.01,-22.33,-16.9,Sitting
04:58.8,374,512,768,1001,218,3.69,270.81,1.07,20723.77,208,186,9.06,180,81,4294936356,186,1.01,-0.11,0.02,-1.18,2.4,-0.56,-6.81,-82.12,-23.1,-14.08,-4.98,-22.44,-16.8,Sitting
04:59.0,831,516,774,831,207,3.94,253.68,1.01,20723.77,208,202,9.06,180,81,4294911624,388,1.02,-0.12,0.01,-1.7,1,-0.32,-7.11,-81.88,-23.24,-14.21,-4.93,-22.59,-16.92,Sitting
04:59.1,437,514,771,831,201,4.09,244.53,0.98,20723.77,208,170,9.06,180,81,4294940524,558,1.02,-0.1,0.01,-1.35,-0.94,0.31,-6.46,-82.51,-23.34,-14.58,-4.79,-22.66,-17.29,Sitting
04:59.2,278,510,765,831,214,3.78,264.52,1.05,20723.77,208,179,9.06,180,81,5269,737,1.01,-0.1,0,-1.23,2.44,-3.52,-6.36,-82.64,-23.42,-14.52,-5.13,-22.74,-17.25,Sitting
04:59.3,488,512,768,831,213,3.8,262.96,1.04,20723.77,208,179,9.06,180,81,37310,916,1,-0.1,0.02,-1.79,2.17,1.6,-6.38,-82.46,-23.57,-14.5,-4.83,-22.89,-17.22,Sitting
05:03.7,203,203,304.5,203,207,3.94,253.68,1.01,0,0,169,0,0,0,56450,336,1.03,0.06,0.15,4.76,3.13,-0.26,2.95,-79.4,1.04,-0.62,0.52,1.12,-3.77,Left Fall while Sitting
05:03.8,384,293,439.5,384,208,3.92,255.21,1.02,0,0,179,0,0,0,88491,515,0.99,0.05,0.2,-3.73,2.41,-3.46,2.33,-76.9,0.66,-0.57,0.2,0.72,-3.63,Left Fall while Sitting
05:03.9,461,349,523.5,461,203,4.04,247.56,0.99,0,0,176,0,0,0,119467,691,0.97,0.08,0.18,-4.44,-7.8,-5.4,4.18,-76.62,0.18,-1.77,-0.36,0.34,-4.76,Left Fall while Sitting
05:04.0,751,449,673.5,751,198,4.17,240,0.97,0,0,172,0,0,0,149051,863,1,0.08,0.17,-5.3,7.32,1.84,4.03,-77.83,-0.39,-1.12,-0.04,-0.22,-4.19,Left Fall while Sitting
05:04.2,870,533,799.5,870,193,4.3,232.53,0.94,0,0,194,0,0,0,121151,1057,0.96,0.05,0.2,-0.95,-0.46,-1.95,2.58,-76.53,-0.44,-1.42,-0.18,-0.32,-4.43,Left Fall while Sitting
05:04.3,942,601,901.5,942,188,4.44,225.15,0.92,0,0,190,0,0,0,91715,1247,1,0.07,0.15,-2.01,-9.63,0.05,3.21,-78.99,-0.62,-2.83,-0.08,-0.46,-5.88,Left Fall while Sitting
05:04.4,309,560,840,942,191,4.36,229.57,0.93,0,0,169,0,0,0,120276,1416,1.02,0.06,0.19,-1.69,20,-7.31,2.54,-77.21,-0.76,-0.62,-0.89,-0.62,-3.68,Left Fall while Sitting
05:04.5,346,533,799.5,942,189,4.41,226.62,0.92,0,0,169,0,0,0,148837,1585,0.98,0.08,0.24,10.31,19.74,-25.1,3.83,-74,0.58,1.57,-3.88,0.71,-1.46,Left Fall while Sitting
05:04.7,1002,585,877.5,1002,212,3.83,261.41,1.04,20723.67,198,191,109.44,177,11977,0,0,0.94,0.14,0.26,9.77,20.48,-18.98,7.72,-70.78,1.86,3.86,-6.13,2.1,0.87,Left Fall while Sitting
05:04.8,1001,626,939,1002,225,3.55,281.95,1.1,20723.67,198,192,109.44,177,11977,4294938624,192,0.92,0.19,0.27,18.47,25.19,-23.21,10.71,-68.64,4.24,6.76,-8.93,4.5,3.74,Left Fall while Sitting
05:04.9,1002,661,991.5,1002,225,3.55,281.95,1.1,20723.67,198,173,109.44,177,11977,1257,365,0.87,0.22,0.34,-10.85,5.15,-19.96,12.97,-63.09,2.95,7.15,-11.33,3.35,4.34,Left Fall while Sitting
05:05.0,308,631,946.5,1002,208,3.92,255.21,1.02,20723.67,198,165,109.44,177,11977,28482,530,0.85,0.31,0.37,2.93,4.66,-9.42,17.85,-58.71,3.39,7.48,-12.41,3.97,4.84,Left Fall while Sitting
05:05.2,281,604,906,1002,209,3.89,256.76,1.02,20723.67,198,175,109.44,177,11977,59107,705,0.83,0.28,0.38,-2.47,5.85,-0.53,16.45,-59.03,3.15,7.96,-12.38,3.68,5.28,Left Fall while Sitting
05:05.3,462,594,891,1002,205,3.99,250.61,1,20723.67,198,162,109.44,177,11977,85351,867,0.66,0.28,0.7,-2.45,-3.48,2.93,15.88,-39.46,2.92,7.28,-11.91,3.43,5.41,Left Fall while Sitting
05:05.4,876,613,919.5,1002,192,4.33,231.05,0.94,20723.67,198,136,109.44,177,11977,103847,1003,0.82,0.32,0.51,-8.48,-3.82,8.38,17.74,-52.24,1.93,6.55,-10.77,2.56,4.2,Left Fall while Sitting
05:05.5,395,599,898.5,1002,187,4.47,223.68,0.91,20723.67,198,148,109.44,177,11977,125751,1151,0.95,0.25,0.36,0.85,-1.32,10.76,13.29,-63.65,2.1,6.14,-9.33,2.55,3.35,Left Fall while Sitting
05:05.7,240,578,867,1002,200,4.11,243.01,0.98,20723.67,198,158,109.44,177,11977,150715,1309,0.91,0.25,0.33,0.97,-6.17,1.2,13.98,-63.81,2.29,5.12,-9.09,2.76,2.37,Left Fall while Sitting
05:05.8,442,570,855,1002,203,4.04,247.56,0.99,20723.67,198,163,109.44,177,11977,177284,1472,0.91,0.23,0.35,0.66,8.95,-7.26,12.51,-63.78,2.44,5.99,-9.89,2.85,3.2,Left Fall while Sitting
05:05.9,840,585,877.5,1002,194,4.27,234.02,0.95,20723.74,204,148,141.13,162,19917,0,0,0.87,0.24,0.32,4.75,3.81,-17.53,14.12,-63.7,3.1,6.22,-11.95,3.54,3.42,Left Fall while Sitting
05:06.0,728,592,888,1002,189,4.41,226.62,0.92,20723.74,204,149,141.13,162,19917,22201,149,0.83,0.31,0.36,-1.6,18.5,-14.8,17.95,-58.76,2.97,8.26,-13.69,3.57,5.58,Left Fall while Sitting
05:06.1,211,574,861,1002,199,4.14,241.5,0.97,20723.74,204,162,141.13,162,19917,48445,311,0.82,0.31,0.41,-2.22,8.59,-0.31,18.25,-56.39,2.76,9.09,-13.63,3.38,6.47,Left Fall while Sitting
05:06.3,360,564,846,1002,209,3.89,256.76,1.02,20723.74,204,179,141.13,162,19917,80486,490,0.87,0.3,0.43,-3.79,1.93,1.26,16.53,-57.62,2.36,9.08,-13.37,2.92,6.41,Left Fall while Sitting
05:06.4,702,570,855,1002,202,4.06,246.04,0.99,20723.74,204,167,141.13,162,19917,108375,657,0.83,0.32,0.41,1.73,5.87,-11.15,18.33,-56.4,2.64,9.56,-14.66,3.27,6.92,Left Fall while Sitting
05:06.5,815,580,870,1002,193,4.3,232.53,0.94,20723.74,204,146,141.13,162,19917,129691,803,0.83,0.34,0.4,4.2,8.89,-14.79,19.82,-55.81,3.23,10.42,-16.41,3.9,7.77,Left Fall while Sitting
05:06.6,50,559,838.5,1002,199,4.14,241.5,0.97,20723.74,204,159,141.13,162,19917,154972,962,0.8,0.36,0.44,4.32,5.4,-16.48,20.81,-53.24,3.84,10.84,-18.37,4.52,8.28,Left Fall while Sitting
05:06.8,336,550,825,1002,210,3.87,258.3,1.03,20723.74,204,175,141.13,162,19917,185597,1137,0.76,0.4,0.41,4.41,14.61,-19.31,24.05,-51.32,4.47,12.42,-20.68,5.25,9.87,Left Fall while Sitting
05:06.9,740,557,835.5,1002,202,4.06,246.04,0.99,20723.74,204,161,141.13,162,19917,211518,1298,0.72,0.44,0.42,4.69,6.51,-10.24,27.28,-48.21,5.12,12.98,-21.87,6.01,10.54,Left Fall while Sitting
05:07.0,788,565,847.5,1002,191,4.36,229.57,0.93,20723.74,204,143,141.13,162,19917,231967,1441,0.75,0.47,0.44,-3.24,6.22,-1.71,27.79,-47.87,4.79,13.51,-21.98,5.71,11.06,Left Fall while Sitting
05:07.1,209,553,829.5,1002,201,4.09,244.53,0.98,20723.68,199,162,160.69,160,25820,0,0,0.75,0.46,0.45,7.93,-5.14,0.16,27.16,-48.06,5.83,12.63,-21.86,6.69,10.21,Left Fall while Sitting
05:07.3,333,546,819,1002,211,3.85,259.85,1.03,20723.68,199,173,160.69,160,25820,29929,173,0.75,0.47,0.4,11.94,2.93,-11.3,28.15,-49.16,7.39,12.75,-23.18,8.22,10.27,Left Fall while Sitting
05:07.4,718,551,826.5,1002,204,4.01,249.08,1,20723.68,199,164,160.69,160,25820,56825,337,0.72,0.48,0.36,10.44,4.28,-4.42,30.32,-48.51,8.77,13.04,-23.63,9.63,10.57,Left Fall while Sitting
05:07.5,837,560,840,1002,194,4.27,234.02,0.95,20723.68,199,146,160.69,160,25820,78141,483,0.75,0.51,0.4,4.63,-4.48,3.34,30.37,-47.59,9.42,12.23,-23.12,10.26,9.83,Left Fall while Sitting
05:07.6,235,550,825,1002,199,4.14,241.5,0.97,20723.68,199,161,160.69,160,25820,104062,644,0.75,0.5,0.42,18.66,-2.64,-0.44,29.55,-47.36,11.8,11.65,-23.07,12.51,9.29,Left Fall while Sitting
05:07.8,350,544,816,1002,211,3.85,259.85,1.03,20723.68,199,178,160.69,160,25820,135746,822,0.76,0.53,0.36,18.53,-1.22,-7.05,31.61,-48.42,14.21,11.24,-23.86,14.9,8.86,Left Fall while Sitting
05:07.9,756,550,825,1002,201,4.09,244.53,0.98,20723.68,199,156,160.69,160,25820,160082,978,0.75,0.55,0.34,4.95,-0.91,-4.43,33.26,-47.71,14.9,10.88,-24.32,15.63,8.54,Left Fall while Sitting
05:08.0,556,551,826.5,1002,192,4.33,231.05,0.94,20723.68,199,150,160.69,160,25820,182582,1128,0.75,0.55,0.34,3.79,-1.89,-1.74,33.27,-47.39,15.44,10.39,-24.44,16.16,8.08,Left Fall while Sitting
05:08.1,215,542,813,1002,203,4.04,247.56,0.99,20723.68,199,165,160.69,160,25820,209807,1293,0.75,0.57,0.29,5.08,-11.81,1.29,34.72,-47.95,16.15,8.66,-24.18,16.89,6.4,Left Fall while Sitting
05:08.3,438,539,808.5,1002,210,3.87,258.3,1.03,20723.68,199,171,160.69,160,25820,239048,1464,0.73,0.54,0.26,4.38,-10.41,3.42,33.89,-49.37,16.77,7.11,-23.65,17.45,4.85,Left Fall while Sitting
05:08.4,872,547,820.5,1002,198,4.17,240,0.97,20723.71,202,152,161.91,161,26214,0,0,0.74,0.53,0.24,4.34,-3.72,11.76,33.79,-50.32,17.37,6.4,-22.09,18.03,4.13,Left Fall while Sitting
05:08.5,593,548,822,1002,192,4.33,231.05,0.94,20723.71,202,155,161.91,161,26214,24025,155,0.78,0.54,0.23,6.31,2.79,-0.89,33.17,-51.43,18.23,6.5,-22.11,18.83,4.18,Left Fall while Sitting
05:08.6,293,542,813,1002,203,4.04,247.56,0.99,20723.71,202,166,161.91,161,26214,51581,321,0.8,0.54,0.3,14.81,7.21,-13.24,31.69,-50.73,20.15,7.15,-23.66,20.61,4.84,Left Fall while Sitting
05:08.8,417,539,808.5,1002,210,3.87,258.3,1.03,20723.71,202,172,161.91,161,26214,81165,493,0.74,0.56,0.2,-2.32,-0.05,8.93,35.95,-49.24,19.93,6.9,-22.45,20.57,4.65,Left Fall while Sitting
05:08.9,839,546,819,1002,198,4.17,240,0.97,20723.71,202,151,161.91,161,26214,103966,644,0.8,0.55,0.28,0.69,-3.98,8.08,32.23,-50.82,20.09,6.16,-21.35,20.57,3.88,Left Fall while Sitting
05:09.0,575,547,820.5,1002,189,4.41,226.62,0.92,20723.71,202,152,161.91,161,26214,127070,796,0.82,0.52,0.24,5.83,-7.92,5.66,30.82,-53.33,20.88,4.93,-20.55,21.28,2.6,Left Fall while Sitting
05:09.1,218,539,808.5,1002,199,4.14,241.5,0.97,20723.71,202,162,161.91,161,26214,153314,958,0.77,0.54,0.22,8.15,3.53,-0.15,33.66,-51.11,21.97,5.12,-20.47,22.44,2.87,Left Fall while Sitting
05:09.3,438,537,805.5,1002,206,3.97,252.14,1.01,20723.71,202,167,161.91,161,26214,181203,1125,0.87,0.54,0.13,11.52,-5.43,-11.9,30.99,-55.79,23.48,4.19,-21.86,23.78,1.79,Left Fall while Sitting
05:09.4,867,544,816,1002,194,4.27,234.02,0.95,20723.71,202,154,161.91,161,26214,204919,1279,0.78,0.56,0.11,1.34,1.87,-9.83,34.72,-52.33,23.72,4.17,-23,24.16,1.91,Left Fall while Sitting
05:09.5,421,542,813,1002,190,4.38,228.09,0.93,20723.71,202,161,161.91,161,26214,230840,1440,0.78,0.59,0.17,-6.27,3.38,-10.47,36.17,-50.01,23.01,4.34,-24.2,23.53,2.17,Left Fall while Sitting
05:09.6,260,536,804,1002,202,4.06,246.04,0.99,20723.67,198,168,160.95,160,25905,0,0,0.74,0.59,0.22,-7.69,3.17,-1.2,36.7,-48.22,22.12,4.49,-24.26,22.7,2.38,Left Fall while Sitting
05:09.8,433,534,801,1002,204,4.01,249.08,1,20723.67,198,169,160.95,160,25905,28561,169,0.78,0.6,0.21,0.01,0.05,-2.05,35.91,-49.31,22.19,4.25,-24.41,22.74,2.1,Left Fall while Sitting
05:09.9,849,540,810,1002,195,4.25,235.51,0.95,20723.67,198,162,160.95,160,25905,54805,331,0.78,0.58,0.18,0.28,-0.52,-6.67,35.67,-50.25,22.3,3.93,-25.14,22.83,1.77,Left Fall while Sitting
05:10.0,545,540,810,1002,188,4.44,225.15,0.92,20723.67,198,158,160.95,160,25905,79769,489,0.76,0.6,0.2,-1.46,4.82,-4.79,36.69,-48.74,22.18,4.29,-25.64,22.76,2.17,Left Fall while Sitting
05:10.1,232,534,801,1002,201,4.09,244.53,0.98,20723.67,198,165,160.95,160,25905,106994,654,0.7,0.62,0.17,-0.53,3.47,-1.29,40.17,-45.84,22.19,4.47,-25.7,22.91,2.46,Left Fall while Sitting
05:10.3,446,533,799.5,1002,206,3.97,252.14,1.01,20723.67,198,167,160.95,160,25905,134883,821,0.79,0.61,0.21,3.95,2.8,-5.95,35.96,-49.33,22.75,4.57,-26.35,23.28,2.41,Left Fall while Sitting
05:10.4,860,539,808.5,1002,194,4.27,234.02,0.95,20723.67,198,161,160.95,160,25905,160804,982,0.75,0.61,0.17,-0.91,1.95,-9.71,37.83,-48.27,22.71,4.56,-27.46,23.31,2.45,Left Fall while Sitting
05:10.5,411,536,804,1002,191,4.36,229.57,0.93,20723.67,198,161,160.95,160,25905,186725,1143,0.73,0.64,0.18,0.34,-3.16,-10.58,39.91,-46.07,22.82,3.92,-28.68,23.5,1.92,Left Fall while Sitting
05:10.6,485,535,802.5,1002,204,4.01,249.08,1,20723.67,198,166,160.95,160,25905,214281,1309,0.72,0.67,0.18,4.6,0.15,-11.56,41.28,-44.76,23.47,3.69,-30.04,24.18,1.75,Left Fall while Sitting
05:10.8,493,535,802.5,1002,204,4.01,249.08,1,20723.67,198,165,160.95,160,25905,241506,1474,0.69,0.67,0.12,6.76,8.39,-18.59,43.2,-43.7,24.38,4.49,-32.26,25.14,2.56,Left Fall while Sitting
05:10.9,871,540,810,1002,192,4.33,231.05,0.94,20723.67,197,162,163.63,163,26774,0,0,0.65,0.7,0.12,-0.84,15.4,-24.4,45.85,-41.11,24.35,6.15,-35.19,25.21,4.26,Left Fall while Sitting
05:11.0,360,537,805.5,1002,190,4.38,228.09,0.93,20723.67,197,159,163.63,163,26774,25281,159,0.59,0.75,0.15,-12.72,7.86,-14.27,50.36,-36.07,22.83,6.88,-36.87,23.93,5.16,Left Fall while Sitting
05:11.1,272,533,799.5,1002,202,4.06,246.04,0.99,20723.67,197,168,163.63,163,26774,53505,327,0.58,0.77,0.19,-4.31,5.53,-8.52,50.94,-34.62,22.36,7.32,-37.84,23.5,5.65,Left Fall while Sitting
05:11.3,484,532,798,1002,200,4.11,243.01,0.98,20723.67,197,163,163.63,163,26774,80074,490,0.58,0.77,0.2,-2.85,1.5,2.42,50.61,-34.84,22.07,7.26,-37.44,23.22,5.58,Left Fall while Sitting
05:11.4,874,538,807,1002,190,4.38,228.09,0.93,20723.67,197,162,163.63,163,26774,106318,652,0.61,0.75,0.21,3.05,-1.16,1.9,48.7,-36.57,22.53,6.87,-37.1,23.57,5.13,Left Fall while Sitting
05:11.5,334,534,801,1002,189,4.41,226.62,0.92,20723.67,197,158,163.63,163,26774,131282,810,0.61,0.75,0.19,-5.66,0.48,4.44,48.93,-36.73,21.89,6.68,-36.45,22.97,4.94,Left Fall while Sitting
05:11.6,267,530,795,1002,201,4.09,244.53,0.98,20723.67,197,168,163.63,163,26774,159506,978,0.59,0.74,0.18,-6.99,-3.91,15.46,49.54,-36.22,21.08,5.94,-34.42,22.22,4.25,Left Fall while Sitting
05:11.8,522,530,795,1002,201,4.09,244.53,0.98,20723.67,197,169,163.63,163,26774,188067,1147,0.65,0.69,0.14,-12.5,0.3,23.09,45.37,-41.3,19.59,5.73,-31.43,20.62,3.85,Left Fall while Sitting
05:11.9,845,535,802.5,1002,192,4.33,231.05,0.94,20723.67,197,178,163.63,163,26774,219751,1325,0.72,0.65,0.21,-8.26,-3.45,21.45,40.34,-44.83,18.63,5.04,-28.65,19.5,3.05,Left Fall while Sitting
05:12.0,240,531,796.5,1002,197,4.19,238.5,0.96,20723.67,197,160,163.63,163,26774,245351,1485,0.72,0.63,0.21,-5.75,-6.21,10.91,39.39,-45.77,17.98,4.01,-27.18,18.83,2.02,Left Fall while Sitting
05:12.1,365,528,792,1002,208,3.92,255.21,1.02,20723.66,197,173,165.92,165,27527,0,0,0.73,0.59,0.2,-7.24,-7.7,16.63,37.75,-47.6,17.15,2.81,-25.02,17.97,0.79,Left Fall while Sitting
05:12.3,653,530,795,1002,202,4.06,246.04,0.99,20723.66,197,162,165.92,165,27527,26244,162,0.78,0.56,0.21,-2.69,-7.73,17.9,34.03,-51.19,16.88,1.6,-22.7,17.57,-0.51,Left Fall while Sitting
05:12.4,839,534,801,1002,190,4.38,228.09,0.93,20723.66,197,169,165.92,165,27527,54805,331,0.81,0.53,0.18,-6.18,-4.88,19.59,32.24,-53.52,16.18,0.74,-20.15,16.82,-1.43,Left Fall while Sitting
05:12.5,218,530,795,1002,197,4.19,238.5,0.96,20723.66,197,160,165.92,165,27527,80405,491,0.83,0.49,0.17,-9.04,-7.14,22.77,29.58,-56.38,15.12,-0.4,-17.21,15.7,-2.64,Left Fall while Sitting
05:12.6,342,527,790.5,1002,208,3.92,255.21,1.02,20723.66,197,172,165.92,165,27527,109989,663,0.86,0.44,0.14,-16.9,-8.45,34.94,26.07,-60.37,13.06,-1.72,-12.71,13.58,-4.06,Left Fall while Sitting
05:12.8,840,531,796.5,1002,197,4.19,238.5,0.96,20723.66,197,176,165.92,165,27527,140965,839,0.91,0.32,0.17,-20.39,-11.95,43.36,18.67,-66.49,10.58,-3.46,-7.19,10.91,-5.98,Left Fall while Sitting
05:12.9,421,530,795,1002,191,4.36,229.57,0.93,20723.66,197,161,165.92,165,27527,166886,1000,0.97,0.24,0.18,-13.6,3.97,30.66,13.07,-71.21,8.94,-3.21,-3.22,9.1,-5.93,Left Fall while Sitting
05:13.0,250,526,789,1002,203,4.04,247.56,0.99,20723.66,197,164,165.92,165,27527,193782,1164,0.97,0.17,0.14,-19.72,5.08,30.6,9.2,-75.75,6.53,-2.83,0.73,6.63,-5.74,Left Fall while Sitting
05:13.1,465,525,787.5,1002,204,4.01,249.08,1,20723.66,197,166,165.92,165,27527,221338,1330,0.99,0.07,0.2,-32.24,10.12,20.53,3.67,-76.07,2.6,-1.82,3.38,2.64,-4.79,Left Fall while Sitting
05:13.3,873,530,795,1002,193,4.3,232.53,0.94,20723.66,197,176,165.92,165,27527,252314,1506,0.96,0.05,0.24,-15.05,20.27,10.76,2.45,-73.85,0.79,0.47,4.82,0.85,-2.51,Left Fall while Sitting
05:13.4,346,528,792,1002,193,4.3,232.53,0.94,20723.67,197,162,166.9,166,27854,0,0,0.93,-0.01,0.3,-24.93,9.42,22.25,-0.94,-70.27,-2.24,1.39,7.68,-2.18,-1.48,Left Fall while Sitting
05:13.5,232,524,786,1002,202,4.06,246.04,0.99,20723.67,197,164,166.9,166,27854,26896,164,0.98,-0.04,0.35,-14.82,-4.81,23.39,-2.52,-68.47,-4.02,0.53,10.7,-3.96,-2.23,Left Fall while Sitting
05:13.6,467,523,784.5,1002,205,3.99,250.61,1,20723.67,197,167,166.9,166,27854,54785,331,1,-0.11,0.25,-9.05,-8.4,16.81,-6.86,-72.94,-5.08,-0.77,12.9,-5.15,-3.65,Left Fall while Sitting
05:13.8,880,528,792,1002,194,4.27,234.02,0.95,20723.67,197,175,166.9,166,27854,85410,506,1.02,-0.16,0.21,-26.02,-17.5,8.03,-9.44,-73.79,-8.29,-3.22,14.01,-8.33,-6.05,Left Fall while Sitting
05:13.9,253,524,786,1002,195,4.25,235.51,0.95,20723.67,197,159,166.9,166,27854,110691,665,1,-0.15,0.21,-9.24,-7.22,-0.89,-8.98,-74.1,-9.37,-4.38,14,-9.36,-7.17,Left Fall while Sitting
05:14.0,233,521,781.5,1002,207,3.94,253.68,1.01,20723.67,197,172,166.9,166,27854,140275,837,0.95,-0.16,0.15,-4.97,3.05,-3.28,-10.14,-75.41,-9.93,-4.24,13.68,-9.94,-7.09,Left Fall while Sitting
05:14.1,794,524,786,1002,199,4.14,241.5,0.97,20723.67,197,174,166.9,166,27854,170551,1011,0.98,-0.15,0.21,0.04,5.31,2.89,-8.93,-73.55,-9.85,-3.83,14.14,-9.82,-6.62,Left Fall while Sitting
05:14.3,665,526,789,1002,190,4.38,228.09,0.93,20723.67,197,170,166.9,166,27854,199451,1181,1,-0.14,0.15,15.44,0.94,-1.16,-8.5,-76.7,-7.85,-3.96,14.1,-7.88,-6.87,Left Fall while Sitting
05:14.4,215,522,783,1002,202,4.06,246.04,0.99,20723.67,197,162,166.9,166,27854,225695,1343,0.97,-0.18,0.21,-4.62,-4.35,-0.79,-10.62,-72.74,-8.36,-4.76,14.1,-8.45,-7.48,Left Fall while Sitting
05:14.5,466,521,781.5,1002,206,3.97,252.14,1.01,20723.67,197,166,166.9,166,27854,253251,1509,0.98,-0.16,0.16,0.88,3.5,-7.95,-9.84,-75.16,-8.18,-4.57,13.2,-8.25,-7.39,Left Fall while Sitting
05:14.6,897,526,789,1002,195,4.25,235.51,0.95,20723.68,199,176,168.59,168,28421,0,0,0.97,-0.14,0.18,-3.11,-0.09,-6.19,-8.47,-75.16,-8.5,-4.83,12.53,-8.5,-7.64,Left Fall while Sitting
05:14.8,373,524,786,1002,193,4.3,232.53,0.94,20723.68,199,163,168.59,168,28421,26569,163,0.99,-0.13,0.19,-4.94,-2.28,-1.24,-7.82,-75.23,-9.05,-5.37,12.47,-9,-8.16,Left Fall while Sitting
05:14.9,263,521,781.5,1002,206,3.97,252.14,1.01,20723.68,199,172,168.59,168,28421,56153,335,0.99,-0.12,0.18,0.47,-6.05,-1.67,-7.69,-75.95,-8.92,-6.37,12.36,-8.87,-9.16,Left Fall while Sitting
05:15.0,513,521,781.5,1002,203,4.04,247.56,0.99,20723.68,199,167,168.59,168,28421,84042,502,0.97,-0.14,0.16,2.06,-3.31,1.23,-8.43,-76.12,-8.59,-7.04,12.61,-8.59,-9.8,Left Fall while Sitting
05:15.1,874,525,787.5,1002,193,4.3,232.53,0.94,20723.68,199,180,168.59,168,28421,116442,682,1,-0.13,0.14,-0.75,1.05,-0.05,-8.13,-77.39,-8.62,-7.16,12.7,-8.6,-9.97,Left Fall while Sitting
05:15.3,256,522,783,1002,196,4.22,237,0.96,20723.68,199,162,168.59,168,28421,142686,844,1.01,-0.14,0.15,-4.05,4.76,-1.91,-8.23,-76.96,-9.05,-6.81,12.56,-9.02,-9.62,Left Fall while Sitting
05:15.4,342,520,780,1002,210,3.87,258.3,1.03,20723.68,199,176,168.59,168,28421,173662,1020,0.98,-0.13,0.16,-1.84,3.25,-5.32,-7.8,-76.86,-9.21,-6.65,12,-9.16,-9.46,Left Fall while Sitting
05:15.5,783,523,784.5,1002,201,4.09,244.53,0.98,20723.68,199,185,168.59,168,28421,142351,1205,0.98,-0.12,0.19,-5.15,0.07,0.17,-7.43,-75.64,-9.79,-6.9,12.12,-9.7,-9.65,Left Fall while Sitting
05:18.6,571,571,856.5,571,192,4.33,231.05,0.94,0,0,181,0,0,0,1081,365,0.99,-0.14,0.08,-4.56,-9.92,8.65,-8.5,-79.17,-0.91,-2.71,2.35,-1.22,-5.77,Right Fall while Sitting
05:18.7,272,421,631.5,571,198,4.17,240,0.97,0,0,165,0,0,0,28306,530,1,-0.18,0.05,-5.69,-6.47,9.17,-10.66,-77.92,-1.54,-3.74,3.57,-1.91,-6.71,Right Fall while Sitting
05:18.8,217,353,529.5,571,203,4.04,247.56,0.99,0,0,163,0,0,0,54875,693,1,-0.19,0.04,-8.67,-0.49,9.76,-11.52,-77.27,-2.54,-4.05,4.87,-2.9,-6.98,Right Fall while Sitting
05:18.9,313,343,514.5,571,209,3.89,256.76,1.02,0,0,173,0,0,0,84804,866,1,-0.23,0.03,-4.56,-1.66,10.95,-13.52,-75.34,-3.03,-4.5,6.31,-3.45,-7.33,Right Fall while Sitting
05:19.1,447,364,546,571,207,3.94,253.68,1.01,0,0,175,0,0,0,115429,1041,0.97,-0.26,0.05,-1.19,-3.23,10.56,-15.32,-73.39,-3.11,-5.14,7.7,-3.6,-7.87,Right Fall while Sitting
05:19.2,789,434,651,789,200,4.11,243.01,0.98,0,0,166,0,0,0,142985,1207,0.98,-0.28,0.04,-4.37,2.11,12.86,-16.42,-72.42,-3.58,-5.13,9.38,-4.09,-7.82,Right Fall while Sitting
05:19.3,875,497,745.5,875,194,4.27,234.02,0.95,0,0,183,0,0,0,110938,1390,0.97,-0.32,0.02,-8.83,12.2,14.65,-18.51,-70.45,-4.59,-3.88,11.27,-5.14,-6.55,Right Fall while Sitting
05:19.4,463,493,739.5,875,193,4.3,232.53,0.94,0,0,183,0,0,0,78891,1573,0.95,-0.34,0.04,0.66,1.4,13.6,-20.26,-68.56,-4.44,-3.96,13.04,-5.07,-6.54,Right Fall while Sitting
05:19.5,211,462,693,875,202,4.06,246.04,0.99,20723.69,200,164,102.85,173,10577,0,0,0.95,-0.38,0.05,-6.34,-0.87,10.48,-22.46,-66.38,-5.15,-4.31,14.43,-5.85,-6.8,Right Fall while Sitting
05:19.7,344,450,675,875,211,3.85,259.85,1.03,20723.69,200,176,102.85,173,10577,30976,176,0.95,-0.39,0.05,-0.98,-0.18,11.34,-22.83,-65.99,-5.21,-4.59,15.96,-5.91,-7.04,Right Fall while Sitting
05:19.8,766,478,717,875,202,4.06,246.04,0.99,20723.69,200,153,102.85,173,10577,54385,329,0.92,-0.42,0.03,5.01,-2.15,11.99,-25.29,-63.63,-4.51,-5.11,17.56,-5.34,-7.45,Right Fall while Sitting
05:19.9,704,497,745.5,875,190,4.38,228.09,0.93,20723.69,200,180,102.85,173,10577,86785,509,0.92,-0.46,0.04,-8.53,1.48,8.01,-27.32,-61.57,-5.51,-5.17,18.66,-6.38,-7.43,Right Fall while Sitting
05:20.0,464,495,742.5,875,201,4.09,244.53,0.98,20723.69,200,165,102.85,173,10577,114010,674,0.92,-0.47,0.07,-1.37,0.19,7.27,-27.56,-61.14,-5.61,-5.4,19.67,-6.49,-7.63,Right Fall while Sitting
05:20.2,406,488,732,875,209,3.89,256.76,1.02,20723.69,200,177,102.85,173,10577,145339,851,0.91,-0.48,0.03,0.42,-5.74,8.11,-28.6,-60.34,-5.48,-6.37,20.79,-6.41,-8.53,Right Fall while Sitting
05:20.3,861,513,769.5,875,199,4.14,241.5,0.97,20723.69,200,190,102.85,173,10577,115903,1041,0.88,-0.5,0.02,-0.63,-5.76,8.69,-30.15,-58.81,-5.49,-7.34,21.97,-6.48,-9.4,Right Fall while Sitting
05:20.4,392,505,757.5,875,194,4.27,234.02,0.95,20723.69,200,165,102.85,173,10577,143128,1206,0.88,-0.52,0.01,1.86,1.1,9.21,-31.11,-57.88,-5.19,-7.46,23.22,-6.23,-9.47,Right Fall while Sitting
05:20.5,254,491,736.5,875,207,3.94,253.68,1.01,20723.69,200,164,102.85,173,10577,170024,1370,0.88,-0.54,0.01,1.1,2.56,11.32,-32.02,-56.97,-4.98,-7.39,24.75,-6.06,-9.37,Right Fall while Sitting
05:20.7,517,492,738,875,206,3.97,252.14,1.01,20723.69,200,164,102.85,173,10577,196920,1534,0.85,-0.58,0.01,-1.73,3.38,10.06,-34.66,-54.33,-5.13,-7.21,26.11,-6.31,-9.1,Right Fall while Sitting
05:20.8,982,518,777,982,195,4.25,235.51,0.95,20723.7,201,193,129.86,172,16862,0,0,0.85,-0.57,0.03,1.1,1.74,8.88,-34.45,-54.49,-4.92,-7.25,27.3,-6.1,-9.13,Right Fall while Sitting
05:20.9,340,509,763.5,982,196,4.22,237,0.96,20723.7,201,166,129.86,172,16862,27556,166,0.83,-0.6,0.05,-7.4,1.77,8.28,-36.31,-52.56,-5.77,-7.27,28.43,-6.99,-9.08,Right Fall while Sitting
05:21.0,267,497,745.5,982,207,3.94,253.68,1.01,20723.7,201,175,129.86,172,16862,58181,341,0.83,-0.61,0.03,-0.51,4.41,8.89,-36.98,-51.97,-5.76,-6.97,29.64,-7.01,-8.77,Right Fall while Sitting
05:21.2,508,498,747,982,205,3.99,250.61,1,20723.7,201,173,129.86,172,16862,88110,514,0.8,-0.64,0.03,-2.26,5.47,8.67,-39.19,-49.75,-5.97,-6.54,30.82,-7.3,-8.27,Right Fall while Sitting
05:21.3,877,514,771,982,194,4.27,234.02,0.95,20723.7,201,192,129.86,172,16862,59438,706,0.8,-0.66,0.05,-4.36,3.62,7.94,-40.03,-48.84,-6.45,-6.34,31.91,-7.79,-8.04,Right Fall while Sitting
05:21.4,566,516,774,982,196,4.22,237,0.96,20723.7,201,167,129.86,172,16862,87327,873,0.78,-0.66,0.05,-3.83,2.51,8.24,-40.47,-48.4,-6.86,-6.27,33.04,-8.2,-7.96,Right Fall while Sitting
05:21.5,316,508,762,982,207,3.94,253.68,1.01,20723.7,201,179,129.86,172,16862,119368,1052,0.74,-0.7,0.07,-7.73,4.14,9.66,-43.61,-45.11,-7.76,-6,34.36,-9.2,-7.57,Right Fall while Sitting
05:21.7,678,515,772.5,982,201,4.09,244.53,0.98,20723.7,201,172,129.86,172,16862,148952,1224,0.76,-0.71,0.07,-0.89,2.08,3.76,-43.54,-45.21,-7.8,-5.99,34.93,-9.23,-7.56,Right Fall while Sitting
05:21.8,797,525,787.5,982,188,4.44,225.15,0.92,20723.7,201,192,129.86,172,16862,120280,1416,0.74,-0.7,0.06,-2.15,1.6,2.15,-43.91,-44.89,-8,-6.04,35.3,-9.44,-7.6,Right Fall while Sitting
05:21.9,214,514,771,982,196,4.22,237,0.96,20723.7,201,168,129.86,172,16862,148504,1584,0.74,-0.71,0.05,-2.83,1.61,1.12,-44.6,-44.27,-8.29,-6.09,35.54,-9.74,-7.62,Right Fall while Sitting
05:22.0,414,511,766.5,982,205,3.99,250.61,1,20723.68,199,178,134.23,176,18017,0,0,0.72,-0.7,0.05,-5.22,2.86,1.98,-44.6,-44.23,-8.87,-5.99,35.88,-10.3,-7.52,Right Fall while Sitting
05:22.2,963,526,789,982,196,4.22,237,0.96,20723.68,199,195,134.23,176,18017,4294939785,195,0.72,-0.72,0.05,-8.11,0.64,3.91,-45.33,-43.53,-9.82,-6.16,36.47,-11.24,-7.65,Right Fall while Sitting
05:22.3,497,525,787.5,982,186,4.5,222.22,0.91,20723.68,199,173,134.23,176,18017,2418,368,0.73,-0.73,0.04,-6.3,0.75,3.81,-45.6,-43.31,-10.54,-6.31,37.05,-11.94,-7.79,Right Fall while Sitting
05:22.4,237,516,774,982,199,4.14,241.5,0.97,20723.68,199,169,134.23,176,18017,30979,537,0.72,-0.74,0.03,-1.11,0.97,2.45,-46.52,-42.44,-10.6,-6.44,37.45,-12.04,-7.88,Right Fall while Sitting
05:22.6,471,514,771,982,201,4.09,244.53,0.98,20723.68,199,173,134.23,176,18017,60908,710,0.71,-0.73,0.03,-1.94,2.41,4.37,-46.53,-42.43,-10.78,-6.39,38.1,-12.21,-7.83,Right Fall while Sitting
05:22.7,880,525,787.5,982,189,4.41,226.62,0.92,20723.68,199,191,134.23,176,18017,31853,901,0.69,-0.75,0.04,-2.86,5.21,6.49,-47.84,-41.07,-11.07,-5.99,39.01,-12.54,-7.39,Right Fall while Sitting
05:22.8,648,529,793.5,982,189,4.41,226.62,0.92,20723.68,199,163,134.23,176,18017,58422,1064,1.1,-0.74,-0.44,1.31,-49.89,8,-32.61,-50.43,-10.83,-12.42,40.1,-11.71,-13.94,Right Fall while Sitting
05:22.9,352,524,786,982,201,4.09,244.53,0.98,20723.68,199,173,134.23,176,18017,88351,1237,0.62,-0.8,0.04,-3.47,6.77,2.1,-52.96,-35.95,-11.2,-11.82,40.47,-12.87,-12.79,Right Fall while Sitting
05:23.1,833,532,798,982,191,4.36,229.57,0.93,20723.68,199,190,134.23,176,18017,58915,1427,0.67,-0.77,0.07,0.29,1.79,-2.24,-49.49,-39.22,-11.09,-11.85,40.29,-12.63,-12.94,Right Fall while Sitting
05:23.2,403,529,793.5,982,187,4.47,223.68,0.91,20723.68,199,167,134.23,176,18017,86804,1594,0.67,-0.77,0.02,-0.21,-0.43,-2.47,-49.51,-39.46,-11.05,-12.15,40.07,-12.59,-13.25,Right Fall while Sitting
05:23.3,287,522,783,982,202,4.06,246.04,0.99,20723.63,194,178,108.85,177,11847,0,0,0.68,-0.77,0.07,-4.24,2.1,-1.66,-49.04,-39.69,-11.51,-12.14,39.96,-13.01,-13.24,Right Fall while Sitting
05:23.4,551,523,784.5,982,201,4.09,244.53,0.98,20723.63,194,171,108.85,177,11847,29241,171,0.67,-0.77,0.05,-1.88,2.53,-2.13,-49.47,-39.4,-11.67,-12.07,39.8,-13.19,-13.17,Right Fall while Sitting
05:23.6,946,533,799.5,982,187,4.47,223.68,0.91,20723.63,194,182,108.85,177,11847,4294964125,353,0.68,-0.77,0.05,-3.26,1.07,-0.6,-49.13,-39.72,-12.02,-12.19,39.82,-13.5,-13.29,Right Fall while Sitting
05:23.7,219,526,789,982,198,4.17,240,0.97,20723.63,194,165,108.85,177,11847,24054,518,0.68,-0.76,0.06,-1.85,0.22,-1.48,-48.57,-40.25,-12.18,-12.42,39.73,-13.64,-13.53,Right Fall while Sitting
05:23.8,468,525,787.5,982,202,4.06,246.04,0.99,20723.63,194,170,108.85,177,11847,52954,688,0.67,-0.77,0.04,-3.44,0.72,-0.28,-49.28,-39.62,-12.54,-12.58,39.8,-14.01,-13.66,Right Fall while Sitting
05:23.9,877,533,799.5,982,191,4.36,229.57,0.93,20723.63,194,187,108.85,177,11847,22387,875,0.68,-0.78,0.05,0.07,0.58,-3.76,-49.48,-39.39,-12.46,-12.76,39.42,-13.94,-13.82,Right Fall while Sitting
05:24.1,224,526,789,982,195,4.25,235.51,0.95,20723.63,194,162,108.85,177,11847,48631,1037,0.69,-0.78,0.05,-1.69,1.44,-6.6,-49.13,-39.74,-12.6,-12.83,38.69,-14.06,-13.9,Right Fall while Sitting
05:24.2,428,524,786,982,207,3.94,253.68,1.01,20723.63,194,180,108.85,177,11847,81031,1217,0.7,-0.75,0.05,-2.12,-3.16,-14.08,-47.37,-41.48,-12.8,-13.48,37.02,-14.18,-14.6,Right Fall while Sitting
05:24.3,878,531,796.5,982,193,4.3,232.53,0.94,20723.63,194,188,108.85,177,11847,50839,1405,0.71,-0.73,0.04,3.08,-1.01,-13.89,-46.27,-42.65,-12.34,-13.86,35.35,-13.7,-15.01,Right Fall while Sitting
05:24.4,268,526,789,982,193,4.3,232.53,0.94,20723.63,194,164,108.85,177,11847,77735,1569,0.74,-0.72,0.06,5.39,6.34,-14.42,-44.45,-44.36,-11.59,-13.31,33.64,-12.9,-14.55,Right Fall while Sitting
05:24.6,346,522,783,982,207,3.94,253.68,1.01,20723.66,197,179,104.77,174,10976,0,0,0.78,-0.69,0.08,8.13,3.04,-31.03,-41.89,-46.77,-10.5,-13.18,29.86,-11.76,-14.53,Right Fall while Sitting
05:24.7,736,526,789,982,199,4.14,241.5,0.97,20723.66,197,167,104.77,174,10976,27889,167,0.8,-0.6,0.1,5.66,-2.21,-40.06,-37.44,-50.96,-9.73,-13.71,24.95,-10.83,-15.2,Right Fall while Sitting
05:24.8,628,528,792,982,189,4.41,226.62,0.92,20723.66,197,189,104.77,174,10976,4294965370,356,0.89,-0.54,0.06,6.78,1.33,-37.84,-31.95,-56.87,-8.79,-13.79,20.24,-9.72,-15.52,Right Fall while Sitting
05:24.9,243,523,784.5,982,203,4.04,247.56,0.99,20723.66,197,170,104.77,174,10976,26974,526,0.9,-0.45,0.11,-0.11,2.47,-36.85,-27.16,-60.96,-8.74,-13.73,15.7,-9.47,-15.62,Right Fall while Sitting
05:25.1,513,523,784.5,982,202,4.06,246.04,0.99,20723.66,197,173,104.77,174,10976,56903,699,0.93,-0.4,0.15,-0.37,6.35,-41.47,-23.68,-63.62,-8.71,-13.19,10.61,-9.31,-15.21,Right Fall while Sitting
05:25.2,860,529,793.5,982,189,4.41,226.62,0.92,20723.66,197,187,104.77,174,10976,26336,886,1.06,-0.31,0.02,2.42,-8.36,-41.53,-16.99,-71.98,-8.34,-14.49,5.52,-8.69,-16.79,Right Fall while Sitting
05:25.3,220,523,784.5,982,195,4.25,235.51,0.95,20723.66,197,163,104.77,174,10976,52905,1049,0.98,-0.21,0.1,3.8,-7.13,-37.45,-12.47,-75.17,-7.79,-15.64,0.9,-7.98,-18.02,Right Fall while Sitting
05:25.4,388,521,781.5,982,206,3.97,252.14,1.01,20723.66,197,175,104.77,174,10976,83530,1224,0.98,-0.13,0.09,-3.46,2.64,-40.21,-8.4,-78.91,-8.15,-15.56,-4.03,-8.16,-18.09,Right Fall while Sitting
05:25.6,818,526,789,982,194,4.27,234.02,0.95,20723.66,197,190,104.77,174,10976,54094,1414,0.98,-0.04,0.07,1.44,10.8,-39.51,-2.63,-83.79,-7.9,-14.45,-8.91,-7.69,-17.22,Right Fall while Sitting
05:25.7,333,523,784.5,982,190,4.38,228.09,0.93,20723.66,197,168,104.77,174,10976,82318,1582,0.98,0.05,0.09,-6.12,26.08,-23.11,2.44,-82.51,-8.6,-11.41,-11.72,-8.16,-14.26,Right Fall while Sitting
05:25.8,284,519,778.5,982,204,4.01,249.08,1,20723.66,197,175,106.27,175,11293,0,0,1,0.08,0.18,16.57,14.84,-13.81,3.9,-77.12,-6.48,-9.82,-13.33,-6.06,-12.51,Right Fall while Sitting
05:25.9,482,518,777,982,202,4.06,246.04,0.99,20723.66,197,171,106.27,175,11293,29241,171,1,0.06,0.2,-5.59,3.89,-9.46,3,-76.85,-7.11,-9.58,-14.43,-6.71,-12.27,Right Fall while Sitting
05:26.1,882,524,786,982,191,4.36,229.57,0.93,20723.66,197,183,106.27,175,11293,4294964490,354,0.91,0.12,0.22,-2.82,3.64,-5.95,6.85,-73.17,-7.4,-9.38,-15.07,-6.83,-11.93,Right Fall while Sitting
05:26.2,244,519,778.5,982,192,4.33,231.05,0.94,20723.66,197,162,106.27,175,11293,23438,516,1,0.11,0.2,-8.24,3.63,12.05,5.63,-75.28,-8.36,-9.17,-13.47,-7.8,-11.82,Right Fall while Sitting
05:26.3,332,516,774,982,205,3.99,250.61,1,20723.66,197,178,106.27,175,11293,55122,694,0.98,0.03,0.27,-7,-2.14,6.43,0.9,-73.19,-9.16,-9.69,-12.57,-8.76,-12.23,Right Fall while Sitting
