Datetime, ECGR , AvgECG , ampECG , MAX , GSRR , Resistance , GSR(kohm) , SCL , GSRRMS , GSRMAV , EMGR , EMGRMS , EMGMAV , EMGVAR , EMGSSI , IEMG , AccX , AccY, AccZ , GyroX , GyroY , GyroZ , Aroll , Apitch , Groll , Gpitch, Gy , Combroll , Combpitch,Features
27:57.1,581,579,868.5,997,210,3.87,258.3,1.03,20723.79,210,265,99.33,273,9865,27463,1327,1.02,-0.02,-0.01,-2.18,1.13,-0.26,-1.73,-87.23,-2.12,-2.27,-0.5,-2.1,-5.66,Standing
27:57.2,755,591,886.5,997,200,4.11,243.01,0.98,20723.79,210,289,99.33,273,9865,45448,1616,1.02,-0.02,0,-3.2,0.27,-1.46,-1.94,-87.04,-2.45,-2.48,-0.58,-2.43,-5.86,Standing
27:57.4,382,577,865.5,997,204,4.01,249.08,1,20723.79,210,254,99.33,273,9865,44428,1870,1.02,-0.02,-0.01,-2.35,2.89,-2.16,-1.6,-87.35,-2.67,-2.37,-0.75,-2.63,-5.77,Standing
27:57.5,334,563,844.5,997,215,3.76,266.09,1.05,20723.79,210,288,99.33,273,9865,61836,2158,1.01,-0.02,0,-2.1,0.92,0.18,-1.46,-87.53,-2.86,-2.51,-0.63,-2.81,-5.91,Standing
27:57.6,491,559,838.5,997,213,3.8,262.96,1.04,20723.79,210,292,99.33,273,9865,81564,2450,1.02,-0.02,0,-1.93,0.31,-0.66,-1.78,-87.21,-3.04,-2.72,-0.61,-2.99,-6.1,Standing
27:57.7,760,570,855,997,203,4.04,247.56,0.99,20723.76,207,290,100.06,274,10011,0,0,1.02,-0.02,0,-1.99,0.64,-1.47,-1.6,-87.39,-3.21,-2.89,-0.7,-3.15,-6.27,Standing
27:57.9,590,571,856.5,997,198,4.17,240,0.97,20723.76,207,225,100.06,274,10011,4294952385,225,1.01,-0.02,0,-1.53,2.29,-1.27,-1.66,-87.34,-3.34,-2.85,-0.76,-3.27,-6.23,Standing
27:58.0,303,558,837,997,212,3.83,261.41,1.04,20723.76,207,293,100.06,274,10011,5402,518,1.02,-0.02,0.01,-1.79,1.34,-1.69,-1.77,-87.17,-3.49,-2.93,-0.87,-3.42,-6.3,Standing
27:58.1,1001,578,867,1001,216,3.74,267.66,1.06,20723.76,207,291,100.06,274,10011,24547,809,1.01,-0.02,0.01,-1.06,0.48,-1.11,-1.56,-87.22,-3.55,-3.12,-0.91,-3.47,-6.49,Standing
27:58.2,741,585,877.5,1001,205,3.99,250.61,1,20723.76,207,291,100.06,274,10011,43692,1100,1.02,-0.02,0,-1.89,0.13,-0.84,-1.53,-87.47,-3.72,-3.36,-0.92,-3.63,-6.72,Standing
27:58.4,537,583,874.5,1001,200,4.11,243.01,0.98,20723.76,207,235,100.06,274,10011,33381,1335,1.03,-0.02,0,-2.33,1.01,-1.92,-1.9,-87.08,-3.94,-3.48,-1.06,-3.86,-6.82,Standing
27:58.5,388,575,862.5,1001,207,3.94,253.68,1.01,20723.76,207,254,100.06,274,10011,32361,1589,1.02,-0.01,0,-4.05,0.27,-3.37,-1.42,-87.56,-4.38,-3.7,-1.38,-4.26,-7.05,Standing
27:58.6,1001,592,888,1001,249,3.11,321.71,1.22,20723.76,207,264,100.06,274,10011,36521,1853,1.01,0,0,-4.98,1.84,-2.6,-0.76,-88.21,-4.93,-3.72,-1.61,-4.77,-7.1,Standing
27:58.7,1001,607,910.5,1001,265,2.86,349.6,1.3,20723.76,207,283,100.06,274,10011,51074,2136,1.01,0,-0.01,-8.9,-4.14,0.34,-0.75,-87.67,-5.98,-4.48,-1.47,-5.77,-7.81,Standing
27:58.9,1001,621,931.5,1001,273,2.75,364,1.33,20723.76,207,261,100.06,274,10011,53659,2397,1.03,-0.03,-0.01,-5.11,-2.99,0.59,-2.07,-86.85,-6.55,-5.11,-1.3,-6.37,-8.38,Standing
27:59.0,1000,634,951,1001,278,2.68,373.15,1.36,20724.02,230,292,85.66,268,7337,0,0,1.02,-0.02,-0.03,-1.18,7.14,-4.36,-1.71,-86.59,-6.63,-4.48,-1.74,-6.43,-7.76,Standing
27:59.1,705,636,954,1001,278,2.68,373.15,1.36,20724.02,230,280,85.66,268,7337,12864,280,1.1,-0.03,0.04,-13.99,-9.16,0.73,-2.02,-85.99,-8.31,-5.87,-1.55,-8.05,-9.08,Standing
27:59.2,394,628,942,1001,278,2.68,373.15,1.36,20724.02,230,276,85.66,268,7337,23504,556,1.07,0.05,0.03,20.45,25.76,-15.43,2.17,-85.36,-5.68,-2.9,-3.38,-5.37,-6.2,Standing
27:59.4,349,620,930,1001,278,2.68,373.15,1.36,20724.02,230,279,85.66,268,7337,35809,835,1.01,0.06,0,4.21,8.49,0.44,2.69,-85.15,-5.08,-2.09,-3.22,-4.77,-5.41,Standing
27:59.5,316,610,915,1001,279,2.67,375,1.36,20724.02,230,282,85.66,268,7337,49797,1117,1.02,0.04,-0.01,-6.11,5.63,-1.07,1.71,-86.11,-5.78,-1.64,-3.26,-5.48,-5.02,Standing
27:59.6,936,620,930,1001,279,2.67,375,1.36,20724.02,230,286,85.66,268,7337,66057,1403,1.01,0.03,0.08,1.21,24.05,-13.2,1.05,-83.75,-5.56,1.08,-4.78,-5.29,-2.32,Standing
27:59.7,194,608,912,1001,278,2.68,373.15,1.36,20724.02,230,282,85.66,268,7337,80045,1685,0.94,0.04,0.04,-12.47,9.39,-17.56,2.12,-84.6,-7.05,2,-6.88,-6.68,-1.46,Standing
27:59.9,158,595,892.5,1001,276,2.71,369.48,1.35,20724.02,230,280,85.66,268,7337,92909,1965,0.96,0.09,0.06,-22.3,-2.32,-10.27,4.76,-81.84,-9.77,1.46,-8.07,-9.18,-1.87,Standing
28:00.0,272,587,880.5,1001,277,2.69,371.31,1.35,20724.02,230,277,85.66,268,7337,104102,2242,0.95,0.08,0.17,-18.97,-4.47,-5.1,4.2,-77.43,-12.07,0.65,-8.61,-11.42,-2.47,Standing
28:00.1,332,580,870,1001,277,2.69,371.31,1.35,20724.02,230,283,85.66,268,7337,118655,2525,0.95,0.06,0.14,-11.47,-9.7,2.85,3.01,-79.02,-13.44,-0.82,-8.15,-12.78,-3.95,Standing
28:00.2,319,573,859.5,1001,276,2.71,369.48,1.35,107.36,277,281,114.93,280,13207,0,0,1,0.06,0.12,1.24,-17.95,1.88,3.03,-80.65,-13.22,-3.3,-7.82,-12.57,-6.39,Standing
28:00.4,269,565,847.5,1001,276,2.71,369.48,1.35,107.36,277,279,114.93,280,13207,12305,279,1.02,0.07,0.04,7.41,-6.34,4.79,3.59,-83.57,-12.23,-4.33,-7.12,-11.6,-7.5,Standing
28:00.5,364,561,841.5,1001,276,2.71,369.48,1.35,107.36,277,279,114.93,280,13207,24610,558,1.01,0.07,0.01,5.77,6.39,-0.98,3.64,-84.19,-11.44,-3.78,-7.15,-10.83,-7,Standing
28:00.6,446,558,837,1001,279,2.67,375,1.36,107.36,277,279,114.93,280,13207,36915,837,1.07,0.08,0,-2.51,0.92,-1.93,3.7,-84.13,-11.68,-3.92,-7.29,-11.07,-7.13,Standing
28:00.7,464,556,834,1001,278,2.68,373.15,1.36,107.36,277,280,114.93,280,13207,49779,1117,1.05,0.05,0,5.68,9.31,-8.8,2.11,-85.73,-10.9,-3.01,-8.29,-10.38,-6.31,Standing
28:00.9,365,551,826.5,1001,278,2.68,373.15,1.36,107.36,277,278,114.93,280,13207,61527,1395,1.02,0.09,0.02,-11.66,-7.43,-16.15,4.72,-83.01,-12.29,-4.18,-10.21,-11.61,-7.34,Standing
28:01.0,426,548,822,1001,276,2.71,369.48,1.35,107.36,277,277,114.93,280,13207,72720,1672,0.98,0.14,0.03,-1.98,-12.62,-1.91,7.81,-79.81,-12.47,-6.01,-10.35,-11.66,-8.96,Standing
28:01.1,541,548,822,1001,279,2.67,375,1.36,107.36,277,278,114.93,280,13207,84468,1950,0.99,0.11,0,-1.84,-0.87,-0.8,5.84,-82,-12.63,-6.37,-10.35,-11.89,-9.4,Standing
28:01.2,496,547,820.5,1001,278,2.68,373.15,1.36,107.36,277,278,114.93,280,13207,96216,2228,1.03,0.13,0,-4.03,13.76,-5.5,6.76,-81.08,-13.06,-4.91,-10.94,-12.27,-7.96,Standing
28:01.4,370,543,814.5,1001,278,2.68,373.15,1.36,107.36,277,276,114.93,280,13207,106856,2504,1.02,0.11,0.01,-21.3,-19.18,-5.5,5.64,-82.17,-15.67,-7.58,-11.53,-14.82,-10.57,Standing
28:01.5,441,541,811.5,1001,276,2.71,369.48,1.35,106.85,277,275,108.14,277,11693,0,0,1.01,0.14,-0.01,3.37,11.37,-7.44,7.17,-80.64,-15.18,-6.41,-12.36,-14.29,-9.38,Standing
28:01.6,523,541,811.5,1001,279,2.67,375,1.36,106.85,277,276,108.14,277,11693,10640,276,0.97,0.18,-0.01,-3.85,13.6,-6.3,9.88,-77.93,-15.59,-4.96,-13.05,-14.57,-7.88,Standing
28:01.7,518,541,811.5,1001,279,2.67,375,1.36,106.85,277,277,108.14,277,11693,21833,553,1,0.17,0.03,-7.7,-1.98,-1.11,8.81,-78.87,-16.48,-5.46,-13.09,-15.47,-8.4,Standing
28:01.9,409,538,807,1001,278,2.68,373.15,1.36,106.85,277,275,108.14,277,11693,31922,828,1.01,0.15,0.04,-2.81,-2.52,1.32,7.76,-79.8,-16.77,-6.03,-12.82,-15.78,-8.98,Standing
28:02.0,381,535,802.5,1001,276,2.71,369.48,1.35,106.85,277,274,108.14,277,11693,41462,1102,1.01,0.15,0,-4.55,4.05,-1.17,7.84,-79.99,-17.27,-5.77,-12.87,-16.26,-8.74,Standing
28:02.1,515,535,802.5,1001,279,2.67,375,1.36,106.85,277,275,108.14,277,11693,51551,1377,1,0.15,0.02,-8.13,-2.3,-4.05,8.06,-79.72,-18.21,-6.31,-13.28,-17.16,-9.24,Standing
28:02.2,592,536,804,1001,279,2.67,375,1.36,106.85,277,277,108.14,277,11693,62744,1654,1,0.16,0.05,-2.33,0.58,-5.61,8.65,-78.74,-18.44,-6.48,-13.88,-17.35,-9.37,Standing
28:02.4,390,533,799.5,1001,278,2.68,373.15,1.36,106.85,277,274,108.14,277,11693,72284,1928,0.99,0.17,0.02,-0.81,-1.04,-0.34,9.26,-78.49,-18.47,-6.86,-13.83,-17.36,-9.73,Standing
28:02.5,381,530,795,1001,277,2.69,371.31,1.35,106.85,277,273,108.14,277,11693,81277,2201,0.99,0.17,0.01,1.91,-1.21,1.08,9.02,-78.8,-18.16,-7.27,-13.59,-17.07,-10.13,Standing
28:02.6,522,530,795,1001,280,2.65,376.85,1.37,106.85,277,274,108.14,277,11693,90817,2475,1.01,0.16,0,0.29,-0.85,-0.76,8.54,-79.3,-18.05,-7.62,-13.59,-16.99,-10.49,Standing
28:02.7,587,531,796.5,1001,280,2.65,376.85,1.37,109.67,278,276,100.72,275,10144,0,0,0.99,0.15,0.01,-0.17,1.37,-2.33,8.14,-79.67,-18,-7.7,-13.78,-16.95,-10.58,Standing
28:02.9,497,531,796.5,1001,279,2.67,375,1.36,109.67,278,275,100.72,275,10144,10089,275,1.01,0.17,0,-2.41,-1.44,-3.26,8.79,-79.05,-18.23,-8.13,-14.09,-17.15,-10.97,Standing
28:03.0,356,528,792,1001,278,2.68,373.15,1.36,109.67,278,273,100.72,275,10144,19082,548,0.99,0.18,-0.01,-0.71,4.36,-4.53,9.58,-78.25,-18.25,-7.83,-14.56,-17.14,-10.65,Standing
28:03.1,444,526,789,1001,279,2.67,375,1.36,109.67,278,273,100.72,275,10144,28075,821,0.99,0.19,0,-5.28,-1.68,-3.05,10.02,-77.82,-18.84,-8.29,-14.84,-17.68,-11.07,Standing
28:03.2,601,528,792,1001,281,2.64,378.71,1.37,109.67,278,275,100.72,275,10144,38164,1096,1,0.19,0.01,-5.47,1.03,-2.2,10.28,-77.55,-19.45,-8.41,-15.02,-18.27,-11.18,Standing
28:03.4,504,527,790.5,1001,280,2.65,376.85,1.37,109.67,278,274,100.72,275,10144,47704,1370,0.99,0.19,0.01,-3.15,1.37,-0.79,10.31,-77.52,-19.78,-8.49,-15.02,-18.58,-11.25,Standing
28:03.5,993,534,801,1001,279,2.67,375,1.36,109.67,278,272,100.72,275,10144,56152,1642,0.99,0.18,0.01,-2.27,0.5,-0.21,9.73,-78.1,-19.99,-8.68,-14.94,-18.81,-11.46,Standing
28:03.6,487,534,801,1001,280,2.65,376.85,1.37,109.67,278,272,100.72,275,10144,64600,1914,0.99,0.17,0.01,-1.81,1.58,-0.9,9.16,-78.67,-20.15,-8.73,-14.96,-18.98,-11.53,Standing
28:03.7,565,534,801,1001,281,2.64,378.71,1.37,109.67,278,274,100.72,275,10144,74140,2188,1.01,0.18,0.01,-2.44,0.08,-2.14,9.5,-78.32,-20.39,-8.97,-15.13,-19.19,-11.75,Standing
28:03.9,485,533,799.5,1001,280,2.65,376.85,1.37,109.67,278,273,100.72,275,10144,83133,2461,1,0.18,0.01,-2.64,0.95,-2.76,9.38,-78.45,-20.65,-9.1,-15.37,-19.45,-11.88,Standing
28:04.0,420,532,798,1001,279,2.67,375,1.36,112.43,279,273,95.98,273,9211,0,0,1,0.19,0,-1.37,0.41,-1.26,10.2,-77.64,-20.75,-9.3,-15.43,-19.51,-12.03,Standing
28:04.1,997,538,807,1001,281,2.64,378.71,1.37,112.43,279,274,95.98,273,9211,9540,274,1,0.18,0,-0.92,1.06,-0.82,9.61,-78.23,-20.79,-9.42,-15.44,-19.58,-12.17,Standing
28:04.2,540,538,807,1001,283,2.61,382.43,1.38,112.43,279,276,95.98,273,9211,20180,550,1,0.17,0,-2.59,0.11,-1.07,9.07,-78.77,-21.05,-9.65,-15.47,-19.84,-12.42,Standing
28:04.4,542,538,807,1001,281,2.64,378.71,1.37,112.43,279,277,95.98,273,9211,31373,827,1,0.18,0.01,-2.17,1.63,-3.42,9.64,-78.18,-21.25,-9.7,-15.8,-20.01,-12.44,Standing
28:04.5,421,537,805.5,1001,280,2.65,376.85,1.37,112.43,279,274,95.98,273,9211,40913,1101,0.99,0.19,0,-2.56,-0.63,-2.18,10.2,-77.64,-21.5,-10.03,-15.97,-20.23,-12.73,Standing
28:04.6,444,536,804,1001,279,2.67,375,1.36,112.43,279,275,95.98,273,9211,51002,1376,0.99,0.19,0.02,-2.06,2.4,-0.96,10.21,-77.6,-21.69,-9.98,-16,-20.41,-12.68,Standing
28:04.7,559,536,804,1001,281,2.64,378.71,1.37,112.43,279,275,95.98,273,9211,61091,1651,0.99,0.18,0.01,-3.34,-0.31,-0.46,9.75,-78.07,-22.03,-10.27,-15.95,-20.76,-12.98,Standing
28:04.9,510,535,802.5,1001,279,2.67,375,1.36,112.43,279,274,95.98,273,9211,70631,1925,1,0.18,0.01,-2.9,2.48,-1.28,9.85,-77.96,-22.33,-10.21,-16.02,-21.04,-12.92,Standing
28:05.0,342,533,799.5,1001,278,2.68,373.15,1.36,112.43,279,272,95.98,273,9211,79079,2197,1,0.18,0.01,-3.94,1.58,-1.55,9.65,-78.16,-22.74,-10.26,-16.11,-21.45,-12.97,Standing
28:05.1,456,532,798,1001,277,2.69,371.31,1.35,112.43,279,274,95.98,273,9211,88619,2471,0.99,0.18,0.01,-2.33,1.28,-2.05,9.78,-78.03,-22.97,-10.35,-16.27,-21.66,-13.05,Standing
28:05.2,560,532,798,1001,280,2.65,376.85,1.37,113.18,279,273,98.8,274,9760,0,0,1,0.18,0.01,-2.43,1.11,-1.26,9.84,-77.97,-23.2,-10.46,-16.33,-21.88,-13.16,Standing
28:05.4,608,533,799.5,1001,279,2.67,375,1.36,113.18,279,274,98.8,274,9760,9540,274,1,0.19,0.02,-3.18,1.08,-1.41,10.03,-77.77,-23.52,-10.57,-16.4,-22.18,-13.26,Standing
28:05.5,414,532,798,1001,278,2.68,373.15,1.36,113.18,279,272,98.8,274,9760,17988,546,1,0.19,0.01,-3.14,1.02,-1.99,10.02,-77.79,-23.85,-10.7,-16.55,-22.49,-13.38,Standing
28:05.6,412,530,795,1001,277,2.69,371.31,1.35,113.18,279,272,98.8,274,9760,26436,818,0.98,0.19,0.02,-1.7,2.47,-2.76,10.5,-77.31,-23.99,-10.64,-16.8,-22.61,-13.3,Standing
28:05.7,542,530,795,1001,279,2.67,375,1.36,113.18,279,272,98.8,274,9760,34884,1090,0.99,0.2,0.03,-2.54,1.78,0.58,10.6,-77.14,-24.24,-10.66,-16.63,-22.85,-13.32,Standing
28:05.9,579,531,796.5,1001,279,2.67,375,1.36,113.18,279,274,98.8,274,9760,44424,1364,0.99,0.19,0.03,-2.92,2.27,0.76,10,-77.69,-24.54,-10.63,-16.44,-23.15,-13.31,Standing
28:06.0,475,530,795,1001,279,2.67,375,1.36,113.18,279,272,98.8,274,9760,52872,1636,0.99,0.18,0.03,-3.54,-0.1,-0.99,9.85,-77.89,-24.91,-10.9,-16.46,-23.52,-13.58,Standing
28:06.1,381,529,793.5,1001,277,2.69,371.31,1.35,113.18,279,271,98.8,274,9760,60777,1907,0.99,0.19,0.03,-1.46,2.16,-1.61,10.12,-77.6,-25.02,-10.88,-16.56,-23.62,-13.54,Standing
28:06.2,490,528,792,1001,278,2.68,373.15,1.36,113.18,279,271,98.8,274,9760,68682,2178,0.99,0.18,0.03,-2.4,-0.33,-0.96,9.85,-77.82,-25.25,-11.17,-16.59,-23.85,-13.83,Standing
28:06.4,535,528,792,1001,280,2.65,376.85,1.37,113.18,279,274,98.8,274,9760,78222,2452,1,0.18,0.02,-1.65,0.31,-1.61,9.76,-78,-25.39,-11.38,-16.69,-23.98,-14.05,Standing
28:06.5,494,528,792,1001,279,2.67,375,1.36,109.67,278,272,93.1,272,8666,0,0,1,0.19,0,-2.02,-0.3,-1.73,10.16,-77.68,-25.57,-11.67,-16.8,-24.14,-14.31,Standing
28:06.6,403,526,789,1001,278,2.68,373.15,1.36,109.67,278,270,93.1,272,8666,7364,270,0.99,0.2,0.01,-1.26,1.41,-2.07,10.82,-77.01,-25.66,-11.74,-16.96,-24.2,-14.35,Standing
28:06.7,520,526,789,1001,279,2.67,375,1.36,109.67,278,271,93.1,272,8666,15269,541,0.98,0.19,0.01,-1.73,1.24,-1.09,10.45,-77.36,-25.8,-11.83,-17,-24.35,-14.45,Standing
28:06.9,996,531,796.5,1001,281,2.64,378.71,1.37,109.67,278,272,93.1,272,8666,23717,813,0.97,0.2,0,-3.32,1.45,2.88,10.98,-76.86,-26.15,-11.9,-16.54,-24.66,-14.5,Standing
28:07.0,487,531,796.5,1001,280,2.65,376.85,1.37,109.67,278,272,93.1,272,8666,32165,1085,1.02,0.16,0.04,-2.85,2.53,1.95,8.55,-79.08,-26.43,-11.84,-16.2,-25.03,-14.53,Standing
28:07.1,410,530,795,1001,280,2.65,376.85,1.37,109.67,278,271,93.1,272,8666,40070,1356,1.02,0.17,0.04,-3.63,-0.07,-4.74,8.84,-78.73,-26.82,-12.09,-16.7,-25.39,-14.76,Standing
28:07.2,507,529,793.5,1001,279,2.67,375,1.36,109.67,278,271,93.1,272,8666,47975,1627,0.99,0.2,0.02,0.72,0.11,-4.1,10.72,-77.06,-26.66,-12.33,-17.11,-25.16,-14.92,Standing
28:07.4,562,530,795,1001,282,2.63,380.57,1.38,109.67,278,275,93.1,272,8666,58064,1902,0.97,0.21,0,-1.39,-2.4,-1.63,11.67,-76.16,-26.76,-12.88,-17.22,-25.22,-15.41,Standing
28:07.5,566,530,795,1001,282,2.63,380.57,1.38,109.67,278,273,93.1,272,8666,67057,2175,0.99,0.19,0.02,-4.09,-4.36,2.88,10.25,-77.5,-27.21,-13.68,-16.75,-25.71,-16.24,Standing
28:07.6,384,529,793.5,1001,281,2.64,378.71,1.37,109.67,278,271,93.1,272,8666,74962,2446,1,0.18,0.01,-0.53,0.89,-0.24,9.81,-78.02,-27.2,-13.82,-16.69,-25.72,-16.39,Standing
28:07.7,456,528,792,1001,280,2.65,376.85,1.37,113.92,280,271,91.03,271,8285,0,0,1,0.18,0,-0.69,-0.4,-2.27,9.76,-78.08,-27.22,-14.12,-16.87,-25.74,-16.68,Standing
28:07.9,554,528,792,1001,283,2.61,382.43,1.38,113.92,280,272,91.03,271,8285,8448,272,1,0.18,-0.01,-1.29,-0.22,-2.09,9.47,-78.37,-27.31,-14.4,-17.03,-25.84,-16.96,Standing
28:08.0,555,529,793.5,1001,282,2.63,380.57,1.38,113.92,280,273,91.03,271,8285,17441,545,0.99,0.2,-0.01,-2.2,1.51,-2.63,10.9,-76.91,-27.51,-14.46,-17.26,-25.98,-16.96,Standing
28:08.1,424,528,792,1001,282,2.63,380.57,1.38,113.92,280,271,91.03,271,8285,25346,816,0.98,0.19,-0.01,-2.71,0.98,-1.38,10.47,-77.35,-27.79,-14.59,-17.34,-26.26,-17.1,Standing
28:08.2,427,525,787.5,1001,280,2.65,376.85,1.37,113.92,280,271,91.03,271,8285,33251,1087,0.99,0.19,0,-1.6,0.82,0.34,10.53,-77.31,-27.92,-14.73,-17.19,-26.38,-17.24,Standing
28:08.4,499,523,784.5,1001,283,2.61,382.43,1.38,113.92,280,271,91.03,271,8285,41156,1358,1.01,0.19,-0.01,-2.28,0.77,0.1,9.92,-77.91,-28.13,-14.89,-17.08,-26.61,-17.41,Standing
28:08.5,492,522,783,1001,283,2.61,382.43,1.38,113.92,280,274,91.03,271,8285,50696,1632,1.01,0.18,0,-1.91,1.42,-2.21,9.68,-78.16,-28.3,-14.96,-17.26,-26.78,-17.49,Standing
28:08.6,446,516,774,1001,283,2.61,382.43,1.38,113.92,280,271,91.03,271,8285,58601,1903,1,0.19,0,-2.78,0.55,-3.39,10.23,-77.61,-28.58,-15.14,-17.58,-27.02,-17.64,Standing
28:08.7,456,518,777,1001,281,2.64,378.71,1.37,113.92,280,272,91.03,271,8285,67049,2175,1.01,0.2,-0.01,-1.48,-0.42,-2.65,10.43,-77.41,-28.69,-15.45,-17.82,-27.13,-17.92,Standing
28:08.9,559,520,780,1001,285,2.59,386.18,1.39,113.92,280,272,91.03,271,8285,75497,2447,0.99,0.2,-0.01,-0.37,-1.71,-1.38,10.82,-77,-28.67,-15.91,-17.89,-27.09,-18.35,Standing
28:09.0,503,520,780,1001,284,2.6,384.3,1.39,119.7,282,274,92.21,272,8502,0,0,0.99,0.2,-0.03,-0.68,-1.37,-1.18,11.08,-76.63,-28.68,-16.33,-17.94,-27.09,-18.74,Standing
28:09.1,393,517,775.5,1001,284,2.6,384.3,1.39,119.7,282,272,92.21,272,8502,8448,272,0.97,0.22,0,-1.09,0.85,-0.17,12.01,-75.83,-28.75,-16.47,-17.86,-27.12,-18.85,Standing
28:09.2,449,512,768,1001,281,2.64,378.71,1.37,119.7,282,271,92.21,272,8502,16353,543,0.99,0.2,-0.02,-2.89,0.66,-1.36,10.86,-76.9,-29.04,-16.64,-17.93,-27.44,-19.05,Standing
28:09.4,557,514,771,1001,284,2.6,384.3,1.39,119.7,282,272,92.21,272,8502,24801,815,0.98,0.2,-0.02,-2.15,1.51,-0.45,10.83,-76.96,-29.24,-16.7,-17.89,-27.64,-19.11,Standing
28:09.5,564,516,774,1001,284,2.6,384.3,1.39,119.7,282,274,92.21,272,8502,34341,1089,0.99,0.19,-0.02,-0.71,2.28,-0.94,10.35,-77.42,-29.26,-16.67,-17.91,-27.67,-19.1,Standing
28:09.6,615,516,774,1001,284,2.6,384.3,1.39,119.7,282,274,92.21,272,8502,43881,1363,0.99,0.2,-0.03,-2.7,0.27,-0.95,10.74,-76.99,-29.53,-16.89,-17.93,-27.92,-19.29,Standing
28:09.7,431,513,769.5,1001,282,2.63,380.57,1.38,119.7,282,272,92.21,272,8502,52329,1635,1,0.19,-0.02,-2.52,1.78,-1.56,10.42,-77.35,-29.78,-16.91,-18.03,-28.17,-19.33,Standing
28:09.9,525,515,772.5,1001,286,2.58,388.06,1.4,119.7,282,273,92.21,272,8502,61322,1908,0.99,0.2,-0.01,-1.79,0.19,-1.19,10.57,-77.25,-29.93,-17.14,-18.08,-28.31,-19.54,Standing
28:10.0,547,517,775.5,1001,285,2.59,386.18,1.39,119.7,282,274,92.21,272,8502,70862,2182,0.99,0.2,-0.01,-1.6,1.76,-2.21,10.93,-76.89,-30.06,-17.17,-18.26,-28.42,-19.56,Standing
28:10.1,409,516,774,1001,284,2.6,384.3,1.39,119.7,282,272,92.21,272,8502,79310,2454,0.98,0.2,-0.03,-1.99,0.79,-1.08,10.9,-76.83,-30.24,-17.32,-18.29,-28.59,-19.7,Standing
28:18.2,618,618,927,618,285,2.59,386.18,1.39,0,0,272,0,0,0,16896,544,0.98,0.25,0.11,1.6,18.84,-19.76,13.78,-72.83,0.37,2.88,-3.83,0.9,-0.15,Left Fall while Standing
28:18.3,562,590,885,618,283,2.61,382.43,1.38,0,0,273,0,0,0,25889,817,0.97,0.3,0.13,1.18,13.33,-22.66,16.2,-69.93,0.58,4.26,-6.49,1.2,1.29,Left Fall while Standing
28:18.4,519,566,849,618,282,2.63,380.57,1.38,0,0,274,0,0,0,35429,1091,0.9,0.42,0.1,-0.48,-1.44,-25.35,24.23,-62.88,0.59,3.84,-9.51,1.53,1.17,Left Fall while Standing
28:18.5,493,548,822,618,281,2.64,378.71,1.37,0,0,273,0,0,0,44422,1364,0.91,0.4,0.12,4.44,-5.18,-21.78,22.95,-63.78,1.2,2.96,-12.07,2.07,0.29,Left Fall while Standing
28:18.7,367,511,766.5,618,280,2.65,376.85,1.37,0,0,271,0,0,0,52327,1635,0.88,0.43,0.08,1.59,-3.1,-25.15,25.18,-62.13,1.46,2.34,-15.05,2.41,-0.24,Left Fall while Standing
28:18.8,313,478,717,618,279,2.67,375,1.36,0,0,269,0,0,0,59152,1904,0.87,0.49,0.05,-4.4,-6.12,-20.28,28.79,-58.88,0.99,1.35,-17.42,2.1,-1.06,Left Fall while Standing
28:18.9,510,483,724.5,618,279,2.67,375,1.36,0,0,269,0,0,0,65977,2173,0.83,0.51,0.09,0.14,-3.81,-14.27,31.01,-56.22,1.08,0.63,-19.08,2.27,-1.64,Left Fall while Standing
28:19.0,342,465,697.5,618,278,2.68,373.15,1.36,0,0,270,0,0,0,73341,2443,0.82,0.54,0.08,0.8,3.2,-10.76,32.81,-54.65,1.24,0.78,-20.3,2.51,-1.44,Left Fall while Standing
28:19.2,519,471,706.5,618,280,2.65,376.85,1.37,115.88,281,270,89.83,271,8069,0,0,0.83,0.55,0.05,1.82,-1.15,-9.92,32.52,-55.16,1.54,0.39,-21.42,2.78,-1.83,Left Fall while Standing
28:19.3,643,488,732,643,282,2.63,380.57,1.38,115.88,281,271,89.83,271,8069,7905,271,0.82,0.57,0.04,-1.93,-6.26,-15.15,34.23,-53.5,1.37,-0.63,-23.2,2.68,-2.75,Left Fall while Standing
28:19.4,790,516,774,790,283,2.61,382.43,1.38,115.88,281,274,89.83,271,8069,17445,545,0.79,0.59,0.07,-2.22,-5.92,-15.44,36.08,-51.46,1.16,-1.61,-25.02,2.56,-3.61,Left Fall while Standing
28:19.5,609,523,784.5,790,280,2.65,376.85,1.37,115.88,281,272,89.83,271,8069,25893,817,0.76,0.61,0.04,-0.84,-0.66,-11.49,37.9,-49.87,1.13,-1.94,-26.34,2.6,-3.86,Left Fall while Standing
28:19.6,176,497,745.5,790,278,2.68,373.15,1.36,115.88,281,269,89.83,271,8069,32718,1086,0.75,0.63,0.04,-0.74,1.36,-8.82,39.42,-48.33,1.1,-2.02,-27.35,2.64,-3.88,Left Fall while Standing
28:19.8,247,479,718.5,790,278,2.68,373.15,1.36,115.88,281,270,89.83,271,8069,40082,1356,0.74,0.63,0.02,0.69,-2.72,-8.79,39.88,-47.94,1.26,-2.61,-28.34,2.8,-4.42,Left Fall while Standing
28:19.9,572,485,727.5,790,280,2.65,376.85,1.37,115.88,281,271,89.83,271,8069,47987,1627,0.81,0.67,-0.01,-1.6,-2.33,-11.98,38.99,-48.84,1.13,-3.14,-29.73,2.64,-4.97,Left Fall while Standing
28:20.0,764,502,753,790,279,2.67,375,1.36,115.88,281,273,89.83,271,8069,56980,1900,0.72,0.68,0.01,-9.37,0.2,-12.01,42.57,-45.26,0.04,-3.37,-31.12,1.74,-5.04,Left Fall while Standing
28:20.1,535,504,756,790,277,2.69,371.31,1.35,115.88,281,271,89.83,271,8069,64885,2171,0.71,0.7,0.05,-5.99,-0.17,-9.37,43.9,-43.79,-0.64,-3.64,-32.18,1.14,-5.24,Left Fall while Standing
28:20.3,110,482,723,790,276,2.71,369.48,1.35,115.88,281,269,89.83,271,8069,71710,2440,0.69,0.7,0.06,2.66,-0.73,-8.27,44.53,-43.13,-0.23,-3.98,-33.12,1.56,-5.54,Left Fall while Standing
28:20.4,464,481,721.5,790,276,2.71,369.48,1.35,110.7,278,269,88.62,270,7852,0,0,0.71,0.72,0.03,2.33,-0.01,-6.02,44.71,-43.06,0.12,-4.23,-33.76,1.9,-5.78,Left Fall while Standing
28:20.5,612,488,732,790,278,2.68,373.15,1.36,110.7,278,271,88.62,270,7852,7905,271,0.7,0.72,0.01,2.07,-1.66,-9.27,45.15,-42.69,0.45,-4.68,-34.81,2.23,-6.2,Left Fall while Standing
28:20.6,684,497,745.5,790,278,2.68,373.15,1.36,110.7,278,272,88.62,270,7852,16353,543,0.66,0.73,-0.02,-0.59,-3.3,-9.66,47.07,-40.75,0.44,-5.34,-35.91,2.31,-6.75,Left Fall while Standing
28:20.8,538,499,748.5,790,277,2.69,371.31,1.35,110.7,278,271,88.62,270,7852,24258,814,0.65,0.73,-0.01,-5.95,-1.81,-7.58,47.76,-40.07,-0.23,-5.81,-36.76,1.69,-7.18,Left Fall while Standing
28:20.9,583,503,754.5,790,277,2.69,371.31,1.35,110.7,278,269,88.62,270,7852,31083,1083,0.65,0.75,0.01,-4.04,-3.47,-8.56,48.56,-39.28,-0.66,-6.49,-37.73,1.31,-7.8,Left Fall while Standing
28:21.0,341,496,744,790,275,2.72,367.65,1.34,110.7,278,269,88.62,270,7852,37908,1352,0.62,0.76,0,-3.95,-2.34,-8.08,50.07,-37.77,-1.08,-7.04,-38.64,0.96,-8.26,Left Fall while Standing
28:21.1,667,503,754.5,790,278,2.68,373.15,1.36,110.7,278,270,88.62,270,7852,45272,1622,0.61,0.76,0,-2.18,1.15,-3.34,50.54,-37.3,-1.28,-7.14,-38.96,0.79,-8.35,Left Fall while Standing
28:21.3,829,515,772.5,829,278,2.68,373.15,1.36,110.7,278,273,88.62,270,7852,54265,1895,0.63,0.77,0.01,-1.66,0.85,-3.62,50.24,-37.6,-1.42,-7.28,-39.31,0.65,-8.5,Left Fall while Standing
28:21.4,553,517,775.5,829,277,2.69,371.31,1.35,110.7,278,272,88.62,270,7852,62713,2167,0.62,0.78,0.01,-0.04,-1.42,-4.57,51.01,-36.83,-1.36,-7.71,-39.77,0.74,-8.87,Left Fall while Standing
28:21.5,138,503,754.5,829,275,2.72,367.65,1.34,110.7,278,268,88.62,270,7852,69001,2435,0.6,0.78,-0.01,0.31,-1.06,-5.86,51.75,-36.08,-1.25,-8.09,-40.41,0.87,-9.21,Left Fall while Standing
28:21.6,391,499,748.5,829,274,2.73,365.82,1.34,105.01,276,269,87.07,270,7581,0,0,0.58,0.79,-0.03,-2.67,2.66,-0.96,52.95,-34.82,-1.51,-8.01,-40.43,0.67,-9.08,Left Fall while Standing
28:21.8,600,502,753,829,276,2.71,369.48,1.35,105.01,276,270,87.07,270,7581,7364,270,0.62,0.78,-0.02,-2.31,1.21,0.82,50.87,-36.95,-1.72,-8.1,-40.23,0.38,-9.26,Left Fall while Standing
28:21.9,673,508,762,829,276,2.71,369.48,1.35,105.01,276,272,87.07,270,7581,15812,542,0.63,0.78,-0.02,-2.25,2.85,-0.38,50.31,-37.52,-1.93,-8,-40.18,0.16,-9.18,Left Fall while Standing
28:22.0,489,507,760.5,829,275,2.72,367.65,1.34,105.01,276,271,87.07,270,7581,23717,813,0.59,0.78,0,-1.42,2.4,-0.44,52.05,-35.79,-2.04,-7.95,-40.14,0.12,-9.06,Left Fall while Standing
28:22.1,287,501,751.5,829,274,2.73,365.82,1.34,105.01,276,268,87.07,270,7581,30005,1081,0.54,0.8,0,-5.71,5.56,20.79,55.13,-32.71,-2.68,-7.51,-37.46,-0.37,-8.52,Left Fall while Standing
28:22.3,378,497,745.5,829,273,2.75,364,1.33,105.01,276,269,87.07,270,7581,36830,1350,0.69,0.71,0.03,-0.54,0.13,20.57,45.35,-42.42,-2.68,-7.74,-34.79,-0.76,-9.13,Left Fall while Standing
28:22.4,584,500,750,829,275,2.72,367.65,1.34,105.01,276,270,87.07,270,7581,44194,1620,0.73,0.69,0.07,19.13,15.16,4.4,42.91,-44.65,-0.22,-6.1,-34.14,1.51,-7.64,Left Fall while Standing
28:22.5,588,502,753,829,276,2.71,369.48,1.35,105.01,276,272,87.07,270,7581,52642,1892,0.75,0.7,0,-6.35,-9.33,13.36,42.47,-45.37,-0.93,-7.5,-32.39,0.8,-9.02,Left Fall while Standing
28:22.6,424,500,750,829,274,2.73,365.82,1.34,105.01,276,271,87.07,270,7581,60547,2163,0.75,0.66,-0.07,-1.18,-5.53,8.17,40.76,-46.83,-1.01,-8.43,-31.27,0.66,-9.97,Left Fall while Standing
28:22.8,384,497,745.5,829,273,2.75,364,1.33,105.01,276,269,87.07,270,7581,67372,2432,0.75,0.67,-0.07,-8.37,14.4,1.6,41.16,-46.42,-1.98,-6.9,-30.98,-0.26,-8.48,Left Fall while Standing
28:22.9,456,496,744,829,272,2.76,362.18,1.33,98.8,274,269,86.13,270,7418,0,0,0.72,0.65,-0.01,-11.78,11.37,-4.21,41.29,-46.54,-3.36,-5.74,-31.4,-1.57,-7.38,Left Fall while Standing
28:23.0,578,498,747,829,274,2.73,365.82,1.34,98.8,274,270,86.13,270,7418,7364,270,0.7,0.67,0.03,-10.53,0.76,1.88,43.27,-44.52,-4.61,-5.9,-31.07,-2.69,-7.44,Left Fall while Standing
28:23.1,553,499,748.5,829,274,2.73,365.82,1.34,98.8,274,272,86.13,270,7418,15812,542,0.69,0.67,0.04,-9.59,-7.26,12.15,43.81,-43.92,-5.73,-7.05,-29.46,-3.75,-8.52,Left Fall while Standing
28:23.2,430,497,745.5,829,274,2.73,365.82,1.34,98.8,274,272,86.13,270,7418,24260,814,0.71,0.63,0.11,-4.02,1.05,23.54,40.52,-46.58,-6.16,-7.16,-26.44,-4.29,-8.74,Left Fall while Standing
28:23.4,303,493,739.5,829,273,2.75,364,1.33,98.8,274,269,86.13,270,7418,31085,1083,0.76,0.59,0.06,-0.91,3.22,39.69,37.26,-50.34,-6.2,-7.01,-21.38,-4.46,-8.75,Left Fall while Standing
28:23.5,384,490,735,829,271,2.77,360.37,1.32,98.8,274,269,86.13,270,7418,37910,1352,0.84,0.46,0.07,-5.53,-4.44,59.15,27.95,-59.5,-6.82,-7.81,-13.95,-5.43,-9.88,Left Fall while Standing
28:23.6,561,492,738,829,275,2.72,367.65,1.34,98.8,274,269,86.13,270,7418,44735,1621,0.95,0.33,0.03,0.87,-20.18,50.98,18.38,-69.37,-6.64,-10.58,-7.48,-5.64,-12.94,Left Fall while Standing
28:23.7,565,494,741,829,274,2.73,365.82,1.34,98.8,274,271,86.13,270,7418,52640,1892,1.09,0.21,-0.01,5.44,-14.84,25.48,10.52,-77.32,-5.89,-12.67,-4.22,-5.24,-15.26,Left Fall while Standing
28:23.9,430,492,738,829,273,2.75,364,1.33,98.8,274,270,86.13,270,7418,60004,2162,1.13,0.19,-0.07,16.04,4.29,-20.86,8.93,-78.34,-3.82,-12.39,-6.73,-3.31,-15.02,Left Fall while Standing
28:24.0,886,500,750,886,272,2.76,362.18,1.33,98.8,274,267,86.13,270,7418,65757,2429,1.04,0.28,-0.1,-0.22,4.56,-53.99,14.54,-72.29,-3.78,-12.07,-13.38,-3.04,-14.47,Left Fall while Standing
28:24.1,611,503,754.5,886,273,2.75,364,1.33,95.7,273,268,84.88,269,7203,0,0,0.87,0.47,-0.1,-0.83,7.46,-59.3,27.94,-59.21,-3.81,-11.39,-20.64,-2.54,-13.3,Left Fall while Standing
28:24.2,694,506,759,886,275,2.72,367.65,1.34,95.7,273,269,84.88,269,7203,6825,269,0.8,0.56,0,-7.64,11.37,-50.75,34.15,-53.69,-4.69,-10.23,-26.83,-3.13,-11.97,Left Fall while Standing
28:24.4,581,508,762,886,274,2.73,365.82,1.34,95.7,273,271,84.88,269,7203,14730,540,0.69,0.66,0,-6.39,14,-40.75,42.96,-44.88,-5.42,-8.73,-31.83,-3.48,-10.17,Left Fall while Standing
28:24.5,276,503,754.5,886,274,2.73,365.82,1.34,95.7,273,268,84.88,269,7203,21018,808,0.62,0.73,0,-13.98,2.57,-13.27,48.96,-38.88,-7.08,-8.66,-33.37,-4.84,-9.87,Left Fall while Standing
28:24.6,360,501,751.5,886,272,2.76,362.18,1.33,95.7,273,267,84.88,269,7203,26771,1075,0.67,0.7,0.09,-5.63,0.04,3.15,45.37,-41.92,-7.71,-8.9,-32.88,-5.59,-10.22,Left Fall while Standing
28:24.7,637,503,754.5,886,273,2.75,364,1.33,95.7,273,267,84.88,269,7203,32524,1342,0.73,0.68,0.09,-0.05,-9.02,6.46,42.4,-45.01,-7.65,-10.27,-31.98,-5.65,-11.66,Left Fall while Standing
28:24.9,728,507,760.5,886,275,2.72,367.65,1.34,95.7,273,269,84.88,269,7203,39349,1611,0.76,0.65,0.04,2.17,-9.74,2.69,40.05,-47.67,-7.31,-11.74,-31.55,-5.41,-13.17,Left Fall while Standing
28:25.0,492,507,760.5,886,273,2.75,364,1.33,95.7,273,269,84.88,269,7203,46174,1880,0.75,0.67,0.01,0.76,-13.77,0.05,41.22,-46.62,-7.14,-13.71,-31.44,-5.21,-15.02,Left Fall while Standing
28:25.1,209,502,753,886,273,2.75,364,1.33,95.7,273,267,84.88,269,7203,51927,2147,0.75,0.66,-0.03,-0.67,-8.18,-4.94,40.71,-47.07,-7.16,-14.97,-31.96,-5.24,-16.25,Left Fall while Standing
28:25.2,441,501,751.5,886,271,2.77,360.37,1.32,95.7,273,267,84.88,269,7203,57680,2414,0.73,0.66,-0.07,-4.31,0.06,-3.97,41.16,-46.42,-7.63,-15.21,-32.35,-5.67,-16.46,Left Fall while Standing
28:25.4,672,504,756,886,273,2.75,364,1.33,95.7,273,268,79.97,268,6395,0,0,0.74,0.67,-0.03,-5.37,5.73,-5.52,41.66,-46.13,-8.22,-14.75,-32.94,-6.23,-16,Left Fall while Standing
28:25.5,661,506,759,886,272,2.76,362.18,1.33,95.7,273,270,79.97,268,6395,7364,270,0.72,0.68,0.01,-5.53,1.01,-6.69,42.73,-45.1,-8.84,-14.87,-33.68,-6.78,-16.08,Left Fall while Standing
28:25.6,383,504,756,886,269,2.8,356.76,1.31,95.7,273,269,79.97,268,6395,14189,539,0.69,0.7,0,-1.96,1.3,-4.97,44.7,-43.14,-9.02,-14.96,-34.2,-6.87,-16.09,Left Fall while Standing
28:25.7,148,498,747,886,268,2.82,354.97,1.31,95.7,273,266,79.97,268,6395,19409,805,0.7,0.7,0,-1.9,-2.4,-1.47,44.41,-43.43,-9.18,-15.51,-34.28,-7.04,-16.62,Left Fall while Standing
28:25.9,425,497,745.5,886,267,2.83,353.17,1.3,95.7,273,266,79.97,268,6395,24629,1071,0.68,0.69,-0.01,-1.55,-0.72,1.95,44.59,-43.24,-9.31,-15.85,-33.94,-7.15,-16.94,Left Fall while Standing
28:26.0,785,502,753,886,270,2.79,358.57,1.32,95.7,273,268,79.97,268,6395,30917,1339,0.73,0.68,0.01,-2.98,-3.11,6.78,42.46,-45.38,-9.61,-16.48,-32.99,-7.53,-17.64,Left Fall while Standing
28:26.1,536,502,753,886,268,2.82,354.97,1.31,95.7,273,269,79.97,268,6395,37742,1608,0.75,0.66,0,-1.87,-3.53,1.45,40.84,-47,-9.77,-17.17,-32.71,-7.75,-18.36,Left Fall while Standing
28:26.2,322,500,750,886,267,2.83,353.17,1.3,95.7,273,266,79.97,268,6395,42962,1874,0.75,0.67,-0.04,-0.95,-0.08,-2.11,41.32,-46.45,-9.82,-17.43,-32.88,-7.77,-18.59,Left Fall while Standing
28:26.4,417,498,747,886,265,2.86,349.6,1.3,95.7,273,266,79.97,268,6395,48182,2140,0.72,0.68,-0.04,-5.01,0.12,-1.23,42.63,-45.12,-10.38,-17.66,-32.93,-8.26,-18.76,Left Fall while Standing
28:26.5,762,502,753,886,269,2.8,356.76,1.31,95.7,273,267,79.97,268,6395,53935,2407,0.73,0.68,-0.03,-6.24,-1.82,0.02,42.11,-45.67,-11.09,-18.14,-32.83,-8.96,-19.24,Left Fall while Standing
28:26.6,648,504,756,886,268,2.82,354.97,1.31,80.32,268,269,77.95,267,6075,0,0,0.72,0.68,-0.02,-3.89,2.88,2.1,42.67,-45.15,-11.5,-18.03,-32.47,-9.33,-19.12,Left Fall while Standing
28:26.7,423,503,754.5,886,267,2.83,353.17,1.3,80.32,268,268,77.95,267,6075,6288,268,0.73,0.67,-0.02,-4.72,-1.98,8.67,42.04,-45.78,-12.02,-18.53,-31.29,-9.86,-19.62,Left Fall while Standing
28:26.9,291,500,750,886,266,2.85,351.39,1.3,80.32,268,266,77.95,267,6075,11508,534,0.75,0.64,-0.01,-3.4,-0.42,11.68,40.01,-47.82,-12.37,-18.83,-29.75,-10.28,-19.99,Left Fall while Standing
28:27.0,527,500,750,886,266,2.85,351.39,1.3,80.32,268,266,77.95,267,6075,16728,800,0.77,0.63,-0.01,-2.87,-1.35,13.29,38.4,-49.43,-12.66,-19.25,-27.97,-10.62,-20.46,Left Fall while Standing
28:27.1,663,503,754.5,886,269,2.8,356.76,1.31,80.32,268,268,77.95,267,6075,23016,1068,0.78,0.61,-0.02,-0.82,1.81,17.87,37.27,-50.53,-12.69,-19.28,-25.64,-10.7,-20.53,Left Fall while Standing
28:27.2,492,503,754.5,886,267,2.83,353.17,1.3,80.32,268,268,77.95,267,6075,29304,1336,0.79,0.56,0,-2.14,2.16,28.05,34.76,-53.08,-12.89,-19.26,-22.03,-10.99,-20.61,Left Fall while Standing
28:27.4,313,500,750,886,267,2.83,353.17,1.3,80.32,268,266,77.95,267,6075,34524,1602,0.86,0.49,-0.04,-4.32,0.86,36.15,29.24,-58.49,-13.36,-19.4,-17.45,-11.65,-20.96,Left Fall while Standing
28:27.5,474,500,750,886,267,2.83,353.17,1.3,80.32,268,266,77.95,267,6075,39744,1868,0.91,0.42,-0.03,-4.97,2.79,38.8,24.24,-63.54,-13.91,-19.3,-12.47,-12.39,-21.07,Left Fall while Standing
28:27.6,996,506,759,996,269,2.8,356.76,1.31,80.32,268,267,77.95,267,6075,45497,2135,0.94,0.32,-0.01,-6.73,1.79,36.4,17.93,-69.89,-14.69,-19.32,-7.82,-13.38,-21.35,Left Fall while Standing
28:27.7,497,506,759,996,268,2.82,354.97,1.31,80.32,268,269,77.95,267,6075,52322,2404,1,0.25,-0.01,-4.2,0.18,28.56,13.5,-74.32,-15.14,-19.55,-4.15,-13.99,-21.74,Left Fall while Standing
28:27.9,390,505,757.5,996,268,2.82,354.97,1.31,77.25,267,266,75.86,267,5753,0,0,1.02,0.19,0.02,-7.32,-11.82,16.22,10.2,-77.59,-15.98,-21.27,-2.04,-14.93,-23.52,Left Fall while Standing
28:28.0,446,504,756,996,267,2.83,353.17,1.3,77.25,267,266,75.86,267,5753,5220,266,1,0.17,-0.01,-6.74,-15.52,13.16,9.31,-78.52,-16.75,-23.46,-0.29,-15.71,-25.66,Left Fall while Standing
28:28.1,558,504,756,996,270,2.79,358.57,1.32,77.25,267,267,75.86,267,5753,10973,533,1.01,0.15,-0.06,0.34,-3.62,10.54,7.69,-79.44,-16.64,-24.16,1.12,-15.67,-26.37,Left Fall while Standing
28:28.2,598,506,759,996,270,2.79,358.57,1.32,77.25,267,268,75.86,267,5753,17261,801,1.03,0.12,-0.08,3.31,2.21,8.82,6.12,-80.5,-16.16,-24.13,2.31,-15.27,-26.39,Left Fall while Standing
28:28.4,519,506,759,996,270,2.79,358.57,1.32,77.25,267,268,75.86,267,5753,23549,1069,1.02,0.12,-0.07,5.5,5.76,6.31,6.11,-80.67,-15.41,-23.67,3.19,-14.55,-25.95,Left Fall while Standing
28:28.5,408,505,757.5,996,270,2.79,358.57,1.32,77.25,267,266,75.86,267,5753,28769,1335,1.02,0.1,-0.05,-0.95,-3.01,9.24,5.01,-82.13,-15.45,-24.29,4.45,-14.64,-26.6,Left Fall while Standing
28:28.6,476,504,756,996,268,2.82,354.97,1.31,77.25,267,266,75.86,267,5753,33989,1601,1.03,0.07,-0.07,-1.05,2.47,6.08,3.35,-82.95,-15.52,-24.23,5.3,-14.76,-26.58,Left Fall while Standing
28:28.7,553,505,757.5,996,271,2.77,360.37,1.32,77.25,267,267,75.86,267,5753,39742,1868,1.06,0.05,-0.09,-0.23,6.01,0.17,2.32,-82.97,-15.47,-23.73,5.42,-14.76,-26.1,Left Fall while Standing
28:28.9,622,506,759,996,272,2.76,362.18,1.33,77.25,267,269,75.86,267,5753,46567,2137,1.03,0.06,-0.06,-1.51,6.17,-5.24,2.89,-83.52,-15.59,-23.21,4.86,-14.85,-25.62,Left Fall while Standing
28:29.0,437,505,757.5,996,271,2.77,360.37,1.32,77.25,267,268,75.86,267,5753,52855,2405,1.01,0.07,-0.03,-5.45,-1.69,-3.86,3.53,-83.95,-16.19,-23.67,4.48,-15.41,-26.08,Left Fall while Standing
28:35.2,496,496,744,496,264,2.88,347.83,1.29,0,0,261,0,0,0,5693,523,1.02,0.1,-0.06,-2.3,2.74,-5.59,4.99,-81.94,-0.49,-0.31,-0.91,-0.27,-3.58,Right Fall while Standing
28:35.3,417,456,684,496,264,2.88,347.83,1.29,0,0,259,0,0,0,7238,782,1,0.1,-0.08,-1.1,4.28,-1.85,5.17,-81.18,-0.56,-0.03,-1.04,-0.33,-3.28,Right Fall while Standing
28:35.5,374,429,643.5,496,263,2.89,346.05,1.29,0,0,258,0,0,0,8266,1040,1,0.08,-0.06,-4.11,4.92,1.08,4.16,-82.48,-0.99,0.33,-0.81,-0.79,-2.99,Right Fall while Standing
28:35.6,339,406,609,496,262,2.9,344.28,1.28,0,0,258,0,0,0,9294,1298,1.01,0.09,-0.04,-12.72,2.31,4.86,4.74,-82.6,-2.48,0.36,-0.12,-2.19,-2.96,Right Fall while Standing
28:35.7,426,410,615,496,263,2.89,346.05,1.29,0,0,260,0,0,0,11358,1558,1.01,0.08,-0.04,2.63,10.28,6.85,4.06,-83.24,-2.09,1.37,0.82,-1.84,-2.01,Right Fall while Standing
28:35.8,499,425,637.5,499,264,2.88,347.83,1.29,0,0,261,0,0,0,13943,1819,1.01,0.03,-0.03,2.79,12.69,15.21,1.01,-85.98,-1.68,2.68,2.77,-1.57,-0.87,Right Fall while Standing
28:35.9,561,444,666,561,267,2.83,353.17,1.3,0,0,262,0,0,0,17051,2081,1.03,0.02,0,-8.4,3.58,15.96,0.26,-87.57,-2.63,2.87,4.81,-2.52,-0.75,Right Fall while Standing
28:36.1,596,463,694.5,596,266,2.85,351.39,1.3,0,0,262,0,0,0,20159,2343,1.04,-0.03,0.05,-4.25,2.11,12.16,-2.48,-85.26,-3.08,2.89,6.39,-3.06,-0.64,Right Fall while Standing
28:36.2,582,476,714,596,266,2.85,351.39,1.3,66.53,264,265,49.84,260,2483,0,0,1.01,-0.08,0.02,3.41,10.58,14.77,-5.19,-83.7,-2.6,3.94,8.31,-2.7,0.44,Right Fall while Standing
28:36.3,522,481,721.5,596,265,2.86,349.6,1.3,66.53,264,264,49.84,260,2483,4160,264,0.98,-0.1,0.04,-3.83,3.36,19.85,-6.61,-81.91,-3,4.11,10.86,-3.15,0.67,Right Fall while Standing
28:36.4,398,473,709.5,596,265,2.86,349.6,1.3,66.53,264,261,49.84,260,2483,6745,525,0.99,-0.16,0.09,-1.47,3.01,19.95,-9.43,-78.3,-3.11,4.23,13.42,-3.37,0.93,Right Fall while Standing
28:36.6,385,466,699,596,263,2.89,346.05,1.29,66.53,264,260,49.84,260,2483,8809,785,0.98,-0.17,0.08,6.53,8.27,20.54,-10.51,-77.5,-2.23,5.01,16.06,-2.57,1.71,Right Fall while Standing
28:36.7,468,466,699,596,263,2.89,346.05,1.29,66.53,264,261,49.84,260,2483,11394,1046,0.98,-0.23,0.07,7.66,8.31,28.53,-13.73,-74.69,-1.22,5.79,19.7,-1.72,2.57,Right Fall while Standing
28:36.8,603,476,714,603,267,2.83,353.17,1.3,66.53,264,262,49.84,260,2483,14502,1308,0.96,-0.3,0.1,1.74,3.73,36.31,-17.91,-70.04,-0.93,6.01,24.3,-1.61,2.97,Right Fall while Standing
28:36.9,586,483,724.5,603,266,2.85,351.39,1.3,66.53,264,265,49.84,260,2483,19191,1573,0.95,-0.37,0.12,5.78,2.71,30.83,-21.8,-66.05,-0.15,6.1,28.19,-1.02,3.21,Right Fall while Standing
28:37.1,528,486,729,603,265,2.86,349.6,1.3,66.53,264,264,49.84,260,2483,23351,1837,0.93,-0.43,0.12,-2.62,7.61,17.33,-25.4,-62.66,-0.41,6.79,30.43,-1.41,4.01,Right Fall while Standing
28:37.2,390,480,720,603,264,2.88,347.83,1.29,66.53,264,260,49.84,260,2483,25415,2097,0.9,-0.46,0.11,2.58,3.21,18.69,-27.38,-60.74,-0.02,6.94,32.85,-1.11,4.23,Right Fall while Standing
28:37.3,389,475,712.5,603,262,2.9,344.28,1.28,66.53,264,253,49.84,260,2483,23888,2350,0.89,-0.5,0.1,-1.79,-2.05,17.32,-29.65,-58.68,-0.17,6.44,35.1,-1.35,3.83,Right Fall while Standing
28:37.4,497,476,714,603,263,2.89,346.05,1.29,65.73,264,226,30.69,257,941,0,0,0.87,-0.53,0.13,-1.52,0.29,13.95,-31.75,-56.21,-0.29,6.23,36.91,-1.55,3.73,Right Fall while Standing
28:37.6,516,478,717,603,263,2.89,346.05,1.29,65.73,264,257,30.69,257,941,513,257,0.86,-0.55,0.1,-3.89,0.36,10.47,-32.86,-55.54,-0.7,6.02,38.31,-1.99,3.56,Right Fall while Standing
28:37.7,585,483,724.5,603,263,2.89,346.05,1.29,65.73,264,262,30.69,257,941,3621,519,0.85,-0.57,0.12,-5.15,2.68,6.44,-34.43,-53.78,-1.27,6.11,39.2,-2.6,3.71,Right Fall while Standing
28:37.8,527,485,727.5,603,263,2.89,346.05,1.29,65.73,264,260,30.69,257,941,5685,779,0.82,-0.59,0.14,-0.08,2.89,5.84,-35.75,-52.14,-1.21,6.22,40.02,-2.59,3.88,Right Fall while Standing
28:37.9,438,483,724.5,603,262,2.9,344.28,1.28,65.73,264,257,30.69,257,941,6198,1036,0.81,-0.6,0.12,-1.66,-0.13,1.77,-36.5,-51.69,-1.35,5.95,40.34,-2.75,3.65,Right Fall while Standing
28:38.0,426,481,721.5,603,261,2.92,342.52,1.28,65.73,264,258,30.69,257,941,7226,1294,0.81,-0.59,0.11,-1.66,-0.88,3.97,-36.32,-51.97,-1.48,5.6,40.93,-2.88,3.29,Right Fall while Standing
28:38.2,541,483,724.5,603,263,2.89,346.05,1.29,65.73,264,259,30.69,257,941,8771,1553,0.79,-0.59,0.1,-1.76,-7.05,12.03,-36.97,-51.44,-1.63,4.48,42.5,-3.05,2.25,Right Fall while Standing
28:38.3,530,485,727.5,603,265,2.86,349.6,1.3,65.73,264,261,30.69,257,941,11356,1814,0.8,-0.63,0.11,-3.02,-1.76,4.76,-38.7,-49.57,-1.94,4.02,43.19,-3.41,1.87,Right Fall while Standing
28:38.4,595,489,733.5,603,264,2.88,347.83,1.29,65.73,264,263,30.69,257,941,14989,2077,0.8,-0.64,0.08,0.39,-0.6,4.69,-38.88,-49.75,-1.82,3.7,43.87,-3.3,1.56,Right Fall while Standing
28:38.5,488,489,733.5,603,264,2.88,347.83,1.29,65.73,264,260,30.69,257,941,17053,2337,0.78,-0.65,0.08,-1.31,1.56,6.63,-40.37,-48.25,-1.91,3.64,44.79,-3.45,1.57,Right Fall while Standing
28:38.7,364,485,727.5,603,260,2.93,340.76,1.27,59.41,262,208,20724.29,254,429496192,0,0,0.78,-0.67,0.11,-6.76,-4.13,1.5,-41,-47.37,-2.68,2.88,45.08,-4.21,0.87,Right Fall while Standing
28:38.8,385,481,721.5,603,258,2.97,337.25,1.26,59.41,262,211,20724.29,254,429496192,4294946281,211,0.77,-0.67,0.09,-1.06,-0.77,1.19,-41.33,-47.23,-2.74,2.53,45.33,-4.29,0.54,Right Fall while Standing
28:38.9,507,482,723,603,257,2.98,335.51,1.26,59.41,262,219,20724.29,254,429496192,4294928706,430,0.76,-0.66,0.07,-2.28,-5.82,4.62,-41.41,-47.28,-2.96,1.55,46.01,-4.5,-0.41,Right Fall while Standing
28:39.0,423,480,720,603,255,3.01,332.03,1.25,59.41,262,215,20724.29,254,429496192,4294909395,645,0.76,-0.69,0.03,-7.99,-5.27,5.14,-42.42,-46.52,-3.9,0.62,46.76,-5.45,-1.26,Right Fall while Standing
28:39.2,393,478,717,603,252,3.06,326.85,1.23,59.41,262,237,20724.29,254,429496192,4294900028,882,0.76,-0.68,0.06,-3.9,-3.15,3.28,-42.6,-46.18,-4.33,-0.02,47.27,-5.86,-1.87,Right Fall while Standing
28:39.3,581,481,721.5,603,257,2.98,335.51,1.26,59.41,262,240,20724.29,254,429496192,4294892092,1122,0.72,-0.71,0.05,-0.72,-0.81,1.71,-44.88,-44,-4.35,-0.38,47.59,-5.97,-2.13,Right Fall while Standing
28:39.4,587,484,726,603,256,3,333.77,1.25,59.41,262,223,20724.29,254,429496192,4294876285,1345,0.74,-0.7,0.03,-1.43,-1.37,3.63,-44,-44.96,-4.45,-0.81,48.15,-6.04,-2.57,Right Fall while Standing
28:39.6,455,483,724.5,603,254,3.03,330.3,1.24,59.41,262,246,20724.29,254,429496192,4294871265,1591,0.74,-0.71,0.02,0.23,2.5,2.4,-44.06,-44.91,-4.35,-0.74,48.55,-5.94,-2.51,Right Fall while Standing
28:39.7,515,484,726,603,258,2.97,337.25,1.26,59.41,262,256,20724.29,254,429496192,4294871265,1847,0.74,-0.71,0.04,-2.11,0.5,0.3,-44.23,-44.69,-4.55,-0.93,48.69,-6.14,-2.68,Right Fall while Standing
28:39.8,583,486,729,603,256,3,333.77,1.25,59.41,262,227,20724.29,254,429496192,4294857258,2074,0.73,-0.71,0.04,-2.08,1.09,-2.82,-44.62,-44.29,-4.74,-1.05,48.43,-6.34,-2.78,Right Fall while Standing
28:39.9,422,485,727.5,603,254,3.03,330.3,1.24,20724.3,255,252,20724.03,232,429485536,0,0,0.75,-0.71,0.03,-2.11,1.22,-2.28,-44.34,-44.61,-4.94,-1.14,48.24,-6.51,-2.88,Right Fall while Standing
28:40.1,493,485,727.5,603,256,3,333.77,1.25,20724.3,255,221,20724.03,232,429485536,4294950601,221,0.73,-0.71,0.04,-2.63,2.15,0.6,-44.51,-44.41,-5.2,-1.12,48.42,-6.77,-2.86,Right Fall while Standing
28:40.2,650,489,733.5,650,257,2.98,335.51,1.26,20724.3,255,253,20724.03,232,429485536,4294949074,474,0.72,-0.73,0.03,-0.22,0.88,-0.33,-45.64,-43.32,-5.16,-1.27,48.48,-6.78,-2.95,Right Fall while Standing
28:40.3,404,487,730.5,650,256,3,333.77,1.25,20724.3,255,228,20724.03,232,429485536,4294935522,702,0.74,-0.71,0.03,-1.12,-0.24,-2.28,-44.26,-44.7,-5.23,-1.55,48.29,-6.79,-3.28,Right Fall while Standing
28:40.4,454,486,729,650,256,3,333.77,1.25,20724.3,255,222,20724.03,232,429485536,4294919270,924,0.74,-0.72,0.03,-2.08,1.63,-2.88,-44.64,-44.31,-5.42,-1.6,48.02,-6.99,-3.31,Right Fall while Standing
28:40.6,590,488,732,650,257,2.98,335.51,1.26,20724.3,255,246,20724.03,232,429485536,4294914250,1170,0.74,-0.72,0.01,-3.36,2.69,-3.59,-44.45,-44.55,-5.78,-1.51,47.67,-7.32,-3.23,Right Fall while Standing
28:40.7,405,486,729,650,255,3.01,332.03,1.25,20724.3,255,235,20724.03,232,429485536,4294903939,1405,0.76,-0.7,0.04,-3.16,3.23,-4.82,-43.14,-45.76,-6.11,-1.35,47.15,-7.59,-3.13,Right Fall while Standing
28:40.8,518,487,730.5,650,257,2.98,335.51,1.26,20724.3,255,255,20724.03,232,429485536,4294903428,1660,0.76,-0.7,0.05,-0.93,3.37,-5.72,-43.24,-45.62,-6.16,-1.18,46.53,-7.64,-2.96,Right Fall while Standing
28:40.9,507,488,732,650,258,2.97,337.25,1.26,20724.3,255,260,20724.03,232,429485536,4294905492,1920,0.75,-0.69,0.05,-0.98,3.12,-7.13,-43.01,-45.87,-6.21,-1.04,45.73,-7.68,-2.83,Right Fall while Standing
28:41.1,319,484,726,650,256,3,333.77,1.25,20724.3,255,259,20724.03,232,429485536,4294907037,2179,0.75,-0.67,0.05,-2.05,1.95,-5.85,-42.01,-46.87,-6.4,-1.05,45.08,-7.82,-2.88,Right Fall while Standing
28:41.2,447,483,724.5,650,259,2.95,339.01,1.27,18.97,256,263,20724.17,244,429491072,0,0,0.77,-0.68,0.04,-1.63,0.97,-2.73,-41.91,-46.99,-6.53,-1.17,44.84,-7.95,-3.01,Right Fall while Standing
28:41.3,553,485,727.5,650,258,2.97,337.25,1.26,18.97,256,269,20724.17,244,429491072,6825,269,0.77,-0.68,0.05,-2.16,0.5,-1.43,-41.88,-46.98,-6.73,-1.36,44.76,-8.14,-3.19,Right Fall while Standing
28:41.5,445,484,726,650,257,2.98,335.51,1.26,18.97,256,266,20724.17,244,429491072,12045,535,0.8,-0.67,0.05,-1.16,1.34,-3.6,-40.31,-48.54,-6.81,-1.45,44.41,-8.15,-3.33,Right Fall while Standing
28:41.6,733,489,733.5,733,255,3.01,332.03,1.25,18.97,256,268,20724.17,244,429491072,18333,803,0.81,-0.66,0.06,0.55,3.11,-11.98,-39.72,-49.11,-6.67,-1.31,43,-7.99,-3.22,Right Fall while Standing
28:41.7,458,488,732,733,259,2.95,339.01,1.27,18.97,256,272,20724.17,244,429491072,26781,1075,0.8,-0.64,0.06,0.52,5.11,-22.83,-39,-49.82,-6.53,-0.91,40.22,-7.83,-2.87,Right Fall while Standing
28:41.8,601,490,735,733,259,2.95,339.01,1.27,18.97,256,276,20724.17,244,429491072,37421,1351,0.8,-0.59,0.06,-9.84,3.04,-22.46,-37.03,-51.76,-7.7,-0.78,37.49,-8.88,-2.82,Right Fall while Standing
28:42.0,423,489,733.5,733,258,2.97,337.25,1.26,18.97,256,272,20724.17,244,429491072,45869,1623,0.89,-0.54,0.06,-7.93,-2.13,-25.26,-31.74,-57.02,-8.63,-1.3,34.41,-9.55,-3.53,Right Fall while Standing
28:42.1,491,489,733.5,733,258,2.97,337.25,1.26,18.97,256,274,20724.17,244,429491072,55409,1897,0.9,-0.5,0.07,-2.8,3.28,-31.44,-29.47,-59.21,-8.91,-1.14,30.55,-9.74,-3.46,Right Fall while Standing
28:42.2,566,490,735,733,261,2.92,342.52,1.28,18.97,256,279,20724.17,244,429491072,67714,2176,0.93,-0.44,0.06,-1.69,8.61,-40.11,-25.85,-62.89,-9.06,-0.31,25.59,-9.73,-2.81,Right Fall while Standing
28:42.3,466,490,735,733,260,2.93,340.76,1.27,18.97,256,277,20724.17,244,429491072,78907,2453,0.96,-0.35,0.1,-3.48,4.89,-46.21,-20.46,-67.63,-9.42,0.06,19.87,-9.87,-2.65,Right Fall while Standing
28:42.5,395,488,732,733,258,2.97,337.25,1.26,34.42,258,276,94.63,272,8953,0,0,1,-0.27,0.06,6.98,-9.73,-40.31,-15.85,-72.73,-8.5,-1.39,15.01,-8.79,-4.24,Right Fall while Standing
28:42.6,505,489,733.5,733,260,2.93,340.76,1.27,34.42,258,276,94.63,272,8953,10640,276,1.02,-0.22,0.08,-11.19,8.42,-27.8,-12.47,-75.79,-9.83,-0.58,11.63,-9.93,-3.59,Right Fall while Standing
28:42.7,566,490,735,733,262,2.9,344.28,1.28,34.42,258,278,94.63,272,8953,22388,554,1.05,-0.16,0.08,-17.15,7.81,-33.71,-9.33,-78.71,-11.88,0.14,7.55,-11.78,-3.02,Right Fall while Standing
28:42.8,562,491,736.5,733,262,2.9,344.28,1.28,34.42,258,279,94.63,272,8953,34693,833,1.02,-0.08,0.07,-13.53,-1.67,-43.97,-4.97,-82.54,-13.5,-0.32,2.15,-13.16,-3.61,Right Fall while Standing
28:43.0,408,490,735,733,262,2.9,344.28,1.28,34.42,258,277,94.63,272,8953,45886,1110,0.95,0.02,0.02,-17.3,0.33,-34.44,0.36,-87.1,-15.6,-0.53,-2.05,-14.96,-3.99,Right Fall while Standing
28:43.1,422,489,733.5,733,260,2.93,340.76,1.27,34.42,258,276,94.63,272,8953,56526,1386,0.95,0.06,0.05,-15.34,-9.94,-17.34,2.99,-83.86,-17.43,-2.01,-4.11,-16.61,-5.29,Right Fall while Standing
28:43.2,506,489,733.5,733,263,2.89,346.05,1.29,34.42,258,277,94.63,272,8953,67719,1663,0.98,0.07,0.15,-10.89,-12.87,-5.97,3.33,-79.03,-18.72,-3.87,-4.75,-17.84,-6.88,Right Fall while Standing
28:43.3,596,490,735,733,264,2.88,347.83,1.29,34.42,258,279,94.63,272,8953,80024,1942,1.05,0.07,0.05,6.67,13.52,-6.89,3.44,-83.57,-17.82,-2.44,-5.51,-16.97,-5.69,Right Fall while Standing
28:43.5,947,497,745.5,947,263,2.89,346.05,1.29,34.42,258,278,94.63,272,8953,91772,2220,1,0.11,0.02,-13.02,2.29,-22.15,5.79,-81.95,-19.38,-2.41,-8.18,-18.37,-5.59,Right Fall while Standing
28:43.6,414,496,744,947,261,2.92,342.52,1.28,34.42,258,275,94.63,272,8953,101861,2495,0.97,0.2,0.02,-22.69,-24.29,-3.15,11.18,-76.57,-22.15,-5.69,-8.47,-20.81,-8.53,Right Fall while Standing
28:43.7,489,496,744,947,262,2.9,344.28,1.28,55.29,261,276,106.07,277,11249,0,0,1,0.13,0.02,-11.02,-6.4,4.65,6.74,-81.02,-23.45,-6.73,-7.8,-22.24,-9.71,Right Fall while Standing
28:43.8,538,496,744,947,264,2.88,347.83,1.29,55.29,261,276,106.07,277,11249,10640,276,1.06,0.14,0,-0.04,3.91,-0.34,6.84,-80.99,-23.38,-6.5,-7.74,-22.17,-9.48,Right Fall while Standing
28:44.0,594,498,747,947,264,2.88,347.83,1.29,55.29,261,278,106.07,277,11249,22388,554,1.02,0.13,0.03,-1.1,-7.52,-8.46,6.65,-81.05,-23.45,-7.68,-8.69,-22.24,-10.61,Right Fall while Standing
28:44.1,503,498,747,947,263,2.89,346.05,1.29,55.29,261,275,106.07,277,11249,32477,829,0.99,0.16,0,-0.91,-8.65,-6.79,8.77,-79.07,-23.49,-9.01,-9.44,-22.2,-11.81,Right Fall while Standing
28:44.2,410,497,745.5,947,261,2.92,342.52,1.28,55.29,261,274,106.07,277,11249,42017,1103,0.99,0.18,-0.03,0.08,-0.15,-0.66,9.68,-78.03,-23.41,-9.28,-9.43,-22.09,-12.03,Right Fall while Standing
28:44.3,504,497,745.5,947,263,2.89,346.05,1.29,55.29,261,275,106.07,277,11249,52106,1378,0.98,0.16,-0.05,3.12,-0.13,1.71,8.91,-78.44,-22.95,-9.54,-9.11,-21.68,-12.3,Right Fall while Standing
28:44.5,556,498,747,947,263,2.89,346.05,1.29,55.29,261,276,106.07,277,11249,62746,1654,1,0.14,-0.03,-0.77,-2.88,1.88,7.59,-80.05,-22.98,-10.15,-8.78,-21.75,-12.95,Right Fall while Standing
28:44.6,441,497,745.5,947,262,2.9,344.28,1.28,55.29,261,274,106.07,277,11249,72286,1928,1,0.14,-0.07,-1.47,-0.25,0.81,7.57,-79.45,-23.09,-10.43,-8.58,-21.86,-13.19,Right Fall while Standing
28:44.7,346,495,742.5,947,260,2.93,340.76,1.27,55.29,261,273,106.07,277,11249,81279,2201,1.01,0.15,-0.1,-3.64,-2.47,2.31,7.74,-78.3,-23.47,-10.99,-8.19,-22.23,-13.69,Right Fall while Standing
28:48.1,764,764,1146,764,260,2.93,340.76,1.27,0,0,269,0,0,0,13650,538,1.02,0.03,0,-1.4,-36.34,-3.48,0.89,-86.95,0.46,-7.69,-0.25,0.48,-10.86,Forward Fall while Standing
28:48.2,584,674,1011,764,262,2.9,344.28,1.28,0,0,270,0,0,0,21014,808,0.98,0.03,-0.12,-3.42,-45.81,0.4,1.37,-81.4,0.11,-13.57,-0.11,0.16,-16.28,Forward Fall while Standing
28:48.4,586,644,966,764,261,2.92,342.52,1.28,0,0,269,0,0,0,27839,1077,0.96,0,-0.15,0.69,-40.15,7.07,-0.81,-79.68,0.26,-18.75,0.86,0.22,-21.19,Forward Fall while Standing
28:48.5,437,592,888,764,256,3,333.77,1.25,0,0,201,0,0,0,2704,1278,0.91,-0.02,-0.13,2.47,-30.43,7.63,-1.99,-80.42,0.64,-22.74,1.89,0.53,-25.05,Forward Fall while Standing
28:48.6,375,549,823.5,764,253,3.04,328.57,1.24,0,0,199,0,0,0,4294944065,1477,1.04,-0.05,-0.4,-0.14,-13.18,2.87,-3.01,-67.35,0.69,-24.61,2.34,0.54,-26.32,Forward Fall while Standing
28:48.7,292,506,759,764,250,3.09,323.42,1.22,0,0,195,0,0,0,4294916554,1672,1.02,-0.05,-0.42,3.11,-18.36,3.94,-3.18,-65.9,1.14,-27.14,2.93,0.97,-28.69,Forward Fall while Standing
28:48.9,465,500,750,764,248,3.13,320,1.21,0,0,197,0,0,0,4294889827,1869,0.96,-0.01,-0.45,-4.42,-8.41,-3.47,-1.2,-63.38,0.67,-28.42,2.6,0.59,-29.81,Forward Fall while Standing
28:49.0,586,511,766.5,764,249,3.11,321.71,1.22,0,0,196,0,0,0,4294862707,2065,0.96,-0.05,-0.43,-6.8,-7.44,-5.34,-3.28,-64.2,-0.11,-29.59,2.04,-0.23,-30.97,Forward Fall while Standing
28:49.1,624,523,784.5,764,249,3.11,321.71,1.22,20724.29,254,199,20723.99,226,429483680,0,0,0.95,-0.03,-0.43,-5.43,-12.89,-3.09,-2.12,-63.85,-0.71,-31.45,1.75,-0.77,-32.74,Forward Fall while Standing
28:49.2,412,512,768,764,246,3.16,316.6,1.2,20724.29,254,196,20723.99,226,429483680,4294940176,196,0.93,-0.01,-0.5,-6.61,-20.66,-4.69,-1.22,-60.29,-1.49,-34.35,1.25,-1.48,-35.39,Forward Fall while Standing
28:49.4,449,506,759,764,244,3.19,313.22,1.19,20724.29,254,193,20723.99,226,429483680,4294911889,389,0.9,-0.02,-0.48,-4.98,-8.24,0.95,-1.44,-60.34,-2.05,-35.65,1.47,-2.03,-36.64,Forward Fall while Standing
28:49.5,609,515,772.5,764,245,3.18,314.91,1.2,20724.29,254,197,20723.99,226,429483680,4294885162,586,0.82,-0.02,-0.48,-2.5,-12.26,-0.11,-1.95,-58.18,-2.3,-37.47,1.56,-2.29,-38.3,Forward Fall while Standing
28:49.6,284,497,745.5,764,243,3.21,311.54,1.19,20724.29,254,193,20723.99,226,429483680,4294856875,779,0.89,-0.02,-0.57,-7.14,-23.69,1.08,-1.5,-55.74,-3.13,-40.74,1.8,-3.07,-41.34,Forward Fall while Standing
28:49.7,517,498,747,764,240,3.26,306.51,1.17,20724.29,254,193,20723.99,226,429483680,4294828588,972,0.88,-0.03,-0.58,-2.55,-12.38,1.73,-1.98,-55.31,-3.39,-42.56,2.12,-3.33,-43.07,Forward Fall while Standing
28:49.9,590,504,756,764,241,3.24,308.18,1.18,20724.29,254,198,20723.99,226,429483680,4294802256,1170,0.87,-0.04,-0.61,-1.56,-3.28,-0.06,-2.74,-53.38,-3.52,-43.24,2.21,-3.48,-43.65,Forward Fall while Standing
28:50.0,317,493,739.5,764,239,3.28,304.85,1.17,20724.29,254,192,20723.99,226,429483680,4294773584,1362,0.89,-0.04,-0.6,2.37,-5.06,-2.89,-2.6,-54.2,-3.14,-44.14,1.94,-3.12,-44.54,Forward Fall while Standing
28:50.1,691,504,756,764,241,3.24,308.18,1.18,20724.29,254,199,20723.99,226,429483680,4294747649,1561,0.85,-0.04,-0.64,-0.02,-3.63,-0.16,-2.89,-51.18,-3.08,-44.86,2.02,-3.07,-45.11,Forward Fall while Standing
28:50.2,578,508,762,764,244,3.19,313.22,1.19,20724.29,254,210,20723.99,226,429483680,4294726213,1771,0.85,-0.05,-0.63,-0.21,-3.66,-1.61,-3.26,-52.08,-3.03,-45.58,1.92,-3.04,-45.84,Forward Fall while Standing
28:50.4,393,502,753,764,241,3.24,308.18,1.18,20724.14,242,241,20723.7,201,429471872,0,0,0.82,-0.03,-0.64,-2.95,-13.28,-0.94,-2.34,-50.16,-3.33,-47.5,1.9,-3.29,-47.61,Forward Fall while Standing
28:50.5,590,507,760.5,764,242,3.23,309.86,1.18,20724.14,242,198,20723.7,201,429471872,4294940964,198,0.83,-0.03,-0.72,-4.37,-13.18,0.69,-2.39,-47.25,-3.82,-49.43,2.09,-3.76,-49.34,Forward Fall while Standing
28:50.6,553,509,763.5,764,245,3.18,314.91,1.2,20724.14,242,234,20723.7,201,429471872,4294930184,432,1.15,-0.14,-0.89,3.74,-10.41,1.44,-6.06,-50.43,-3.27,-51.02,2.37,-3.38,-51,Forward Fall while Standing
28:50.8,292,499,748.5,764,241,3.24,308.18,1.18,20724.14,242,197,20723.7,201,429471872,4294903457,629,0.78,-0.06,-0.7,-3.37,-8.73,4.5,-4.04,-46.18,-3.62,-52.38,3.04,-3.64,-52.13,Forward Fall while Standing
28:50.9,567,502,753,764,243,3.21,311.54,1.19,20724.14,242,199,20723.7,201,429471872,4294877522,828,0.78,-0.06,-0.7,-5.55,-15.62,5.18,-4,-46.42,-4.26,-54.62,3.8,-4.25,-54.29,Forward Fall while Standing
28:51.0,535,503,754.5,764,243,3.21,311.54,1.19,20724.14,242,200,20723.7,201,429471872,4294851986,1028,0.75,-0.09,-0.76,0.51,-21.77,-2.15,-5.14,-43.06,-4.12,-57.66,3.63,-4.16,-57.08,Forward Fall while Standing
28:51.1,379,498,747,764,237,3.32,301.53,1.16,20724.14,242,240,20723.7,201,429471872,4294844050,1268,0.66,-0.03,-0.79,3.98,-16.87,1.13,-2.28,-38.35,-3.54,-60.06,3.87,-3.49,-59.19,Forward Fall while Standing
28:51.3,518,499,748.5,764,242,3.23,309.86,1.18,20724.14,242,232,20723.7,201,429471872,4294832338,1500,0.67,-0.07,-0.84,2.78,-26.13,2.97,-4.37,-36.7,-3.12,-63.63,4.35,-3.17,-62.55,Forward Fall while Standing
28:51.4,390,495,742.5,764,240,3.26,306.51,1.17,20724.14,242,201,20723.7,201,429471872,4294807203,1701,0.68,-0.1,-0.88,-3.63,-11.03,1.98,-5.51,-36,-3.51,-65.3,4.7,-3.59,-64.13,Forward Fall while Standing
28:51.5,408,492,738,764,236,3.33,299.87,1.15,20724.14,242,198,20723.7,201,429471872,4294780871,1899,0.64,-0.09,-0.91,-5.38,-11.24,2.47,-5.13,-33.33,-4.13,-66.98,5.12,-4.17,-65.63,Forward Fall while Standing
28:51.6,721,500,750,764,243,3.21,311.54,1.19,20724.13,241,239,20723.83,213,429477248,0,0,0.6,-0.08,-0.89,-3.55,-10.95,-0.67,-5,-32.01,-4.5,-68.61,5.13,-4.52,-67.15,Forward Fall while Standing
28:51.8,377,496,744,764,240,3.26,306.51,1.17,20724.13,241,202,20723.83,213,429477248,4294942564,202,0.57,-0.09,-0.93,-1.74,-13.73,-0.12,-5.4,-29.92,-4.65,-70.61,5.22,-4.68,-68.98,Forward Fall while Standing
28:51.9,571,498,747,764,240,3.26,306.51,1.17,20724.13,241,234,20723.83,213,429477248,4294931784,436,0.56,-0.09,-0.92,-2.43,-10.5,0.75,-5.17,-29.39,-4.89,-72.21,5.41,-4.9,-70.5,Forward Fall while Standing
28:52.0,525,499,748.5,764,242,3.23,309.86,1.18,20724.13,241,204,20723.83,213,429477248,4294907864,640,0.53,-0.11,-0.99,-1.68,-0.79,-0.29,-6.02,-26.7,-5.03,-72.56,5.48,-5.07,-70.73,Forward Fall while Standing
28:52.2,268,492,738,764,239,3.28,304.85,1.17,20724.13,241,199,20723.83,213,429477248,4294881929,839,0.53,-0.06,-0.9,-10.56,-4.69,7.02,-3.94,-28.78,-6.31,-73.42,6.48,-6.22,-71.63,Forward Fall while Standing
28:52.3,469,491,736.5,764,236,3.33,299.87,1.15,20724.13,241,204,20723.83,213,429477248,4294858009,1043,0.46,-0.04,-0.95,-5.15,-0.1,0.39,-2.77,-24.42,-6.9,-73.69,6.63,-6.73,-71.72,Forward Fall while Standing
28:52.4,539,493,739.5,764,241,3.24,308.18,1.18,20724.13,241,202,20723.83,213,429477248,4294833277,1245,0.53,-0.1,-0.92,-6.84,-18.56,8.91,-6.22,-28.3,-7.69,-76.3,7.86,-7.64,-74.38,Forward Fall while Standing
28:52.5,392,490,735,764,240,3.26,306.51,1.17,20724.13,241,231,20723.83,213,429477248,4294821102,1476,0.49,-0.07,-1.01,1.73,12.69,-2.97,-4.27,-24.22,-7.4,-74.93,7.58,-7.28,-72.9,Forward Fall while Standing
28:52.7,539,491,736.5,764,238,3.3,303.18,1.16,20724.13,241,200,20723.83,213,429477248,4294795566,1676,0.49,-0.1,-0.96,-5.63,2.33,3.08,-6.1,-25.32,-8.05,-74.89,8.07,-7.97,-72.9,Forward Fall while Standing
28:52.8,484,491,736.5,764,238,3.3,303.18,1.16,20724.13,241,240,20723.83,213,429477248,4294787630,1916,0.52,-0.06,-0.92,3.22,1.17,-0.78,-3.98,-27.71,-7.56,-74.99,8.07,-7.42,-73.1,Forward Fall while Standing
28:52.9,377,488,732,764,239,3.28,304.85,1.17,20724.1,239,200,20723.81,211,429476224,0,0,0.5,-0.07,-0.96,0.35,-4.98,-3.41,-4.18,-26.01,-7.45,-75.87,7.74,-7.32,-73.87,Forward Fall while Standing
28:53.0,603,491,736.5,764,238,3.3,303.18,1.16,20724.1,239,200,20723.81,211,429476224,4294941760,200,0.47,-0.09,-0.94,2.94,10.54,-1.75,-5.46,-25.15,-7,-74.78,7.62,-6.94,-72.8,Forward Fall while Standing
28:53.2,520,491,736.5,764,238,3.3,303.18,1.16,20724.1,239,240,20723.81,211,429476224,4294933824,440,0.49,-0.08,-0.96,0.23,8.18,0.5,-4.95,-25.45,-6.9,-74,7.79,-6.82,-72.05,Forward Fall while Standing
28:53.3,393,489,733.5,764,239,3.28,304.85,1.17,20724.1,239,239,20723.81,211,429476224,4294925409,679,0.53,-0.12,-0.9,-3.34,9.85,5.17,-6.98,-28.74,-7.26,-73,8.54,-7.25,-71.23,Forward Fall while Standing
28:53.4,423,488,732,764,236,3.33,299.87,1.15,20724.1,239,200,20723.81,211,429476224,4294899873,879,0.54,-0.07,-0.96,-2.7,2.79,2.42,-4.18,-27.73,-7.53,-72.9,8.95,-7.39,-71.09,Forward Fall while Standing
28:53.6,557,489,733.5,764,238,3.3,303.18,1.16,20724.1,239,244,20723.81,211,429476224,4294893873,1123,0.62,-0.1,-0.9,2.15,20.4,0.23,-5.57,-33.14,-7.18,-70.56,9.08,-7.12,-69.07,Forward Fall while Standing
28:53.7,309,485,727.5,764,237,3.32,301.53,1.16,20724.1,239,240,20723.81,211,429476224,4294885937,1363,0.52,-0.12,-0.94,-0.89,7.66,-6.47,-7.16,-27.06,-7.23,-69.84,8.36,-7.22,-68.13,Forward Fall while Standing
28:53.8,625,488,732,764,237,3.32,301.53,1.16,20724.1,239,201,20723.81,211,429476224,4294860802,1564,0.6,-0.1,-0.9,-0.68,7.08,4.69,-5.97,-31.63,-7.24,-69.19,9.06,-7.19,-67.69,Forward Fall while Standing
28:53.9,529,489,733.5,764,238,3.3,303.18,1.16,20724.1,239,202,20723.81,211,429476224,4294836070,1766,0.62,-0.11,-0.9,-2.82,-2.05,-0.69,-6.1,-32.91,-7.53,-69.71,9.07,-7.47,-68.24,Forward Fall while Standing
28:54.1,368,486,729,764,236,3.33,299.87,1.15,20724.1,239,199,20723.81,211,429476224,4294810135,1965,0.62,-0.11,-0.89,1.43,14.89,-7.34,-6.35,-33.23,-7.28,-68.07,8.24,-7.24,-66.68,Forward Fall while Standing
28:54.2,668,490,735,764,237,3.32,301.53,1.16,20724.08,237,228,20723.89,219,429479648,0,0,0.62,-0.08,-0.88,0.08,19.77,-5.73,-4.81,-33.17,-7.2,-65.85,7.63,-7.1,-64.54,Forward Fall while Standing
28:54.3,565,492,738,764,237,3.32,301.53,1.16,20724.08,237,242,20723.89,219,429479648,4294960324,242,0.66,-0.1,-0.82,0.83,19.15,-3.07,-6.04,-36.85,-7.02,-63.67,7.34,-6.98,-62.6,Forward Fall while Standing
28:54.4,366,489,733.5,764,235,3.35,298.22,1.15,20724.08,237,240,20723.89,219,429479648,4294952388,482,0.69,-0.1,-0.81,-0.47,6.56,-0.74,-5.86,-38.63,-7.01,-63.09,7.34,-6.96,-62.11,Forward Fall while Standing
28:54.6,587,491,736.5,764,236,3.33,299.87,1.15,20724.08,237,202,20723.89,219,429479648,4294927656,684,0.7,-0.09,-0.83,-4.78,5.25,-3.15,-5.56,-38.57,-7.54,-62.68,7.04,-7.46,-61.72,Forward Fall while Standing
28:54.7,485,491,736.5,764,237,3.32,301.53,1.16,20724.08,237,203,20723.89,219,429479648,4294903329,887,0.72,-0.1,-0.82,-1.33,8.72,-2.98,-5.71,-39.43,-7.64,-61.82,6.76,-7.57,-60.93,Forward Fall while Standing
28:54.8,377,489,733.5,764,236,3.33,299.87,1.15,20724.08,237,240,20723.89,219,429479648,4294895393,1127,0.72,-0.08,-0.8,-0.21,13.65,-3.78,-4.59,-40.45,-7.6,-60.34,6.38,-7.48,-59.55,Forward Fall while Standing
28:55.0,581,490,735,764,233,3.39,294.94,1.14,20724.08,237,201,20723.89,219,429479648,4294870258,1328,0.73,-0.09,-0.74,-0.45,10.45,-1.47,-5.76,-42.58,-7.58,-59.27,6.3,-7.51,-58.6,Forward Fall while Standing
28:55.1,610,493,739.5,764,236,3.33,299.87,1.15,20724.08,237,202,20723.89,219,429479648,4294845526,1530,0.78,-0.09,-0.76,4.83,19.07,1.47,-5.49,-43.9,-6.89,-57.08,6.59,-6.84,-56.56,Forward Fall while Standing
28:55.2,877,499,748.5,877,230,3.45,290.04,1.12,20724.08,237,199,20723.89,219,429479648,4294819591,1729,0.82,-0.12,-0.68,14.42,45.72,0.35,-6.99,-48.4,-4.99,-51.53,6.73,-5.07,-51.41,Forward Fall while Standing
28:55.3,666,502,753,877,234,3.37,296.58,1.14,20724.08,237,237,20723.89,219,429479648,4294810224,1966,0.87,-0.11,-0.65,13.3,59.81,-2.53,-6.64,-51.06,-3.22,-44.13,6.51,-3.35,-44.41,Forward Fall while Standing
28:55.5,417,501,751.5,877,235,3.35,298.22,1.15,20724.05,234,202,20723.87,216,429478560,0,0,0.95,-0.13,-0.53,3.51,36.11,4.37,-7.16,-58.48,-2.71,-39.87,7.15,-2.89,-40.61,Forward Fall while Standing
28:55.6,496,501,751.5,877,233,3.39,294.94,1.14,20724.05,234,243,20723.87,216,429478560,4294960809,243,0.95,-0.16,-0.44,0.34,25.5,-4.22,-9.27,-61.99,-2.59,-36.88,6.72,-2.86,-37.89,Forward Fall while Standing
28:55.7,599,502,753,877,235,3.35,298.22,1.15,20724.05,234,240,20723.87,216,429478560,4294952873,483,0.87,-0.13,-0.32,2.6,42.93,-7.02,-8.66,-66.78,-2.19,-31.69,5.93,-2.45,-33.09,Forward Fall while Standing
28:55.8,441,501,751.5,877,236,3.33,299.87,1.15,20724.05,234,206,20723.87,216,429478560,4294929773,689,0.98,-0.12,-0.3,4.18,27.69,-5.82,-7.39,-70.15,-1.59,-28.42,5.29,-1.82,-30.09,Forward Fall while Standing
28:56.0,421,500,750,877,234,3.37,296.58,1.14,20724.05,234,247,20723.87,216,429478560,4294925246,936,1.01,-0.13,-0.23,11.46,40.27,-4.61,-7.67,-73.93,-0.05,-23.52,4.8,-0.36,-25.54,Forward Fall while Standing
28:56.1,668,503,754.5,877,241,3.24,308.18,1.18,20724.05,234,247,20723.87,216,429478560,4294920719,1183,1,-0.1,-0.19,7.94,50.48,-12.57,-6.37,-76.19,1.03,-17.37,3.3,0.73,-19.72,Forward Fall while Standing
28:56.2,200,498,747,877,228,3.49,286.79,1.11,20724.05,234,181,20723.87,216,429478560,4294953480,1364,0.99,-0.08,-0.04,-3.1,20.53,-3.01,-5.24,-83.22,0.71,-15.01,3.02,0.47,-17.74,Forward Fall while Standing
28:56.3,137,492,738,877,216,3.74,267.66,1.06,20724.05,234,172,20723.87,216,429478560,15768,1536,1.05,-0.1,-0.01,1.29,18.23,-1.79,-6.03,-82.95,0.94,-12.95,2.9,0.66,-15.75,Forward Fall while Standing
28:56.5,382,491,736.5,877,214,3.78,264.52,1.05,20724.05,234,172,20723.87,216,429478560,45352,1708,1,-0.08,-0.01,8.87,29.79,-13.75,-4.94,-84.01,2.13,-9.45,1.26,1.85,-12.43,Forward Fall while Standing
28:56.6,401,489,733.5,877,212,3.83,261.41,1.04,20724.05,234,171,20723.87,216,429478560,74593,1879,0.98,-0.06,0.03,-4.85,4.51,-5.57,-4.32,-84.32,1.59,-9.14,0.66,1.35,-12.14,Forward Fall while Standing
28:56.7,334,487,730.5,877,211,3.85,259.85,1.03,20723.96,226,170,101.73,204,10348,0,0,0.99,-0.07,0.07,-1.87,-3.56,-0.09,-4.53,-82.83,1.43,-9.83,0.75,1.19,-12.75,Forward Fall while Standing
28:56.9,476,487,730.5,877,211,3.85,259.85,1.03,20723.96,226,172,101.73,204,10348,29584,172,1,-0.05,0.05,-1.95,-5.53,0.44,-3.3,-84.42,1.25,-10.77,0.9,1.07,-13.71,Forward Fall while Standing
28:57.0,549,488,732,877,214,3.78,264.52,1.05,20723.96,226,174,101.73,204,10348,59860,346,1.05,-0.06,0.04,-8.55,-18.46,1.98,-3.9,-84.4,0.26,-13.3,1.24,0.09,-16.15,Forward Fall while Standing
28:57.1,538,489,733.5,877,213,3.8,262.96,1.04,20723.96,226,175,101.73,204,10348,90485,521,1,-0.1,0.03,3.27,-3.03,1.08,-6.32,-82.39,0.74,-13.94,1.48,0.46,-16.67,Forward Fall while Standing
29:06.0,473,473,709.5,473,252,3.06,326.85,1.23,0,0,724,0,0,0,4294945577,1433,1.03,-0.03,0.02,-4.46,-1.3,-3.32,-2.4,-86.19,-0.93,-1.15,-0.38,-0.99,-4.55,Sitting
29:06.1,422,447,670.5,473,252,3.06,326.85,1.23,0,0,722,0,0,0,4294942573,2155,1.02,0,-0.02,-4.15,-0.91,-5.82,-0.83,-87.28,-1.37,-1.51,-1,-1.35,-4.94,Sitting
29:06.3,477,457,685.5,477,250,3.09,323.42,1.22,0,0,703,0,0,0,4294912494,2858,0.98,0.01,0,0.08,-0.07,-0.73,-0.14,-87.97,-1.3,-1.77,-0.99,-1.25,-5.21,Sitting
29:06.4,592,491,736.5,592,252,3.06,326.85,1.23,0,0,711,0,0,0,4294893727,3569,1.02,0,-0.03,-2.69,-1.88,1.73,-0.47,-86.71,-1.56,-2.25,-0.68,-1.52,-5.63,Sitting
29:06.5,569,506,759,592,255,3.01,332.03,1.25,0,0,716,0,0,0,4294882095,4285,1.03,-0.03,-0.02,-2.59,0.09,1.69,-2.24,-86.27,-1.81,-2.48,-0.37,-1.83,-5.83,Sitting
29:06.6,518,508,762,592,255,3.01,332.03,1.25,0,0,717,0,0,0,4294871896,5002,1.03,-0.01,-0.01,-3.51,0.72,-3.32,-1.23,-87.66,-2.17,-2.64,-0.69,-2.14,-6.04,Sitting
29:06.8,441,498,747,592,254,3.03,330.3,1.24,0,0,723,0,0,0,4294870337,5725,1.02,-0.01,-0.01,-3.62,-1.29,-2.74,-1.14,-87.61,-2.55,-3.05,-0.93,-2.5,-6.43,Sitting
29:06.9,409,487,730.5,592,253,3.04,328.57,1.24,0,0,708,0,0,0,4294847313,6433,1.02,-0.02,0.01,-3.18,1.66,-0.69,-1.8,-87.1,-2.87,-3.09,-0.92,-2.83,-6.45,Sitting
29:07.0,516,490,735,592,252,3.06,326.85,1.23,20724.26,252,710,20723.97,714,429482720,0,0,1.03,-0.02,-0.01,-2.57,2.95,-3.37,-1.46,-87.33,-3.13,-2.97,-1.24,-3.06,-6.35,Sitting
29:07.1,572,498,747,592,256,3,333.77,1.25,20724.26,252,711,20723.97,714,429482720,4294948529,711,0.99,0.01,0,-1.42,1.79,1.44,-0.21,-88,-3.24,-3,-0.95,-3.11,-6.4,Sitting
29:07.3,439,493,739.5,592,255,3.01,332.03,1.25,20724.26,252,716,20723.97,714,429482720,4294936897,1427,1.03,-0.02,0.01,0.41,3.85,2.09,-1.85,-87.12,-3.11,-2.76,-0.59,-3.06,-6.14,Sitting
29:07.4,434,488,732,592,253,3.04,328.57,1.24,20724.26,252,709,20723.97,714,429482720,4294915290,2136,1.03,-0.02,0,2.19,4.72,-4.26,-1.83,-87.17,-2.76,-2.42,-1.03,-2.73,-5.81,Sitting
29:07.5,668,502,753,668,257,2.98,335.51,1.26,20724.26,252,723,20723.97,714,429482720,4294913731,2859,1,-0.01,0.02,-3.03,1.39,-1.18,-1.39,-87.16,-3.08,-2.5,-1.08,-3.01,-5.88,Sitting
29:07.6,419,496,744,668,256,3,333.77,1.25,20724.26,252,718,20723.97,714,429482720,4294904967,3577,1.02,-0.01,-0.03,-0.24,-0.27,0.76,-1.34,-86.53,-3.04,-2.78,-0.88,-2.97,-6.13,Sitting
29:07.8,427,491,736.5,668,253,3.04,328.57,1.24,20724.26,252,702,20723.97,714,429482720,4294873483,4279,1.03,-0.03,-0.02,-2.62,3.97,-1.4,-2.23,-86.36,-3.3,-2.53,-0.96,-3.25,-5.89,Sitting
29:07.9,587,497,745.5,668,257,2.98,335.51,1.26,20724.26,252,709,20723.97,714,429482720,4294851876,4988,1.03,-0.02,0.01,-5.37,8.53,-4.69,-1.64,-87.28,-3.91,-1.7,-1.45,-3.82,-5.13,Sitting
29:08.0,421,493,739.5,668,256,3,333.77,1.25,20724.26,252,727,20723.97,714,429482720,4294856117,5715,1.02,0.01,0.02,-7.78,2.69,-3.73,-0.21,-87.25,-4.83,-1.62,-1.83,-4.64,-5.04,Sitting
29:08.2,433,489,733.5,668,253,3.04,328.57,1.24,20724.26,252,720,20723.97,714,429482720,4294850229,6435,1.01,-0.01,0.03,-10.53,-8.89,-1.78,-1.23,-86.78,-6.09,-3,-1.95,-5.9,-6.35,Sitting
29:08.3,560,493,739.5,668,258,2.97,337.25,1.26,20724.3,255,710,20723.97,714,429483008,0,0,1.02,-0.01,0.02,0.53,6.66,-0.2,-1.06,-87.18,-5.96,-2.42,-1.88,-5.76,-5.81,Sitting
29:08.4,467,492,738,668,257,2.98,335.51,1.26,20724.3,255,719,20723.97,714,429483008,4294959969,719,1.02,-0.02,0.03,-0.36,-1.9,2.15,-1.58,-86.58,-5.93,-2.91,-1.51,-5.76,-6.26,Sitting
29:08.5,407,488,732,668,255,3.01,332.03,1.25,20724.3,255,704,20723.97,714,429483008,4294931297,1423,1.03,-0.04,0.01,2.24,-0.21,1.53,-2.84,-86.05,-5.57,-3.19,-1.21,-5.46,-6.51,Sitting
29:08.7,600,493,739.5,668,257,2.98,335.51,1.26,20724.3,255,708,20723.97,714,429483008,4294908273,2131,1.03,-0.04,0.01,-2.83,-1.32,-2.73,-2.72,-86.21,-5.86,-3.62,-1.46,-5.74,-6.92,Sitting
29:08.8,666,500,750,668,258,2.97,337.25,1.26,20724.3,255,724,20723.97,714,429483008,4294908161,2855,1.01,-0.01,0,-2.44,1.44,-2.48,-1.41,-87.56,-6.1,-3.69,-1.67,-5.91,-7.04,Sitting
29:08.9,416,497,745.5,668,255,3.01,332.03,1.25,20724.3,255,703,20723.97,714,429483008,4294878082,3558,1.01,-0.02,0.01,-3.45,2.22,0.18,-1.73,-87.1,-6.47,-3.66,-1.55,-6.28,-7,Sitting
29:09.0,587,500,750,668,258,2.97,337.25,1.26,20724.3,255,720,20723.97,714,429483008,4294872194,4278,1.04,-0.03,0.01,-3.64,-1.14,-1.21,-2.5,-86.47,-6.86,-4.06,-1.6,-6.68,-7.35,Sitting
29:09.2,464,499,748.5,668,258,2.97,337.25,1.26,20724.3,255,721,20723.97,714,429483008,4294867747,4999,1.01,-0.02,0.02,0.27,0.67,-3.06,-1.94,-86.51,-6.75,-4.23,-1.89,-6.56,-7.52,Sitting
29:09.3,439,497,745.5,668,256,3,333.77,1.25,20724.3,255,712,20723.97,714,429483008,4294850403,5711,1,-0.01,0.01,-2.15,0.37,-0.54,-1.29,-87.51,-6.95,-4.43,-1.86,-6.73,-7.76,Sitting
29:09.4,559,499,748.5,668,259,2.95,339.01,1.27,20724.3,255,713,20723.97,714,429483008,4294834484,6424,1.03,-0.03,0,-1.34,0.99,0.26,-1.98,-87.01,-7.05,-4.56,-1.73,-6.85,-7.86,Sitting
29:09.5,434,497,745.5,668,258,2.97,337.25,1.26,23.79,257,720,20723.97,714,429482848,0,0,1.02,-0.02,0.01,-3.02,2.08,-2.73,-1.89,-86.91,-7.36,-4.55,-1.97,-7.14,-7.84,Sitting
29:09.7,388,493,739.5,668,257,2.98,335.51,1.26,23.79,257,706,20723.97,714,429482848,4294941444,706,1.01,0,0.02,0.55,3.79,-0.65,-0.62,-87.55,-7.22,-4.32,-1.95,-6.96,-7.65,Sitting
29:09.8,571,495,742.5,668,256,3,333.77,1.25,23.79,257,713,20723.97,714,429482848,4294925525,1419,1.02,-0.03,0.01,-3,-1.12,-1.73,-2.07,-86.86,-7.53,-4.72,-2.07,-7.31,-8,Sitting
29:09.9,548,497,745.5,668,259,2.95,339.01,1.27,23.79,257,722,20723.97,714,429482848,4294922521,2141,1.01,-0.02,0.03,-2.17,6.6,-2.82,-1.85,-86.18,-7.73,-4.13,-2.33,-7.5,-7.41,Sitting
29:10.0,387,494,741,668,258,2.97,337.25,1.26,23.79,257,712,20723.97,714,429482848,4294905177,2853,1,-0.01,0.05,-1.11,3.22,-1.03,-1.16,-85.74,-7.8,-3.98,-2.36,-7.54,-7.25,Sitting
29:10.2,494,494,741,668,256,3,333.77,1.25,23.79,257,706,20723.97,714,429482848,4294879325,3559,1.01,-0.02,0.04,-2.31,-1.56,-0.92,-1.89,-85.72,-8.02,-4.43,-2.37,-7.78,-7.68,Sitting
29:10.3,555,495,742.5,668,259,2.95,339.01,1.27,23.79,257,714,20723.97,714,429482848,4294864833,4273,1.01,-0.01,0.03,0.81,3.34,-1.9,-1.15,-86.82,-7.85,-4.26,-2.51,-7.58,-7.56,Sitting
29:10.4,371,492,738,668,258,2.97,337.25,1.26,23.79,257,715,20723.97,714,429482848,4294851770,4988,1.02,-0.02,0.04,-2.34,-1.71,0.59,-1.75,-86.06,-8.07,-4.72,-2.34,-7.82,-7.98,Sitting
29:10.6,494,492,738,668,255,3.01,332.03,1.25,23.79,257,703,20723.97,714,429482848,4294821691,5691,1.03,-0.02,0.01,-0.28,-0.47,-0.82,-1.51,-87.44,-8.04,-5.04,-2.34,-7.78,-8.33,Sitting
29:10.7,599,495,742.5,668,259,2.95,339.01,1.27,23.79,257,709,20723.97,714,429482848,4294800084,6400,1.02,-0.04,0.01,-5.57,-3.53,-3.61,-2.88,-86,-8.67,-5.73,-2.7,-8.44,-8.95,Sitting
29:10.8,338,491,736.5,668,257,2.98,335.51,1.26,26.83,257,716,20723.87,711,429478848,0,0,1,0,0.01,0.61,3.55,-4.69,-0.58,-87.61,-8.52,-5.54,-3.18,-8.21,-8.83,Sitting
29:10.9,381,488,732,668,255,3.01,332.03,1.25,26.83,257,715,20723.87,711,429478848,4294954233,715,0.99,-0.02,0.05,1.97,3.07,3.02,-1.48,-85.64,-8.21,-5.41,-2.7,-7.94,-8.62,Sitting
29:11.1,553,490,735,668,255,3.01,332.03,1.25,26.83,257,709,20723.87,711,429478848,4294932626,1424,1.04,-0.04,0.03,-3.34,-3.52,0.42,-2.97,-85.65,-8.56,-6.1,-2.55,-8.33,-9.29,Sitting
29:11.2,538,491,736.5,668,257,2.98,335.51,1.26,26.83,257,714,20723.87,711,429478848,4294918134,2138,1.03,-0.02,0.03,-1.17,2.21,-5.13,-1.52,-86.73,-8.63,-6.08,-3.1,-8.35,-9.3,Sitting
29:11.3,402,489,733.5,668,256,3,333.77,1.25,26.83,257,720,20723.87,711,429478848,4294912246,2858,0.99,-0.01,0.01,-3.48,-1.44,-0.25,-1.23,-87.68,-9,-6.51,-3.04,-8.69,-9.76,Sitting
29:11.4,765,495,742.5,765,254,3.03,330.3,1.24,26.83,257,704,20723.87,711,429478848,4294883574,3562,1.02,0,0,-0.56,3.12,2.08,-0.73,-88.25,-9,-6.37,-2.67,-8.67,-9.64,Sitting
29:11.6,555,496,744,765,257,2.98,335.51,1.26,26.83,257,712,20723.87,711,429478848,4294866230,4274,1.04,-0.04,0.01,-3.1,0.3,-0.96,-2.71,-86.25,-9.32,-6.58,-2.69,-9.06,-9.77,Sitting
29:11.7,364,493,739.5,765,256,3,333.77,1.25,26.83,257,714,20723.87,711,429478848,4294851738,4988,1.01,-0.02,0.01,-3.26,1.89,-3.92,-1.59,-87.17,-9.66,-6.6,-3.09,-9.34,-9.82,Sitting
29:11.8,527,494,741,765,254,3.03,330.3,1.24,26.83,257,708,20723.87,711,429478848,4294828714,5696,1.01,-0.01,0.03,-2.17,1.9,-1.41,-1.26,-86.42,-9.87,-6.61,-3.17,-9.52,-9.8,Sitting
29:11.9,574,496,744,765,257,2.98,335.51,1.26,26.83,257,712,20723.87,711,429478848,4294811370,6408,1.02,-0.03,0.03,-2.99,-0.3,-0.16,-2.01,-86.39,-10.18,-6.9,-3.09,-9.85,-10.08,Sitting
29:12.1,379,493,739.5,765,256,3,333.77,1.25,20724.3,255,723,20723.92,713,429480992,0,0,1.02,-0.02,0.03,-2.74,-0.94,-3.88,-1.86,-86.48,-10.45,-7.27,-3.48,-10.11,-10.44,Sitting
29:12.2,449,492,738,765,254,3.03,330.3,1.24,20724.3,255,708,20723.92,713,429480992,4294944272,708,0.99,0,0.02,-0.23,3.08,-0.98,-0.82,-87.23,-10.41,-7.13,-3.5,-10.02,-10.34,Sitting
29:12.3,573,494,741,765,257,2.98,335.51,1.26,20724.3,255,708,20723.92,713,429480992,4294921248,1416,1.02,-0.02,0.02,-3.22,0.28,0.99,-1.53,-86.91,-10.75,-7.35,-3.27,-10.38,-10.54,Sitting
29:12.5,393,492,738,765,256,3,333.77,1.25,20724.3,255,720,20723.92,713,429480992,4294915360,2136,1.03,-0.02,0.02,-1.94,1.16,0.6,-1.88,-86.84,-10.92,-7.46,-3.1,-10.56,-10.64,Sitting
29:12.6,535,493,739.5,765,254,3.03,330.3,1.24,20724.3,255,712,20723.92,713,429480992,4294898016,2848,1.01,-0.03,0.01,-2.57,0.58,-1.44,-2.1,-86.8,-11.18,-7.64,-3.18,-10.82,-10.81,Sitting
29:12.7,599,495,742.5,765,258,2.97,337.25,1.26,20724.3,255,714,20723.92,713,429480992,4294883524,3562,1.01,-0.02,0.01,-5.05,0.49,-1.2,-1.71,-87.25,-11.75,-7.83,-3.23,-11.35,-11.01,Sitting
29:12.8,349,492,738,765,256,3,333.77,1.25,20724.3,255,712,20723.92,713,429480992,4294866180,4274,1.01,-0.02,0.02,-3.31,1.73,-2.17,-1.62,-87.05,-12.1,-7.87,-3.41,-11.68,-11.04,Sitting
29:13.0,584,494,741,765,255,3.01,332.03,1.25,20724.3,255,711,20723.92,713,429480992,4294847413,4985,1.02,-0.03,0.04,-2.74,0.91,0.4,-2.14,-85.89,-12.38,-8.01,-3.25,-11.97,-11.12,Sitting
29:13.1,497,494,741,765,257,2.98,335.51,1.26,20724.3,255,728,20723.92,713,429480992,4294853109,5713,1.02,-0.03,0.02,-2.7,-1.18,-1.11,-2.24,-86.3,-12.65,-8.41,-3.29,-12.24,-11.53,Sitting
29:13.2,410,492,738,765,255,3.01,332.03,1.25,20724.3,255,712,20723.92,713,429480992,4294835765,6425,1.02,-0.01,0.02,-2.01,2.98,-2.69,-1.25,-87,-12.84,-8.29,-3.54,-12.38,-11.44,Sitting
29:13.3,594,494,741,765,258,2.97,337.25,1.26,1.41,256,714,20723.95,713,429482112,0,0,1.01,-0.01,0.01,-2.12,1.11,0.04,-1.2,-87.43,-13.03,-8.4,-3.43,-12.56,-11.56,Sitting
29:13.5,554,495,742.5,765,258,2.97,337.25,1.26,1.41,256,720,20723.95,713,429482112,4294961408,720,1.03,-0.02,0.02,-1.8,0.87,-0.13,-1.72,-86.67,-13.19,-8.54,-3.35,-12.73,-11.67,Sitting
29:13.6,351,493,739.5,765,257,2.98,335.51,1.26,1.41,256,710,20723.95,713,429482112,4294941220,1430,1.03,-0.02,0.03,-3.68,-0.08,-4.53,-1.6,-86.53,-13.59,-8.81,-3.83,-13.11,-11.91,Sitting
29:13.7,580,494,741,765,256,3,333.77,1.25,1.41,256,706,20723.95,713,429482112,4294915368,2136,1.01,-0.01,0.01,-5.27,-1.82,-3.55,-0.91,-87.9,-14.19,-9.29,-4.18,-13.66,-12.44,Sitting
29:13.9,507,494,741,765,258,2.97,337.25,1.26,1.41,256,719,20723.95,713,429482112,4294908041,2855,1.01,-0.01,0.01,-1.69,-1.58,0.23,-1.02,-87.78,-14.33,-9.75,-4.05,-13.8,-12.87,Sitting
29:14.0,378,493,739.5,765,257,2.98,335.51,1.26,1.41,256,707,20723.95,713,429482112,4294883602,3562,1.03,0,0,-1.66,-0.37,-0.34,-0.85,-88.09,-14.47,-10.05,-3.99,-13.93,-13.17,Sitting
29:14.1,591,494,741,765,256,3,333.77,1.25,1.41,256,707,20723.95,713,429482112,4294859163,4269,1.01,-0.02,0,-2.91,-0.33,-1.56,-1.53,-87.44,-14.77,-10.34,-4.09,-14.24,-13.43,Sitting
29:14.2,499,494,741,765,258,2.97,337.25,1.26,1.41,256,720,20723.95,713,429482112,4294853275,4989,1.01,-0.01,0,-1.92,2.37,-1.22,-0.97,-88.01,-14.94,-10.3,-4.14,-14.38,-13.41,Sitting
29:14.4,372,492,738,765,256,3,333.77,1.25,1.41,256,709,20723.95,713,429482112,4294831668,5698,1.02,-0.01,0.02,-2.89,2.87,-1.7,-1.37,-87.11,-15.24,-10.19,-4.26,-14.68,-13.26,Sitting
29:14.5,606,494,741,765,258,2.97,337.25,1.26,1.41,256,715,20723.95,713,429482112,4294818605,6413,1.02,-0.01,0,-1.9,1.01,-2.16,-0.9,-88.01,-15.41,-10.31,-4.43,-14.83,-13.42,Sitting
29:14.6,469,494,741,765,258,2.97,337.25,1.26,24.82,257,718,20723.92,713,429480992,0,0,1.02,-0.01,0,-2.42,1.57,-1.62,-1.12,-87.82,-15.64,-10.37,-4.54,-15.06,-13.46,Sitting
29:14.7,381,492,738,765,258,2.97,337.25,1.26,24.82,257,716,20723.92,713,429480992,4294955664,716,1.01,-0.01,0,-2.38,1.07,-0.73,-0.91,-88,-15.87,-10.48,-4.53,-15.27,-13.58,Sitting
29:14.9,578,493,739.5,765,257,2.98,335.51,1.26,24.82,257,703,20723.92,713,429480992,4294925585,1419,1.02,-0.01,0.01,-1.32,0.82,0.14,-1.4,-87.52,-15.97,-10.63,-4.41,-15.39,-13.71,Sitting
29:15.0,528,494,741,765,260,2.93,340.76,1.27,24.82,257,718,20723.92,713,429480992,4294916821,2137,1.03,-0.02,0.01,-1.77,0.79,-2.31,-1.46,-87.31,-16.12,-10.79,-4.61,-15.54,-13.85,Sitting
29:15.1,351,492,738,765,258,2.97,337.25,1.26,24.82,257,708,20723.92,713,429480992,4294893797,2845,1.01,0,0.01,-1.7,-0.01,-2.6,-0.84,-87.78,-16.27,-11.04,-4.83,-15.65,-14.11,Sitting
29:15.2,591,493,739.5,765,258,2.97,337.25,1.26,24.82,257,710,20723.92,713,429480992,4294873609,3555,1.01,-0.01,-0.01,-1.9,0.22,-0.58,-1.28,-87.62,-16.44,-11.27,-4.81,-15.83,-14.32,Sitting
29:15.4,475,493,739.5,765,259,2.95,339.01,1.27,24.82,257,720,20723.92,713,429480992,4294867721,4275,1.03,-0.02,0,-0.54,1.33,-2.62,-1.5,-87.47,-16.44,-11.35,-5.04,-15.84,-14.4,Sitting
29:15.5,415,492,738,765,257,2.98,335.51,1.26,24.82,257,715,20723.92,713,429480992,4294854658,4990,1.01,-0.02,0.01,-0.84,1.53,-2.85,-1.45,-87.5,-16.47,-11.41,-5.3,-15.87,-14.46,Sitting
29:15.6,603,493,739.5,765,260,2.93,340.76,1.27,24.82,257,706,20723.92,713,429480992,4294828806,5696,1,0,0,-1.26,1.27,-0.79,-0.34,-88.18,-16.56,-11.51,-5.3,-15.91,-14.57,Sitting
29:15.8,460,493,739.5,765,259,2.95,339.01,1.27,24.82,257,725,20723.92,713,429480992,4294830143,6421,1.03,-0.01,0.02,-2.08,0.98,-0.21,-1.34,-87.17,-16.75,-11.64,-5.23,-16.14,-14.66,Sitting
29:15.9,409,492,738,765,256,3,333.77,1.25,33.65,258,706,20723.91,712,429480416,0,0,1.03,-0.01,0.01,-2.82,0.5,-4.11,-0.96,-87.51,-17.04,-11.82,-5.64,-16.4,-14.85,Sitting
29:16.0,600,493,739.5,765,258,2.97,337.25,1.26,33.65,258,709,20723.91,712,429480416,4294945689,709,1,0.01,0.01,-2.53,1.11,-0.64,0.18,-87.6,-17.29,-11.94,-5.63,-16.59,-14.96,Sitting
29:16.1,506,493,739.5,765,259,2.95,339.01,1.27,33.65,258,719,20723.91,712,429480416,4294938362,1428,1.02,0,0.01,-1.96,1.6,1.9,-0.65,-87.97,-17.47,-11.99,-5.29,-16.79,-15.03,Sitting
29:16.3,380,492,738,765,257,2.98,335.51,1.26,33.65,258,714,20723.91,712,429480416,4294923870,2142,1.02,-0.01,0,-2.27,0.5,-1.31,-1.06,-87.91,-17.68,-12.18,-5.35,-17.02,-15.21,Sitting
29:16.4,583,493,739.5,765,259,2.95,339.01,1.27,33.65,258,711,20723.91,712,429480416,4294905103,2853,1.01,0,0,-2.78,0.39,-2.37,-0.48,-88.32,-17.97,-12.39,-5.55,-17.27,-15.42,Sitting
29:16.5,475,493,739.5,765,259,2.95,339.01,1.27,33.65,258,716,20723.91,712,429480416,4294893471,3569,1.02,0,0.02,-1.9,1.82,-0.67,-0.72,-87.55,-18.14,-12.41,-5.54,-17.44,-15.42,Sitting
29:16.6,381,491,736.5,765,257,2.98,335.51,1.26,33.65,258,706,20723.91,712,429480416,4294867619,4275,1.02,0,0.01,-1.34,0.45,0.2,-0.84,-87.72,-18.24,-12.61,-5.41,-17.54,-15.61,Sitting
29:16.8,605,493,739.5,765,260,2.93,340.76,1.27,33.65,258,715,20723.91,712,429480416,4294854556,4990,1.02,-0.01,0.01,-1.51,1.33,-0.8,-0.88,-87.76,-18.36,-12.69,-5.41,-17.66,-15.69,Sitting
29:16.9,435,492,738,765,259,2.95,339.01,1.27,33.65,258,724,20723.91,712,429480416,4294854444,5714,1.02,-0.01,0,-1.15,1.3,-0.92,-0.94,-88.06,-18.43,-12.78,-5.43,-17.73,-15.79,Sitting
29:17.0,453,492,738,765,256,3,333.77,1.25,33.65,258,702,20723.91,712,429480416,4294822960,6416,1.01,-0.01,0.01,-1.69,0.02,0.58,-1.4,-87.41,-18.58,-13.03,-5.26,-17.89,-16.01,Sitting
29:17.2,599,493,739.5,765,260,2.93,340.76,1.27,35.16,258,712,20723.91,712,429480576,0,0,1.02,-0.02,-0.01,-2.26,1.5,-0.8,-1.94,-87.03,-18.79,-13.1,-5.26,-18.11,-16.05,Sitting
29:17.3,994,498,747,994,259,2.95,339.01,1.27,35.16,258,718,20723.91,712,429480576,4294958532,718,1.02,-0.01,0.02,-3,2.02,-3.29,-1.3,-86.97,-19.1,-13.09,-5.58,-18.39,-16.05,Sitting
29:17.4,412,497,745.5,994,256,3,333.77,1.25,35.16,258,703,20723.91,712,429480576,4294928453,1421,1.02,0,0,-2.35,-2.9,-4.58,-0.51,-88.2,-19.33,-13.72,-6.06,-18.57,-16.69,Sitting
29:17.5,595,498,747,994,260,2.93,340.76,1.27,35.16,258,713,20723.91,712,429480576,4294912534,2134,1,0.01,-0.02,-1.67,-1.02,-0.98,0.26,-87.19,-19.47,-14.1,-6.08,-18.68,-17.02,Sitting
29:17.7,461,498,747,994,259,2.95,339.01,1.27,35.16,258,722,20723.91,712,429480576,4294909530,2856,1.02,0,-0.02,-1.76,-0.05,1.5,-0.62,-87.49,-19.62,-14.36,-5.79,-18.86,-17.28,Sitting
29:17.8,462,498,747,994,257,2.98,335.51,1.26,35.16,258,709,20723.91,712,429480576,4294887923,3565,1.03,-0.01,0,-1.9,1.73,-2.48,-1.22,-87.76,-19.79,-14.39,-6.01,-19.05,-17.33,Sitting
29:17.9,628,499,748.5,994,261,2.92,342.52,1.28,35.16,258,711,20723.91,712,429480576,4294869156,4276,1.01,0.01,0,-2.24,2.17,-2.02,0.06,-87.77,-20,-14.37,-6.16,-19.2,-17.31,Sitting
29:18.0,380,498,747,994,259,2.95,339.01,1.27,35.16,258,720,20723.91,712,429480576,4294863268,4996,1.02,0,0,-1.64,1.12,1.37,-0.55,-88.23,-20.14,-14.48,-5.89,-19.36,-17.43,Sitting
29:18.2,492,498,747,994,257,2.98,335.51,1.26,35.16,258,713,20723.91,712,429480576,4294847349,5709,1.02,0,0.01,-2.17,2.1,0.35,-0.83,-87.89,-20.35,-14.47,-5.75,-19.56,-17.41,Sitting
29:18.3,575,498,747,994,261,2.92,342.52,1.28,35.16,258,714,20723.91,712,429480576,4294832857,6423,1.01,0,0,-0.53,2.86,0.54,-0.83,-88.05,-20.34,-14.36,-5.58,-19.56,-17.31,Sitting
29:18.4,416,498,747,994,260,2.93,340.76,1.27,38.67,258,721,20723.97,714,429482848,0,0,1.03,-0.03,0.01,-2.39,2.46,0.48,-2.12,-86.77,-20.57,-14.3,-5.42,-19.83,-17.2,Sitting
29:18.5,426,497,745.5,994,257,2.98,335.51,1.26,38.67,258,703,20723.97,714,429482848,4294937217,703,1.02,-0.02,0.01,-2.37,3.95,-1.68,-1.69,-87.05,-20.8,-14.06,-5.53,-20.04,-16.98,Sitting
29:18.7,612,498,747,994,261,2.92,342.52,1.28,38.67,258,707,20723.97,714,429482848,4294912778,1410,1.02,-0.02,0.04,-2.82,-0.26,-2.85,-1.51,-86.21,-21.09,-14.34,-5.79,-20.31,-17.22,Sitting
29:18.8,402,498,747,994,260,2.93,340.76,1.27,38.67,258,721,20723.97,714,429482848,4294908331,2131,1.01,0,0.02,-0.33,0.2,-1.56,-0.57,-87.1,-21.06,-14.57,-5.89,-20.24,-17.47,Sitting
29:18.9,436,498,747,994,257,2.98,335.51,1.26,38.67,258,701,20723.97,714,429482848,4294940980,2832,1.01,-0.01,0,0.55,-1.14,2.05,-1.02,-87.97,-20.92,-14.97,-5.53,-20.12,-17.89,Sitting
29:19.1,550,497,745.5,994,262,2.9,344.28,1.28,38.67,258,716,20723.97,714,429482848,4294929348,3548,1.03,-0.03,-0.02,-3.18,0.12,-0.15,-2.44,-86.22,-21.25,-15.21,-5.45,-20.5,-18.05,Sitting
29:19.2,380,495,742.5,994,260,2.93,340.76,1.27,38.67,258,718,20723.97,714,429482848,4294920584,4266,1.01,-0.01,0,-3.12,4.78,-3.06,-0.96,-88.04,-21.58,-14.86,-5.74,-20.75,-17.78,Sitting
29:19.3,498,495,742.5,994,258,2.97,337.25,1.26,38.67,258,707,20723.97,714,429482848,4294896145,4973,1.03,-0.03,0.02,-4.36,0.35,-0.69,-2.09,-86.39,-22.06,-15.07,-5.72,-21.26,-17.92,Sitting
29:19.4,559,496,744,994,261,2.92,342.52,1.28,38.67,258,720,20723.97,714,429482848,4294890257,5693,1.01,0,0.02,-0.31,0.51,0.08,-0.62,-87.45,-22.03,-15.26,-5.61,-21.17,-18.14,Sitting
29:19.6,328,496,744,994,260,2.93,340.76,1.27,38.67,258,715,20723.97,714,429482848,4294877194,6408,1.02,-0.02,0.02,-0.38,1.23,-1.27,-1.7,-86.79,-22,-15.36,-5.67,-21.19,-18.21,Sitting
29:19.7,545,496,744,994,258,2.97,337.25,1.26,41.89,259,706,20724.02,711,429485120,0,0,1.03,-0.04,0.01,-2.9,-1.51,0.99,-2.79,-86.13,-22.3,-15.79,-5.45,-21.52,-18.61,Sitting
29:19.8,573,496,744,994,262,2.9,344.28,1.28,41.89,259,712,20724.02,711,429485120,4294949952,712,1.02,-0.01,0,-3,1.66,-1.81,-1.2,-87.78,-22.61,-15.84,-5.58,-21.75,-18.71,Sitting
29:19.9,421,496,744,994,260,2.93,340.76,1.27,41.89,259,720,20724.02,711,429485120,4294944064,1432,1.01,-0.02,0.01,-2.18,2.42,-2.16,-1.53,-87.24,-22.81,-15.78,-5.76,-21.96,-18.64,Sitting
29:20.1,557,497,745.5,994,258,2.97,337.25,1.26,41.89,259,700,20724.02,711,429485120,8016,2132,1.01,-0.02,0.01,-2.42,0.46,-0.13,-1.51,-87.17,-23.05,-15.98,-5.67,-22.19,-18.83,Sitting
29:20.2,585,496,744,994,262,2.9,344.28,1.28,41.89,259,711,20724.02,711,429485120,4294956545,2843,1.01,-0.03,0.01,-2.08,1.61,1.23,-2.14,-86.75,-23.24,-16.03,-5.42,-22.4,-18.86,Sitting
29:20.3,424,496,744,994,260,2.93,340.76,1.27,41.89,259,719,20724.02,711,429485120,4294949218,3562,1.03,-0.03,0.04,-1.47,-0.17,-1.57,-2.52,-85.66,-23.36,-16.3,-5.51,-22.52,-19.08,Sitting
29:20.5,507,497,745.5,994,258,2.97,337.25,1.26,41.89,259,705,20724.02,711,429485120,4294921955,4267,1.02,-0.02,0.02,-3.05,0.6,-4.53,-1.78,-86.89,-23.67,-16.48,-5.99,-22.8,-19.3,Sitting
29:20.6,578,497,745.5,994,262,2.9,344.28,1.28,41.89,259,721,20724.02,711,429485120,4294917508,4988,1,-0.01,0.01,-2.08,-0.16,-2.36,-1.11,-87.56,-23.86,-16.76,-6.19,-22.95,-19.59,Sitting
29:20.7,375,496,744,994,261,2.92,342.52,1.28,41.89,259,715,20724.02,711,429485120,4294904445,5703,1.01,-0.01,0,-2.13,1.16,0,-1.08,-87.89,-24.07,-16.86,-6.09,-23.15,-19.7,Sitting
29:20.8,575,498,747,994,259,2.95,339.01,1.27,41.89,259,717,20724.02,711,429485120,4294894246,6420,1.02,-0.01,0.01,-4.27,0.95,-0.33,-1.28,-87.52,-24.54,-17,-6.03,-23.61,-19.82,Sitting
29:21.0,518,497,745.5,994,261,2.92,342.52,1.28,47.14,260,712,20724.08,713,429487680,0,0,1.02,-0.01,0.01,-3.83,2.16,-1.27,-1.38,-87.33,-24.95,-16.98,-6.09,-24,-19.79,Sitting
29:21.1,390,497,745.5,994,260,2.93,340.76,1.27,47.14,260,719,20724.08,713,429487680,4294959969,719,1.02,-0.02,0.02,-2.44,0.63,0.3,-1.52,-87.03,-25.18,-17.15,-5.95,-24.24,-19.95,Sitting
29:21.2,480,497,745.5,994,257,2.98,335.51,1.26,47.14,260,706,20724.08,713,429487680,4294934117,1425,1.02,-0.03,0.01,-2.64,-1.69,-1.02,-2.21,-86.71,-25.45,-17.62,-5.98,-24.52,-20.38,Sitting
29:21.3,561,497,745.5,994,260,2.93,340.76,1.27,47.14,260,711,20724.08,713,429487680,4294915350,2136,1.01,-0.01,0,-2.86,1.76,-2.76,-1.35,-87.65,-25.74,-17.65,-6.23,-24.77,-20.45,Sitting
29:21.5,365,494,741,994,258,2.97,337.25,1.26,47.14,260,720,20724.08,713,429487680,4294909462,2856,1.01,0,0,-2.28,2.53,-1.27,-0.5,-88.33,-25.96,-17.58,-6.29,-24.94,-20.41,Sitting
29:21.6,571,495,742.5,994,256,3,333.77,1.25,47.14,260,709,20724.08,713,429487680,4294887855,3565,1.01,-0.02,0.02,-2.94,3.34,0.31,-1.7,-86.72,-26.26,-17.41,-6.15,-25.28,-20.19,Sitting
29:21.7,993,500,750,993,259,2.95,339.01,1.27,47.14,260,712,20724.08,713,429487680,4294870511,4277,1.03,-0.01,0.03,2.97,6.56,0.42,-1.18,-86.83,-25.82,-16.83,-6,-24.83,-19.63,Sitting
29:21.9,340,498,747,993,257,2.98,335.51,1.26,47.14,260,711,20724.08,713,429487680,4294851744,4988,1.04,-0.04,0.02,-3.74,-3.31,-2.7,-2.89,-85.94,-26.22,-17.51,-6.24,-25.29,-20.25,Sitting
29:22.0,532,499,748.5,993,255,3.01,332.03,1.25,47.14,260,711,20724.08,713,429487680,4294832977,5699,1.01,-0.01,0.03,0.75,9.69,-4.62,-0.93,-86.75,-26.05,-16.53,-6.73,-25.05,-19.34,Sitting
29:22.1,504,499,748.5,993,257,2.98,335.51,1.26,47.14,260,721,20724.08,713,429487680,4294828530,6420,1,-0.01,0.04,-3.71,0.08,0.01,-1.15,-85.98,-26.45,-16.78,-6.63,-25.44,-19.54,Sitting
29:22.2,370,498,747,993,255,3.01,332.03,1.25,26.85,257,714,20723.93,713,429481408,0,0,1.03,0,0.02,-2.18,-0.62,1.92,-0.35,-87.29,-26.66,-17.1,-6.29,-25.6,-19.91,Sitting
29:22.4,538,500,750,993,254,3.03,330.3,1.24,26.85,257,704,20723.93,713,429481408,4294938624,704,1,-0.02,0.04,2.34,2.35,1.34,-1.49,-85.86,-26.29,-17.06,-6.02,-25.3,-19.81,Sitting
29:22.5,937,503,754.5,937,257,2.98,335.51,1.26,26.85,257,714,20723.93,713,429481408,4294924132,1418,1,-0.02,0.06,3.05,1.08,4.77,-1.65,-84.9,-25.83,-17.18,-5.31,-24.86,-19.89,Sitting
29:22.6,371,501,751.5,937,256,3,333.77,1.25,26.85,257,725,20723.93,713,429481408,4294925469,2143,1.04,-0.05,0.04,1.53,0.1,5.2,-3.42,-84.96,-25.57,-17.42,-4.55,-24.68,-20.12,Sitting
29:22.7,540,503,754.5,937,254,3.03,330.3,1.24,26.85,257,713,20723.93,713,429481408,4294909550,2856,1.05,-0.07,0.02,-1.24,1.76,-3.37,-4.55,-84.32,-25.65,-17.45,-4.88,-24.81,-20.12,Sitting
29:22.9,575,504,756,937,257,2.98,335.51,1.26,26.85,257,710,20723.93,713,429481408,4294889362,3566,1.01,-0.03,0.03,-2.92,2.74,-10.03,-2.03,-85.97,-25.95,-17.35,-6.05,-24.99,-20.1,Sitting
29:23.0,436,503,754.5,937,256,3,333.77,1.25,26.85,257,714,20723.93,713,429481408,4294874870,4280,0.96,-0.01,0.03,-3.61,-1.02,-0.91,-0.97,-86.42,-26.34,-17.74,-6.07,-25.33,-20.49,Sitting
29:23.1,665,505,757.5,937,256,3,333.77,1.25,26.85,257,708,20723.93,713,429481408,4294851846,4988,1.02,-0.02,0.07,0.27,3.3,5.57,-1.74,-84.11,-26.23,-17.58,-5.26,-25.26,-20.24,Sitting
29:23.2,626,507,760.5,937,258,2.97,337.25,1.26,26.85,257,714,20723.93,713,429481408,4294837354,5702,1.04,-0.06,0.02,1.27,-0.5,2.95,-3.7,-85.12,-26,-17.89,-4.78,-25.11,-20.58,Sitting
29:23.4,409,505,757.5,937,256,3,333.77,1.25,26.85,257,706,20723.93,713,429481408,4294811502,6408,1.03,-0.05,0.02,-4.93,-0.63,-1.86,-3.42,-85.27,-26.56,-18.23,-4.92,-25.63,-20.91,Sitting
29:23.5,574,507,760.5,937,257,2.98,335.51,1.26,7.21,256,710,20723.88,711,429479136,0,0,1.01,-0.03,0.04,-5.72,4.95,-5.77,-2.3,-85.75,-27.2,-17.86,-5.54,-26.21,-20.57,Sitting
29:23.6,546,509,763.5,937,259,2.95,339.01,1.27,7.21,256,717,20723.88,711,429479136,4294957097,717,1,-0.03,0.05,-4.64,-0.32,-2.26,-2.42,-84.87,-27.72,-18.15,-5.73,-26.71,-20.82,Sitting
29:23.8,376,507,760.5,937,258,2.97,337.25,1.26,7.21,256,715,20723.88,711,429479136,4294944034,1432,1.01,-0.04,0.07,2.37,11.53,3.5,-3.06,-83.6,-27.35,-16.94,-5.18,-26.38,-19.61,Sitting
29:23.9,565,507,760.5,937,257,2.98,335.51,1.26,7.21,256,712,20723.88,711,429479136,4294926690,2144,1.02,-0.07,0.06,-6.15,-2.53,-0.45,-4.37,-83.31,-28.06,-17.52,-5.14,-27.11,-20.15,Sitting
29:24.0,470,508,762,937,260,2.93,340.76,1.27,7.21,256,717,20723.88,711,429479136,4294916491,2861,1.02,-0.06,0.08,-3.95,7.09,-3.49,-3.9,-83.02,-28.49,-16.87,-5.48,-27.51,-19.52,Sitting
29:24.1,388,504,756,937,258,2.97,337.25,1.26,7.21,256,713,20723.88,711,429479136,4294900572,3574,0.99,-0.02,0.08,-5.68,-2.28,-2.69,-1.46,-83.92,-29.14,-17.41,-5.72,-28.03,-20.08,Sitting
29:24.3,538,504,756,937,258,2.97,337.25,1.26,7.21,256,710,20723.88,711,429479136,4294880384,4284,1.02,-0.03,0.08,-2.66,-8.88,3.57,-2.54,-83.49,-29.41,-18.81,-5.17,-28.33,-21.39,Sitting
29:24.4,497,505,757.5,937,260,2.93,340.76,1.27,7.21,256,720,20723.88,711,429479136,4294874496,5004,0.99,-0.02,0.02,-0.25,1.22,-6,-1.81,-86.72,-29.37,-18.91,-5.83,-28.27,-21.62,Sitting
29:24.5,416,504,756,937,258,2.97,337.25,1.26,7.21,256,706,20723.88,711,429479136,4294848644,5710,1,-0.05,0.05,-2.66,-1.05,5.1,-3.32,-84.51,-29.64,-19.29,-5.08,-28.58,-21.9,Sitting
29:24.6,549,504,756,937,259,2.95,339.01,1.27,7.21,256,708,20723.88,711,429479136,4294825620,6418,1.05,-0.08,0.05,0.39,0.16,-1.19,-4.71,-83.59,-29.52,-19.53,-5.13,-28.52,-22.09,Sitting
29:24.8,500,505,757.5,937,259,2.95,339.01,1.27,36.58,258,721,20723.95,713,429482112,0,0,1.01,-0.06,0.04,-3.82,-2.36,-3.59,-3.7,-84.67,-29.92,-20.07,-5.48,-28.87,-22.66,Sitting
29:24.9,354,504,756,937,258,2.97,337.25,1.26,36.58,258,715,20723.95,713,429482112,4294954233,715,1,-0.05,0.04,-1.29,0.95,-1.78,-3.33,-84.86,-30.01,-20.2,-5.6,-28.95,-22.79,Sitting
29:25.0,552,504,756,937,257,2.98,335.51,1.26,36.58,258,710,20723.95,713,429482112,4294934045,1425,1.02,-0.05,0.04,-1.79,-1.18,-0.21,-3.33,-84.8,-30.17,-20.61,-5.53,-29.1,-23.17,Sitting
29:25.2,524,505,757.5,937,259,2.95,339.01,1.27,36.58,258,725,20723.95,713,429482112,4294935382,2150,1.02,-0.05,0.04,-1.97,4.62,-1.63,-3.5,-84.7,-30.35,-20.27,-5.64,-29.28,-22.85,Sitting
29:25.3,353,504,756,937,257,2.98,335.51,1.26,36.58,258,709,20723.95,713,429482112,4294913775,2859,1.01,-0.05,0.05,-1.98,2.36,-2.45,-3.23,-84.4,-30.53,-20.23,-5.85,-29.44,-22.79,Sitting
29:25.4,582,504,756,937,258,2.97,337.25,1.26,36.58,258,716,20723.95,713,429482112,4294902143,3575,1,-0.04,0.04,-3.18,-1.11,-0.77,-3.01,-85.2,-30.86,-20.62,-5.85,-29.75,-23.2,Sitting
29:25.5,454,505,757.5,937,258,2.97,337.25,1.26,36.58,258,723,20723.95,713,429482112,4294900584,4298,1.02,-0.05,0.04,-2.39,0.66,0.85,-3.5,-84.62,-31.1,-20.79,-5.64,-29.99,-23.34,Sitting
29:25.7,425,503,754.5,937,256,3,333.77,1.25,36.58,258,700,20723.95,713,429482112,4294931832,4998,1.01,-0.04,0.04,-4.11,-0.84,-1.8,-2.57,-85.45,-31.55,-21.15,-5.77,-30.39,-23.73,Sitting
29:25.8,592,504,756,937,259,2.95,339.01,1.27,36.58,258,716,20723.95,713,429482112,4294920200,5714,1.01,-0.05,0.04,-0.54,2.24,0.52,-3.47,-84.87,-31.55,-21.12,-5.6,-30.43,-23.67,Sitting
29:25.9,404,504,756,937,258,2.97,337.25,1.26,36.58,258,726,20723.95,713,429482112,4294922988,6440,1.03,-0.06,0.04,-1.99,-1.63,-1.74,-4.14,-84.23,-31.73,-21.58,-5.72,-30.63,-24.09,Sitting
29:26.0,470,503,754.5,937,255,3.01,332.03,1.25,27.77,257,702,20724.12,714,429489152,0,0,1.01,-0.05,0.05,-1.34,1.47,-4.07,-3.54,-84.45,-31.83,-21.65,-6.13,-30.7,-24.16,Sitting
29:26.2,572,503,754.5,937,259,2.95,339.01,1.27,27.77,257,709,20724.12,714,429489152,4294945689,709,1.01,-0.05,0.04,-1.23,1.69,-1.27,-3.45,-84.8,-31.91,-21.69,-6.19,-30.77,-24.22,Sitting
29:26.3,471,504,756,937,259,2.95,339.01,1.27,27.77,257,720,20724.12,714,429489152,4294939801,1429,1.02,-0.06,0.04,-2.15,1.11,-1.15,-3.83,-84.45,-32.12,-21.8,-6.24,-30.98,-24.31,Sitting
29:26.4,425,502,753,937,256,3,333.77,1.25,27.77,257,702,20724.12,714,429489152,4294908317,2131,1.01,-0.05,0.03,-1.89,-0.31,-2.87,-3.15,-85.27,-32.29,-22.1,-6.5,-31.12,-24.63,Sitting
29:26.5,554,503,754.5,937,260,2.93,340.76,1.27,27.77,257,710,20724.12,714,429489152,4294888129,2841,1.02,-0.04,0.04,-0.84,2.02,-1.6,-2.92,-85.22,-32.32,-22.1,-6.61,-31.14,-24.62,Sitting
29:26.7,436,503,754.5,937,259,2.95,339.01,1.27,27.77,257,717,20724.12,714,429489152,4294877930,3558,1.01,-0.04,0.03,-1.33,1,-1.05,-2.93,-85.39,-32.42,-22.22,-6.64,-31.24,-24.75,Sitting
29:26.8,491,502,753,937,257,2.98,335.51,1.26,27.77,257,704,20724.12,714,429489152,4294849258,4262,1.02,-0.05,0.04,-1.27,0.91,-1,-3.28,-85.04,-32.51,-22.36,-6.67,-31.34,-24.87,Sitting
29:26.9,597,503,754.5,937,261,2.92,342.52,1.28,27.77,257,714,20724.12,714,429489152,4294834766,4976,1.02,-0.04,0.03,-1.39,2.5,-2.11,-2.98,-85.44,-32.61,-22.3,-6.83,-31.43,-24.82,Sitting
29:27.1,744,507,760.5,937,260,2.93,340.76,1.27,27.77,257,732,20724.12,714,429489152,4294846302,5708,1.01,-0.04,0.04,-1.71,2.24,-2.69,-2.84,-85.1,-32.76,-22.27,-7.08,-31.56,-24.78,Sitting
29:27.2,511,506,759,937,257,2.98,335.51,1.26,27.77,257,715,20724.12,714,429489152,4294833239,6423,1.01,-0.03,0.05,-2.82,2.73,-1.24,-2.53,-84.82,-33.05,-22.18,-7.13,-31.83,-24.68,Sitting
29:27.3,558,507,760.5,937,261,2.92,342.52,1.28,38.67,258,713,20723.94,713,429481728,0,0,1.02,-0.04,0.05,-1.65,0.8,-1.09,-2.91,-84.56,-33.18,-22.33,-7.17,-31.97,-24.82,Sitting
29:27.4,428,508,762,937,260,2.93,340.76,1.27,38.67,258,719,20723.94,713,429481728,4294959969,719,1.01,-0.04,0.06,-0.69,0.74,-1.72,-2.91,-84.5,-33.2,-22.49,-7.29,-31.99,-24.97,Sitting
29:27.6,489,507,760.5,937,258,2.97,337.25,1.26,38.67,258,708,20723.94,713,429481728,4294936945,1427,1.01,-0.03,0.05,-1.71,0.06,-0.6,-2.41,-85.27,-33.35,-22.73,-7.27,-32.11,-25.24,Sitting
29:27.7,560,507,760.5,937,262,2.9,344.28,1.28,38.67,258,715,20723.94,713,429481728,4294923882,2142,1.03,-0.04,0.05,-2.15,1.63,0.06,-2.81,-85.05,-33.55,-22.78,-7.16,-32.32,-25.27,Sitting
29:27.8,364,507,760.5,937,261,2.92,342.52,1.28,38.67,258,714,20723.94,713,429481728,4294909390,2856,1.02,-0.04,0.05,-2.08,2.58,-2.35,-2.95,-84.54,-33.74,-22.71,-7.36,-32.51,-25.18,Sitting
29:27.9,523,506,759,937,259,2.95,339.01,1.27,38.67,258,709,20723.94,713,429481728,4294887783,3565,1.01,-0.04,0.06,-2.58,-0.56,-1.22,-3.12,-84.37,-34,-23.03,-7.41,-32.76,-25.49,Sitting
29:36.7,499,499,748.5,499,251,3.08,325.13,1.23,0,0,284,0,0,0,30240,568,0.99,0.19,0.18,-2.17,-12.76,5,9.88,-73.69,-0.25,-2.23,1.57,0.16,-5.09,Left Fall while Sitting
29:36.8,519,509,763.5,519,253,3.04,328.57,1.24,0,0,284,0,0,0,45360,852,1.02,0.14,0.08,7.52,0.84,-7.11,6.99,-79.5,0.74,-2.37,0.8,0.99,-5.46,Left Fall while Sitting
29:36.9,563,527,790.5,563,254,3.03,330.3,1.24,0,0,284,0,0,0,60480,1136,0.97,0.18,0.14,-6.54,7.87,-4.75,9.76,-75.08,0.01,-1.66,0.32,0.4,-4.59,Left Fall while Sitting
29:37.0,572,538,807,572,256,3,333.77,1.25,0,0,284,0,0,0,75600,1420,0.99,0.19,0.18,4.75,3.25,-10.15,9.98,-73.55,0.66,-1.5,-0.82,1.03,-4.38,Left Fall while Sitting
29:37.1,559,542,813,572,255,3.01,332.03,1.25,0,0,285,0,0,0,91289,1705,0.97,0.2,0.13,1.77,10.15,-13.09,11.15,-74.34,0.94,-0.51,-2.33,1.35,-3.46,Left Fall while Sitting
29:37.3,517,538,807,572,255,3.01,332.03,1.25,0,0,286,0,0,0,107549,1991,0.95,0.24,0.17,-1.27,4.02,-12.78,13.34,-71.43,0.85,-0.26,-3.79,1.35,-3.11,Left Fall while Sitting
29:37.4,425,522,783,572,255,3.01,332.03,1.25,0,0,284,0,0,0,122669,2275,0.93,0.26,0.19,1.91,2.28,-8.9,14.58,-69.37,1.15,-0.23,-4.78,1.69,-2.99,Left Fall while Sitting
29:37.5,362,502,753,572,255,3.01,332.03,1.25,0,0,282,0,0,0,136657,2557,0.92,0.27,0.19,8.44,-6.01,-7.47,15.14,-69.05,2.26,-1.21,-5.6,2.78,-3.93,Left Fall while Sitting
29:37.6,370,487,730.5,572,254,3.03,330.3,1.24,20724.28,254,281,122.51,283,15007,0,0,0.99,0.31,0.12,5.33,0.48,-17.85,16.67,-69.81,2.98,-1.4,-7.7,3.53,-4.14,Left Fall while Sitting
29:37.8,501,488,732,572,253,3.04,328.57,1.24,20724.28,254,281,122.51,283,15007,13425,281,0.91,0.32,0.15,-2.07,7.43,-26.16,18.61,-67.07,2.8,-0.72,-10.87,3.43,-3.38,Left Fall while Sitting
29:37.9,595,498,747,595,256,3,333.77,1.25,20724.28,254,282,122.51,283,15007,27413,563,0.89,0.4,0.13,5.06,-5.82,-15.86,23.21,-63.35,3.5,-1.7,-12.75,4.29,-4.16,Left Fall while Sitting
29:38.0,620,508,762,620,256,3,333.77,1.25,20724.28,254,284,122.51,283,15007,42533,847,0.89,0.42,0.12,2.13,-1.65,-6.42,24.29,-62.42,3.83,-2.15,-13.45,4.65,-4.56,Left Fall while Sitting
29:38.1,385,499,748.5,620,255,3.01,332.03,1.25,20724.28,254,281,122.51,283,15007,55958,1128,0.89,0.43,0.13,4.17,-3.47,-6.41,24.97,-61.58,4.42,-2.84,-14.15,5.25,-5.18,Left Fall while Sitting
29:38.3,412,492,738,620,254,3.03,330.3,1.24,20724.28,254,280,122.51,283,15007,68822,1408,0.9,0.42,0.13,-1,-11.34,-9.76,24.33,-62.28,4.37,-4.5,-15.27,5.17,-6.81,Left Fall while Sitting
29:38.4,647,503,754.5,647,256,3,333.77,1.25,20724.28,254,281,122.51,283,15007,82247,1689,0.87,0.43,0.11,5.05,-17.08,-10.75,25.75,-61.23,5.07,-6.89,-16.52,5.9,-9.06,Left Fall while Sitting
29:38.5,925,529,793.5,925,258,2.97,337.25,1.26,20724.28,254,284,122.51,283,15007,97367,1973,0.86,0.48,0.01,7.6,-8.83,-9.31,28.91,-58.93,6.1,-8.25,-17.59,7.01,-10.28,Left Fall while Sitting
29:38.6,429,523,784.5,925,257,2.98,335.51,1.26,20724.28,254,281,122.51,283,15007,110792,2254,0.91,0.51,-0.03,-17.77,3.47,-10.18,28.63,-59.16,3.96,-8.07,-18.76,4.95,-10.11,Left Fall while Sitting
29:38.8,372,515,772.5,925,254,3.03,330.3,1.24,20724.28,254,277,122.51,283,15007,121985,2531,0.74,0.47,-0.05,-12.29,-19.88,-10.24,31.75,-55.86,2.5,-10.81,-19.94,3.67,-12.61,Left Fall while Sitting
29:38.9,1000,540,810,1000,296,2.46,407.15,1.45,44.2,259,612,101.64,314,10330,0,0,0.87,0.51,0.05,3.08,0.77,-5.02,29.84,-57.82,2.95,-10.96,-20.47,4.03,-12.83,Left Fall while Sitting
29:39.0,724,549,823.5,1000,294,2.48,403.29,1.44,44.2,259,639,101.64,314,10330,15105,639,0.85,0.54,0.02,-0.72,-2.87,-2.32,31.71,-56.1,2.93,-11.57,-20.66,4.08,-13.35,Left Fall while Sitting
29:39.1,592,551,826.5,1000,283,2.61,382.43,1.38,44.2,259,298,101.64,314,10330,38373,937,0.86,0.52,0.05,-4.21,1.14,-4.05,30.75,-56.9,2.48,-11.68,-21.07,3.61,-13.48,Left Fall while Sitting
29:39.3,121,532,798,1000,271,2.77,360.37,1.32,44.2,259,290,101.64,314,10330,56937,1227,0.84,0.52,0.06,4.22,2.98,-4.34,31.43,-56.18,3.07,-11.55,-21.51,4.2,-13.34,Left Fall while Sitting
29:39.4,305,522,783,1000,264,2.88,347.83,1.29,44.2,259,286,101.64,314,10330,73197,1513,0.82,0.53,0.01,5.9,0.79,0.53,32.13,-55.7,3.88,-11.71,-21.34,5.01,-13.47,Left Fall while Sitting
29:39.5,376,516,774,1000,264,2.88,347.83,1.29,44.2,259,286,101.64,314,10330,89457,1799,0.87,0.55,0.01,-4.18,1.93,0.65,31.61,-56.22,3.42,-11.71,-21.16,4.55,-13.5,Left Fall while Sitting
29:39.6,484,514,771,1000,260,2.93,340.76,1.27,44.2,259,299,101.64,314,10330,113322,2098,0.86,0.51,0.08,-0.06,-0.02,-2.24,30.14,-57.3,3.49,-11.97,-21.35,4.55,-13.78,Left Fall while Sitting
29:39.8,312,507,760.5,1000,257,2.98,335.51,1.26,44.2,259,713,101.64,314,10330,97403,2811,0.85,0.54,0,1.76,1.31,-6.5,31.94,-55.9,3.77,-12.05,-22.06,4.9,-13.81,Left Fall while Sitting
29:39.9,428,504,756,1000,253,3.04,328.57,1.24,44.2,259,718,101.64,314,10330,88639,3529,0.83,0.54,-0.01,-4.57,0.92,-6.57,32.27,-55.57,3.28,-12.19,-22.78,4.44,-13.92,Left Fall while Sitting
29:40.0,599,507,760.5,1000,259,2.95,339.01,1.27,44.2,259,714,101.64,314,10330,74147,4243,0.83,0.56,0.04,-7.92,3.17,-1.76,33.07,-54.69,2.36,-12.04,-22.9,3.59,-13.75,Left Fall while Sitting
29:40.1,517,507,760.5,1000,259,2.95,339.01,1.27,74.71,266,724,86.04,496,7402,0,0,0.87,0.54,0.03,-3.17,0.95,-5.83,31.49,-56.3,2.03,-12.17,-23.52,3.21,-13.94,Left Fall while Sitting
29:40.3,446,505,757.5,1000,257,2.98,335.51,1.26,74.71,266,725,86.04,496,7402,1337,725,0.83,0.56,0.08,0.89,1.98,-10.83,33.55,-53.94,2.21,-12.17,-24.76,3.46,-13.85,Left Fall while Sitting
29:40.4,441,503,754.5,1000,255,3.01,332.03,1.25,74.71,266,711,86.04,496,7402,4294949866,1436,0.81,0.59,0.05,4.4,0.15,-12.47,35.26,-52.41,2.83,-12.41,-26.22,4.13,-14.01,Left Fall while Sitting
29:40.5,752,511,766.5,1000,254,3.03,330.3,1.24,74.71,266,706,86.04,496,7402,4294924014,2142,0.77,0.6,0.01,6.81,-1.79,-11.12,37.43,-50.4,3.76,-12.88,-27.52,5.11,-14.38,Left Fall while Sitting
29:40.6,589,513,769.5,1000,259,2.95,339.01,1.27,74.71,266,721,86.04,496,7402,4294919567,2863,0.77,0.62,-0.01,1.65,2.13,-5.02,38.4,-49.43,4.04,-12.87,-28.05,5.41,-14.33,Left Fall while Sitting
29:40.8,476,512,768,1000,258,2.97,337.25,1.26,74.71,266,727,86.04,496,7402,4294923808,3590,0.77,0.63,0.02,-2.75,0.44,-6.04,38.61,-49.21,3.76,-13.06,-28.71,5.15,-14.51,Left Fall while Sitting
29:40.9,394,509,763.5,1000,254,3.03,330.3,1.24,74.71,266,711,86.04,496,7402,4294905041,4301,0.76,0.64,0,-5,1.46,-6.05,39.49,-48.35,3.2,-13.13,-29.37,4.66,-14.54,Left Fall while Sitting
29:41.0,536,510,765,1000,255,3.01,332.03,1.25,74.71,266,712,86.04,496,7402,4294887697,5013,0.75,0.65,0.02,-5.05,0.33,-1.72,40.43,-47.38,2.64,-13.34,-29.48,4.16,-14.7,Left Fall while Sitting
29:41.1,601,512,768,1000,259,2.95,339.01,1.27,74.71,266,717,86.04,496,7402,4294877498,5730,0.77,0.64,0.02,-0.08,0.9,-1.71,39.16,-48.65,2.7,-13.48,-29.6,4.16,-14.89,Left Fall while Sitting
29:41.3,452,510,765,1000,258,2.97,337.25,1.26,74.71,266,724,86.04,496,7402,4294877386,6454,0.77,0.64,0.01,-0.08,-0.82,-1.06,39.38,-48.45,2.76,-13.83,-29.63,4.23,-15.22,Left Fall while Sitting
29:41.4,443,509,763.5,1000,253,3.04,328.57,1.24,10.34,256,711,20724.04,716,429485856,0,0,0.75,0.64,0.01,0.85,-0.03,-0.91,40.04,-47.79,2.94,-14.09,-29.65,4.43,-15.43,Left Fall while Sitting
29:41.5,481,508,762,1000,254,3.03,330.3,1.24,10.34,256,706,20724.04,716,429485856,4294941444,706,0.77,0.64,-0.03,-1.07,1.68,-2.5,39.21,-48.59,2.88,-14.13,-29.86,4.33,-15.51,Left Fall while Sitting
29:41.6,571,510,765,1000,258,2.97,337.25,1.26,10.34,256,721,20724.04,716,429485856,4294936997,1427,0.74,0.65,-0.01,-4.94,0.05,0.17,40.7,-47.13,2.32,-14.37,-29.74,3.86,-15.68,Left Fall while Sitting
29:41.8,368,506,759,1000,255,3.01,332.03,1.25,10.34,256,723,20724.04,716,429485856,4294935438,2150,0.75,0.64,0.02,-2.37,1.45,6.73,40.11,-47.7,2.09,-14.44,-28.79,3.61,-15.77,Left Fall while Sitting
29:41.9,465,505,757.5,1000,253,3.04,328.57,1.24,10.34,256,719,20724.04,716,429485856,4294928111,2869,0.78,0.61,0.02,-0.56,3.25,6.27,37.68,-50.13,2.09,-14.28,-27.89,3.51,-15.72,Left Fall while Sitting
29:42.0,566,507,760.5,1000,256,3,333.77,1.25,10.34,256,721,20724.04,716,429485856,4294923664,3590,0.8,0.61,0.01,-4.6,0.57,1.51,36.75,-51.09,1.58,-14.46,-27.6,2.99,-15.93,Left Fall while Sitting
29:42.1,330,503,754.5,1000,254,3.03,330.3,1.24,10.34,256,720,20724.04,716,429485856,4294917776,4310,0.79,0.61,0,-1.15,-1.79,0.16,37.06,-50.77,1.51,-14.95,-27.48,2.93,-16.38,Left Fall while Sitting
29:42.3,414,501,751.5,1000,251,3.08,325.13,1.23,10.34,256,711,20724.04,716,429485856,4294899009,5021,0.73,0.6,0,-0.33,-3.27,11.36,38.92,-48.92,1.54,-15.61,-25.95,3.03,-16.94,Left Fall while Sitting
29:42.4,602,503,754.5,1000,255,3.01,332.03,1.25,10.34,256,718,20724.04,716,429485856,4294890245,5739,0.87,0.59,0.02,-2.85,3.35,11.9,33.61,-54.2,1.25,-15.44,-24.34,2.54,-16.99,Left Fall while Sitting
29:42.5,390,500,750,1000,253,3.04,328.57,1.24,10.34,256,724,20724.04,716,429485856,4294890133,6463,0.85,0.54,0.01,-0.09,1.19,-2.05,31.78,-56.06,1.31,-15.54,-24.49,2.52,-17.16,Left Fall while Sitting
29:42.6,995,511,766.5,1000,251,3.08,325.13,1.23,20724.28,254,704,20724.05,716,429486144,0,0,0.8,0.58,0,-2.54,-1.37,-1.53,35.04,-52.8,1.06,-15.96,-24.59,2.42,-17.43,Left Fall while Sitting
29:42.8,597,512,768,1000,255,3.01,332.03,1.25,20724.28,254,717,20724.05,716,429486144,4294957097,717,0.8,0.58,0.01,-1.69,-1.23,3.32,35.21,-52.62,0.92,-16.37,-24.07,2.29,-17.82,Left Fall while Sitting
29:42.9,452,511,766.5,1000,253,3.04,328.57,1.24,20724.28,254,722,20724.05,716,429486144,4294954093,1439,0.84,0.56,-0.03,-9.91,-1.73,11.48,32.77,-55.03,-0.27,-16.84,-22.51,1.05,-18.37,Left Fall while Sitting
29:43.0,470,510,765,1000,250,3.09,323.42,1.22,20724.28,254,710,20724.05,716,429486144,4294933905,2149,0.84,0.51,0.01,-9.31,-12.43,14.56,30.6,-57.24,-1.39,-18.69,-20.55,-0.11,-20.23,Left Fall while Sitting
29:43.2,643,513,769.5,1000,254,3.03,330.3,1.24,20724.28,254,728,20724.05,716,429486144,4294939601,2877,0.85,0.48,-0.01,1.24,-4.05,21.46,29.05,-58.79,-1.16,-19.46,-17.7,0.05,-21.04,Left Fall while Sitting
29:43.3,372,510,765,1000,253,3.04,328.57,1.24,20724.28,254,718,20724.05,716,429486144,4294930837,3595,0.87,0.44,-0.01,-1.69,1.63,29.37,26.08,-61.75,-1.31,-19.51,-13.87,-0.21,-21.2,Left Fall while Sitting
29:43.4,665,513,769.5,1000,252,3.06,326.85,1.23,20724.28,254,703,20724.05,716,429486144,4294900758,4298,0.95,0.38,-0.05,-0.81,1.38,31.66,21.06,-66.6,-1.34,-19.59,-9.71,-0.44,-21.47,Left Fall while Sitting
29:43.5,533,513,769.5,1000,254,3.03,330.3,1.24,20724.28,254,726,20724.05,716,429486144,4294903546,5024,0.98,0.3,-0.02,-9.08,2.25,27.67,16.27,-71.52,-2.43,-19.56,-6.07,-1.68,-21.64,Left Fall while Sitting
29:43.7,296,510,765,1000,251,3.08,325.13,1.23,20724.28,254,709,20724.05,716,429486144,4294881939,5733,0.99,0.25,0,-9.47,5.8,23.79,13.82,-74.02,-3.56,-19.07,-2.95,-2.86,-21.27,Left Fall while Sitting
29:43.8,522,510,765,1000,255,3.01,332.03,1.25,20724.28,254,713,20724.05,716,429486144,4294866020,6446,0.99,0.19,0.02,-4.74,6.54,26.02,10.54,-77.23,-4.09,-18.49,0.48,-3.51,-20.84,Left Fall while Sitting
29:43.9,427,508,762,1000,254,3.03,330.3,1.24,20724.27,253,727,20724.07,717,429487040,0,0,0.99,0.15,-0.06,-12.53,-8.52,37.12,8.07,-79.17,-5.59,-19.81,5.22,-5.05,-22.18,Left Fall while Sitting
29:44.0,311,505,757.5,1000,252,3.06,326.85,1.23,20724.27,253,711,20724.07,717,429487040,4294948529,711,1.05,-0.01,0.05,-24.2,-5.26,31.73,-1.17,-85.69,-8.59,-20.73,9.35,-8.3,-23.33,Left Fall while Sitting
29:44.2,466,504,756,1000,255,3.01,332.03,1.25,20724.27,253,714,20724.07,717,429487040,4294934037,1425,0.97,-0.01,-0.03,-3.37,-7.21,25.89,-1.06,-86.83,-8.95,-21.91,12.77,-8.64,-24.51,Left Fall while Sitting
29:44.3,437,503,754.5,1000,255,3.01,332.03,1.25,20724.27,253,715,20724.07,717,429487040,4294920974,2140,1.02,-0.14,-0.02,-16.66,19.19,45.92,-8.34,-80.59,-11.02,-19.71,18.75,-10.91,-22.14,Left Fall while Sitting
29:44.4,467,503,754.5,1000,252,3.06,326.85,1.23,20724.27,253,705,20724.07,717,429487040,4294893711,2845,0.95,-0.2,0.02,-7.79,-12.45,29.34,-12.67,-76.25,-11.94,-21.56,22.6,-11.97,-23.75,Left Fall while Sitting
29:44.6,498,503,754.5,1000,256,3,333.77,1.25,20724.27,253,713,20724.07,717,429487040,4294877792,3558,1.05,-0.27,0.02,1.37,-37.08,16.07,-15.17,-73.79,-11.69,-26.56,24.76,-11.83,-28.45,Left Fall while Sitting
29:44.7,458,502,753,1000,253,3.04,328.57,1.24,20724.27,253,704,20724.07,717,429487040,4294849120,4262,1.07,-0.28,-0.11,-0.73,-4.7,-6.56,-15.39,-72.58,-11.72,-27.42,24.02,-11.86,-29.23,Left Fall while Sitting
29:44.8,546,503,754.5,1000,257,2.98,335.51,1.26,20724.27,253,712,20724.07,717,429487040,4294831776,4974,0.97,-0.23,-0.14,2.79,13.43,-12.4,-13.83,-72.83,-11.29,-25.96,22.53,-11.39,-27.84,Left Fall while Sitting
29:44.9,474,502,753,1000,256,3,333.77,1.25,20724.27,253,711,20724.07,717,429487040,4294813009,5685,0.97,-0.27,-0.15,-14.09,-8.34,-1.92,-15.71,-70.91,-13.02,-27.28,22.39,-13.13,-29.03,Left Fall while Sitting
29:45.1,565,503,754.5,1000,254,3.03,330.3,1.24,20724.27,253,704,20724.07,717,429487040,4294784337,6389,0.96,-0.23,-0.12,-3.56,19.85,-8.91,-13.97,-73.21,-13.41,-24.98,21.34,-13.43,-26.91,Left Fall while Sitting
29:45.2,544,504,756,1000,256,3,333.77,1.25,20724.29,254,714,20723.83,710,429476992,0,0,1.04,-0.25,-0.01,-9.81,0.38,0.79,-13.82,-75.18,-14.57,-25.19,21.54,-14.54,-27.19,Left Fall while Sitting
29:45.3,459,503,754.5,1000,256,3,333.77,1.25,20724.29,254,707,20723.83,710,429476992,4294942857,707,1.03,-0.21,0.02,-2.34,6.35,-6.56,-12.28,-76.68,-14.8,-24.63,20.8,-14.7,-26.71,Left Fall while Sitting
29:45.5,545,504,756,1000,255,3.01,332.03,1.25,20724.29,254,711,20723.83,710,429476992,4294924090,1418,0.97,-0.19,-0.04,-3.37,3.03,-5.53,-11.57,-77.13,-15.16,-24.5,20.19,-15.02,-26.6,Left Fall while Sitting
29:45.6,509,504,756,1000,257,2.98,335.51,1.26,20724.29,254,713,20723.83,710,429476992,4294908171,2131,0.99,-0.2,-0.05,-2.68,2.01,1.38,-11.8,-76.9,-15.43,-24.5,20.47,-15.29,-26.59,Left Fall while Sitting
29:45.7,486,503,754.5,1000,253,3.04,328.57,1.24,20724.29,254,716,20723.83,710,429476992,4294896539,2847,1.02,-0.22,-0.04,1.48,-0.77,1.85,-12.87,-75.96,-15.17,-24.85,20.81,-15.08,-26.89,Left Fall while Sitting
29:45.8,555,504,756,1000,257,2.98,335.51,1.26,20724.29,254,717,20723.83,710,429476992,4294886340,3564,0.99,-0.21,-0.08,-0.76,-6.11,-1.54,-12.41,-75.63,-15.19,-25.89,20.71,-15.08,-27.88,Left Fall while Sitting
29:46.0,435,503,754.5,1000,256,3,333.77,1.25,20724.29,254,714,20723.83,710,429476992,4294871848,4278,0.97,-0.22,-0.09,-3.14,1.71,-5.2,-13.36,-74.55,-15.53,-25.93,20.14,-15.44,-27.87,Left Fall while Sitting
29:46.1,514,503,754.5,1000,255,3.01,332.03,1.25,20724.29,254,707,20723.83,710,429476992,4294847409,4985,1.02,-0.19,-0.08,-6.91,0.16,1.02,-11.07,-77.09,-16.34,-26.16,20.37,-16.13,-28.2,Left Fall while Sitting
29:48.9,441,441,661.5,441,252,3.06,326.85,1.23,0,0,714,0,0,0,16245,1459,1,-0.13,0.04,-0.53,-3.63,-1.39,-7.76,-80.87,0,-0.52,-0.32,-0.31,-3.74,Right Fall while Sitting
29:49.0,434,437,655.5,441,250,3.09,323.42,1.22,0,0,712,0,0,0,4294966197,2171,1,-0.1,0.03,-6.14,-6.42,-1.44,-6.45,-82.23,-0.7,-1.57,-0.4,-0.93,-4.8,Right Fall while Sitting
29:49.2,527,467,700.5,527,252,3.06,326.85,1.23,0,0,710,0,0,0,4294946009,2881,0.97,-0.13,0.01,0.52,4.26,9.72,-7.92,-81.06,-0.56,-1.29,0.91,-0.86,-4.48,Right Fall while Sitting
29:49.3,558,490,735,558,255,3.01,332.03,1.25,0,0,712,0,0,0,4294928665,3593,1.02,-0.17,0.03,-0.85,5.69,9.98,-9.9,-78.94,-0.6,-0.83,2.23,-0.97,-3.96,Right Fall while Sitting
29:49.4,534,498,747,558,255,3.01,332.03,1.25,0,0,718,0,0,0,4294919901,4311,1.01,-0.17,0.05,1.44,11.36,10.4,-9.94,-78.7,-0.35,0.32,3.61,-0.74,-2.84,Right Fall while Sitting
29:49.5,488,497,745.5,558,254,3.03,330.3,1.24,0,0,729,0,0,0,4294927054,5040,1.01,-0.2,0.07,-0.37,12.78,9.79,-11.93,-76.38,-0.33,1.65,4.92,-0.79,-1.47,Right Fall while Sitting
29:49.7,462,492,738,558,253,3.04,328.57,1.24,0,0,728,0,0,0,4294932750,5768,0.93,-0.23,0.09,-7.79,9.39,16.33,-14.28,-73.74,-1.21,2.55,7.01,-1.74,-0.5,Right Fall while Sitting
29:49.8,407,481,721.5,558,251,3.08,325.13,1.23,0,0,710,0,0,0,4294912562,6478,0.96,-0.28,0.14,-6.53,7.47,18.31,-16.67,-70.5,-1.95,3.23,9.37,-2.54,0.28,Right Fall while Sitting
29:49.9,494,482,723,558,251,3.08,325.13,1.23,20724.26,252,710,20724.12,718,429489248,0,0,0.94,-0.31,0.1,-0.56,11.46,20.19,-19,-68.98,-1.95,4.42,12,-2.63,1.48,Right Fall while Sitting
29:50.0,547,489,733.5,558,254,3.03,330.3,1.24,20724.26,252,720,20724.12,718,429489248,4294961408,720,0.9,-0.36,0.18,-2.63,10.99,30.88,-21.94,-64.41,-2.21,5.55,15.99,-3,2.75,Right Fall while Sitting
29:50.2,496,489,733.5,558,253,3.04,328.57,1.24,20724.26,252,725,20724.12,718,429489248,4294962745,1445,0.92,-0.46,0.16,3.38,3.05,29.25,-26.78,-60.64,-1.71,5.68,19.8,-2.71,3.03,Right Fall while Sitting
29:50.3,580,497,745.5,580,250,3.09,323.42,1.22,20724.26,252,710,20724.12,718,429489248,4294942557,2155,0.87,-0.48,0.13,4.2,3.58,21.04,-29.45,-58.46,-1.11,5.88,22.58,-2.24,3.31,Right Fall while Sitting
29:50.4,529,499,748.5,580,255,3.01,332.03,1.25,20724.26,252,719,20724.12,718,429489248,4294935230,2874,0.88,-0.52,0.16,-4.95,8.93,19.35,-31.04,-56.4,-1.66,6.76,25.13,-2.84,4.24,Right Fall while Sitting
29:50.5,478,498,747,580,253,3.04,328.57,1.24,20724.26,252,726,20724.12,718,429489248,4294938018,3600,0.81,-0.56,0.17,1.03,0.76,20.6,-34.94,-52.24,-1.46,6.61,27.85,-2.8,4.25,Right Fall while Sitting
29:50.7,489,497,745.5,580,251,3.08,325.13,1.23,20724.26,252,706,20724.12,718,429489248,4294912166,4306,0.81,-0.61,0.17,4.69,-1.62,23.25,-36.73,-50.62,-0.8,6.15,30.88,-2.24,3.88,Right Fall while Sitting
29:50.8,552,501,751.5,580,255,3.01,332.03,1.25,20724.26,252,717,20724.12,718,429489248,4294901967,5023,0.78,-0.66,0.16,2.4,2.85,17.58,-40.23,-47.37,-0.43,6.26,33.21,-2.02,4.11,Right Fall while Sitting
29:50.9,440,497,745.5,580,253,3.04,328.57,1.24,20724.26,252,726,20724.12,718,429489248,4294904755,5749,0.75,-0.67,0.18,4.66,-4.5,18.33,-41.51,-45.66,0.24,5.43,35.64,-1.43,3.39,Right Fall while Sitting
29:51.0,469,495,742.5,580,251,3.08,325.13,1.23,20724.26,252,711,20724.12,718,429489248,4294885988,6460,0.74,-0.71,0.15,-4.5,-2.44,16.5,-43.76,-44.09,-0.26,4.87,37.83,-2,2.91,Right Fall while Sitting
29:51.2,499,496,744,580,255,3.01,332.03,1.25,20724.27,253,716,20724.08,717,429487424,0,0,0.69,-0.73,0.18,-7.05,-3.96,13.73,-46.19,-41.03,-1.07,4.12,39.65,-2.88,2.32,Right Fall while Sitting
29:51.3,507,496,744,580,254,3.03,330.3,1.24,20724.27,253,731,20724.08,717,429487424,10073,731,0.69,-0.74,0.16,-3.86,-1.35,9.4,-46.57,-40.99,-1.49,3.7,40.93,-3.29,1.91,Right Fall while Sitting
29:51.4,453,494,741,580,252,3.06,326.85,1.23,20724.27,253,713,20724.08,717,429487424,4294961450,1444,0.65,-0.75,0.15,2,0.66,9.34,-49.19,-38.47,-1.17,3.53,42.21,-3.09,1.85,Right Fall while Sitting
29:51.5,806,508,762,806,252,3.06,326.85,1.23,20724.27,253,722,20724.08,717,429487424,4294958446,2166,0.65,-0.78,0.15,-3.55,-5.92,10.08,-49.95,-37.85,-1.55,2.53,43.59,-3.48,0.91,Right Fall while Sitting
29:51.7,474,507,760.5,806,254,3.03,330.3,1.24,20724.27,253,730,20724.08,717,429487424,4294967058,2896,0.63,-0.79,0.13,-6.5,-6.02,9.64,-51.41,-36.63,-2.3,1.51,44.92,-4.27,-0.02,Right Fall while Sitting
29:51.8,436,504,756,806,251,3.08,325.13,1.23,20724.27,253,715,20724.08,717,429487424,4294953995,3611,0.6,-0.8,0.16,-1.53,1.72,9.69,-52.86,-34.56,-2.43,1.47,46.25,-4.44,0.03,Right Fall while Sitting
29:51.9,518,504,756,806,251,3.08,325.13,1.23,20724.27,253,718,20724.08,717,429487424,4294945231,4329,0.59,-0.83,0.12,-0.04,2.15,7.63,-54.57,-33.53,-2.36,1.49,47.32,-4.45,0.09,Right Fall while Sitting
29:52.1,509,504,756,806,252,3.06,326.85,1.23,20724.27,253,728,20724.08,717,429487424,4294950927,5057,0.6,-0.83,0.13,-3.78,-3.79,2.56,-53.84,-34.17,-2.76,0.76,47.74,-4.81,-0.64,Right Fall while Sitting
29:52.2,501,504,756,806,250,3.09,323.42,1.22,20724.27,253,714,20724.08,717,429487424,4294936435,5771,0.58,-0.82,0.11,-1.79,-1.82,2.11,-54.73,-33.54,-2.92,0.28,48.11,-4.99,-1.08,Right Fall while Sitting
29:52.3,469,503,754.5,806,249,3.11,321.71,1.22,20724.27,253,711,20724.08,717,429487424,4294917668,6482,0.48,-0.83,0.18,-3.47,2.05,2.47,-58.68,-28.08,-3.29,0.28,48.52,-5.5,-0.85,Right Fall while Sitting
29:52.4,503,503,754.5,806,251,3.08,325.13,1.23,20724.25,251,730,20724.21,721,429492640,0,0,0.58,-0.84,0.12,-5.99,-3.22,0.79,-55.43,-32.66,-3.97,-0.37,48.72,-6.03,-1.66,Right Fall while Sitting
29:52.6,463,502,753,806,250,3.09,323.42,1.22,20724.25,251,730,20724.21,721,429492640,8612,730,0.58,-0.84,0.11,2.33,1.93,-3.47,-55.33,-32.98,-3.6,-0.38,48.38,-5.67,-1.68,Right Fall while Sitting
29:52.7,530,503,754.5,806,247,3.14,318.3,1.21,20724.25,251,712,20724.21,721,429492640,4294958564,1442,0.57,-0.84,0.08,-0.46,1.28,-2.21,-56.37,-32.23,-3.59,-0.47,48.2,-5.7,-1.74,Right Fall while Sitting
29:52.8,512,503,754.5,806,251,3.08,325.13,1.23,20724.25,251,716,20724.21,721,429492640,4294946932,2158,0.57,-0.84,0.1,-4.44,-1.28,-1.4,-56.15,-32.27,-4.09,-0.89,48.12,-6.17,-2.15,Right Fall while Sitting
29:52.9,512,503,754.5,806,250,3.09,323.42,1.22,20724.25,251,726,20724.21,721,429492640,4294949720,2884,0.58,-0.83,0.11,-0.81,1.54,-2.06,-55.14,-33.2,-4.12,-0.95,47.96,-6.16,-2.24,Right Fall while Sitting
29:53.1,491,503,754.5,806,247,3.14,318.3,1.21,20724.25,251,712,20724.21,721,429492640,4294932376,3596,0.59,-0.84,0.1,-2.51,0.75,-2.1,-55.17,-33.29,-4.37,-1.11,47.79,-6.4,-2.39,Right Fall while Sitting
29:53.2,522,503,754.5,806,250,3.09,323.42,1.22,20724.25,251,723,20724.21,721,429492640,4294930817,4319,0.6,-0.83,0.1,-1.79,2.18,-2.93,-54.49,-33.9,-4.52,-1.09,47.52,-6.52,-2.4,Right Fall while Sitting
29:53.3,471,502,753,806,249,3.11,321.71,1.22,20724.25,251,717,20724.21,721,429492640,4294920618,5036,0.56,-0.82,0.09,-3.56,-0.28,-0.2,-55.7,-32.83,-4.9,-1.38,47.6,-6.93,-2.63,Right Fall while Sitting
29:53.4,548,504,756,806,248,3.13,320,1.21,20724.25,251,708,20724.21,721,429492640,4294897594,5744,0.58,-0.82,0.1,-1.12,1.27,1.74,-54.96,-33.39,-4.97,-1.47,47.92,-6.97,-2.75,Right Fall while Sitting
29:53.6,523,504,756,806,250,3.09,323.42,1.22,20724.25,251,735,20724.21,721,429492640,4294913531,6479,0.58,-0.82,0.1,-0.69,-0.23,4.6,-54.81,-33.62,-4.99,-1.75,48.61,-6.98,-3.03,Right Fall while Sitting
29:53.7,511,504,756,806,248,3.13,320,1.21,20724.22,249,717,20724.15,719,429490336,0,0,0.42,-0.82,0.21,0.49,1.42,4.61,-60.85,-24.79,-4.86,-1.82,49.28,-7.1,-2.74,Right Fall while Sitting
29:53.8,483,504,756,806,247,3.14,318.3,1.21,20724.22,249,708,20724.15,719,429490336,4294944272,708,0.62,-0.85,0.07,-2.27,1.75,1.7,-54.34,-34.4,-5.08,-1.86,49.6,-7.05,-3.16,Right Fall while Sitting
29:54.0,497,503,754.5,806,251,3.08,325.13,1.23,20724.22,249,721,20724.15,719,429490336,4294939825,1429,0.57,-0.86,0.11,0.32,1.54,-1.04,-56.47,-31.86,-4.97,-1.91,49.57,-7.03,-3.11,Right Fall while Sitting
29:54.1,453,502,753,806,250,3.09,323.42,1.22,20724.22,249,719,20724.15,719,429490336,4294932498,2148,0.55,-0.85,0.11,-0.82,0.39,0.61,-57.01,-31.29,-5,-2.12,49.75,-7.08,-3.29,Right Fall while Sitting
29:54.2,515,503,754.5,806,248,3.13,320,1.21,20724.22,249,715,20724.15,719,429490336,4294919435,2863,0.56,-0.84,0.11,-1.19,0.2,0.49,-56.51,-31.74,-5.08,-2.35,49.91,-7.14,-3.52,Right Fall while Sitting
29:54.3,491,502,753,806,251,3.08,325.13,1.23,20724.22,249,720,20724.15,719,429490336,4294913547,3583,0.58,-0.85,0.08,-1.06,1.73,-0.84,-55.96,-32.71,-5.14,-2.38,49.9,-7.18,-3.59,Right Fall while Sitting
29:54.5,479,502,753,806,250,3.09,323.42,1.22,20724.22,249,715,20724.15,719,429490336,4294900484,4298,0.55,-0.85,0.11,-8.02,-0.76,-5.66,-56.91,-31.34,-6.09,-2.73,49.28,-8.12,-3.88,Right Fall while Sitting
29:54.6,474,501,751.5,806,250,3.09,323.42,1.22,20724.22,249,711,20724.15,719,429490336,4294881717,5009,0.57,-0.85,0.12,-5.6,-2.37,-5.89,-55.94,-32.17,-6.73,-3.29,48.63,-8.7,-4.44,Right Fall while Sitting
29:54.7,502,501,751.5,806,252,3.06,326.85,1.23,20724.22,249,725,20724.15,719,429490336,4294883054,5734,0.58,-0.84,0.1,2.66,6.52,-6.4,-55.25,-33.18,-6.32,-2.71,47.92,-8.28,-3.93,Right Fall while Sitting
29:54.8,465,500,750,806,250,3.09,323.42,1.22,20724.22,249,707,20724.15,719,429490336,4294858615,6441,0.59,-0.83,0.08,-1.28,-2.64,-6.24,-54.95,-33.67,-6.41,-3.3,47.22,-8.35,-4.51,Right Fall while Sitting
29:55.0,522,501,751.5,806,252,3.06,326.85,1.23,20724.23,250,706,20723.98,714,429483264,0,0,0.62,-0.84,0.07,-0.14,-7.26,-11.79,-53.6,-35.09,-6.36,-4.46,45.85,-8.25,-5.68,Right Fall while Sitting
29:55.1,517,501,751.5,806,253,3.04,328.57,1.24,20724.23,250,729,20723.98,714,429483264,7153,729,0.6,-0.78,0.07,-3.3,0.34,-11.8,-52.47,-36.22,-6.7,-4.67,44.46,-8.53,-5.93,Right Fall while Sitting
29:55.2,491,501,751.5,806,252,3.06,326.85,1.23,20724.23,250,714,20723.98,714,429483264,4294959957,1443,0.63,-0.8,0.08,-8.58,4.81,-3.27,-52.26,-36.36,-7.73,-4.31,44.14,-9.51,-5.59,Right Fall while Sitting
29:55.3,450,500,750,806,251,3.08,325.13,1.23,20724.23,250,712,20723.98,714,429483264,4294942613,2155,0.63,-0.8,0.09,-2.6,0.01,-4.98,-51.8,-36.7,-7.99,-4.56,43.61,-9.74,-5.85,Right Fall while Sitting
29:55.5,492,500,750,806,254,3.03,330.3,1.24,20724.23,250,726,20723.98,714,429483264,4294945401,2881,0.69,-0.81,0.09,-1.74,0.79,-14.82,-50.04,-38.54,-8.14,-4.71,41.83,-9.81,-6.07,Right Fall while Sitting
29:55.6,447,499,748.5,806,252,3.06,326.85,1.23,20724.23,250,713,20723.98,714,429483264,4294929482,3594,0.69,-0.75,0.08,2.71,-3.85,-31.08,-47.95,-40.72,-7.72,-5.46,37.95,-9.33,-6.87,Right Fall while Sitting
