Datetime, ECGRaw , AvgECG , ampECG , MAX , GSRRaw , Resistance , GSR(kohm) , SCL , GSRRMS , GSRMAV , EMGRaw , EMGRMS , EMGMAV , EMGVAR , EMGSSI , IEMG , AccX , AccY, AccZ , GyroX , GyroY , GyroZ , Aroll , Apitch , Groll , Gpitch, Gyaw , Combroll , Combpitch,Features,
11:12.0,452,452,678,452,444,1.3,766.84,2.17,0,0,187,0,0,0,4294906537,375,1.01,-0.01,0.1,-3.34,-1.11,-2.57,-1.13,-82.64,-0.09,-0.21,-0.43,-0.13,-3.51,Standing,
11:12.1,475,463,694.5,475,445,1.3,769.9,2.17,0,0,186,0,0,0,4294875597,561,1.03,-0.01,0.12,-1.96,-0.84,-3.27,-1.12,-81.87,-0.23,-0.49,-0.67,-0.26,-3.74,Standing,
11:12.2,515,480,720,515,444,1.3,766.84,2.17,0,0,187,0,0,0,4294845030,748,1.01,-0.01,0.09,-2.63,2.24,-1.91,-1.04,-83.52,-0.43,-0.46,-0.78,-0.46,-3.79,Standing,
11:12.3,497,484,726,515,444,1.3,766.84,2.17,0,0,186,0,0,0,4294814090,934,1.01,-0.01,0.12,-0.81,2.53,-0.21,-1.11,-81.9,-0.46,-0.41,-0.72,-0.48,-3.67,Standing,
11:12.4,538,495,742.5,538,443,1.31,763.79,2.17,0,0,186,0,0,0,4294783150,1120,1,0,0.1,-2.13,0.25,-1.53,-0.68,-82.6,-0.61,-0.59,-0.8,-0.61,-3.87,Standing,
11:12.5,555,505,757.5,555,444,1.3,766.84,2.17,0,0,187,0,0,0,4294752583,1307,1,-0.01,0.12,0.7,1.31,-1.11,-1.05,-81.68,-0.49,-0.65,-0.83,-0.51,-3.89,Standing,
11:12.6,444,496,744,555,443,1.31,763.79,2.17,0,0,186,0,0,0,4294721643,1493,0.99,-0.01,0.12,-0.48,-0.6,-1.7,-1.27,-81.44,-0.48,-0.91,-0.92,-0.51,-4.13,Standing,
11:12.8,471,493,739.5,555,443,1.31,763.79,2.17,0,0,186,0,0,0,4294690703,1679,1,-0.01,0.12,-1.73,0.34,-2.31,-0.87,-81.7,-0.6,-1.07,-1.07,-0.61,-4.3,Standing,
11:12.8,495,493,739.5,555,443,1.31,763.79,2.17,18.73,443,185,20723.56,186,429465952,0,0,1,-0.01,0.12,-2.21,1.29,-0.66,-1.04,-81.38,-0.76,-1.14,-1.06,-0.77,-4.35,Standing,
11:12.9,483,492,738,555,443,1.31,763.79,2.17,18.73,443,185,20723.56,186,429465952,4294935985,185,1,-0.01,0.11,-2.98,0.35,0.18,-1.22,-81.85,-1.01,-1.31,-0.96,-1.01,-4.53,Standing,
11:13.0,517,494,741,555,443,1.31,763.79,2.17,18.73,443,184,20723.56,186,429465952,4294904305,369,1.01,0,0.11,-2.68,0.73,-1.9,-0.76,-81.93,-1.22,-1.44,-1.07,-1.2,-4.66,Standing,
11:13.1,641,506,759,641,443,1.31,763.79,2.17,18.73,443,184,20723.56,186,429465952,4294872625,553,1,-0.01,0.12,-1.48,-0.33,-1.76,-1.25,-81.57,-1.31,-1.67,-1.17,-1.31,-4.87,Standing,
11:13.2,451,502,753,641,444,1.3,766.84,2.17,18.73,443,184,20723.56,186,429465952,4294840945,737,0.99,-0.01,0.11,-2.54,-2.62,-2.57,-1.1,-81.93,-1.51,-2.15,-1.35,-1.5,-5.34,Standing,
11:13.3,477,500,750,641,443,1.31,763.79,2.17,18.73,443,184,20723.56,186,429465952,4294809265,921,1.01,0,0.09,-2.64,-1.34,-1.47,-0.62,-83.16,-1.73,-2.49,-1.42,-1.68,-5.71,Standing,
11:13.4,489,500,750,641,443,1.31,763.79,2.17,18.73,443,184,20723.56,186,429465952,4294777585,1105,1,-0.02,0.1,-0.35,-2.18,-1.96,-1.67,-82.6,-1.71,-2.91,-1.54,-1.7,-6.09,Standing,
11:13.5,482,498,747,641,443,1.31,763.79,2.17,18.73,443,184,20723.56,186,429465952,4294745905,1289,1,-0.01,0.09,-1.78,-0.6,-2.81,-0.89,-83.02,-1.83,-3.17,-1.74,-1.79,-6.37,Standing,
11:13.6,430,494,741,641,443,1.31,763.79,2.17,18.73,443,184,20723.56,186,429465952,4294714225,1473,1,0,0.08,-1.42,2.15,-2.02,-0.47,-83.91,-1.92,-3.16,-1.87,-1.86,-6.39,Standing,
11:13.7,417,490,735,641,444,1.3,766.84,2.17,18.73,443,184,20723.56,186,429465952,4294682545,1657,1,0.01,0.1,-3.55,-0.7,-1.16,-0.25,-82.89,-2.22,-3.43,-1.9,-2.14,-6.61,Standing,
11:13.8,439,487,730.5,641,443,1.31,763.79,2.17,20724.3,443,183,20723.54,184,429465056,0,0,1.01,0.01,0.08,-4.63,-0.61,-3.47,0.26,-84.01,-2.63,-3.69,-2.17,-2.51,-6.91,Standing,
11:13.9,470,486,729,641,443,1.31,763.79,2.17,20724.3,443,183,20723.54,184,429465056,4294935249,183,1.01,0.01,0.1,-3.22,2.14,-4.55,-0.03,-82.91,-2.9,-3.68,-2.55,-2.78,-6.85,Standing,
11:14.0,472,486,729,641,444,1.3,766.84,2.17,20724.3,443,182,20723.54,184,429465056,4294902837,365,1.01,0.01,0.08,-1.4,-0.57,-4.11,0.17,-83.63,-2.98,-3.94,-2.89,-2.86,-7.13,Standing,
11:14.1,499,486,729,641,443,1.31,763.79,2.17,20724.3,443,186,20723.54,184,429465056,4294871897,551,1.02,0.01,0.08,-1.67,-1.25,-3.25,0.16,-83.7,-3.1,-4.27,-3.14,-2.97,-7.45,Standing,
11:14.2,405,483,724.5,641,443,1.31,763.79,2.17,20724.3,443,186,20723.54,184,429465056,4294840957,737,1.01,0.02,0.09,-0.64,1.24,-2.93,0.82,-83.27,-3.11,-4.35,-3.36,-2.95,-7.51,Standing,
11:14.3,435,481,721.5,641,443,1.31,763.79,2.17,20724.3,443,185,20723.54,184,429465056,4294809646,922,1,0.01,0.1,-2.97,2.15,1.61,0.21,-82.81,-3.35,-4.34,-3.12,-3.21,-7.47,Standing,
11:14.4,463,480,720,641,443,1.31,763.79,2.17,20724.3,443,185,20723.54,184,429465056,4294778335,1107,1.01,0.03,0.08,-1.54,3.69,-1.18,0.98,-83.4,-3.45,-4.16,-3.15,-3.27,-7.33,Standing,
11:14.5,492,480,720,641,444,1.3,766.84,2.17,20724.3,443,185,20723.54,184,429465056,4294747024,1292,1.01,0.02,0.1,-2.98,1.18,-1.34,0.34,-82.69,-3.7,-4.25,-3.21,-3.54,-7.39,Standing,
11:14.6,481,480,720,641,443,1.31,763.79,2.17,20724.3,443,185,20723.54,184,429465056,4294715713,1477,1,0.01,0.1,-1.73,1.21,0.95,0.17,-82.67,-3.82,-4.33,-3.04,-3.66,-7.46,Standing,
11:14.7,456,480,720,641,443,1.31,763.79,2.17,20724.3,443,181,20723.54,184,429465056,4294748474,1658,1.02,0.02,0.09,-1.4,3.12,-2.24,0.79,-83.05,-3.9,-4.22,-3.18,-3.72,-7.37,Standing,
11:14.8,447,478,717,641,443,1.31,763.79,2.17,20724.3,443,184,20723.7,184,429471680,0,0,1.01,0.02,0.08,-1.69,2.25,-1.34,0.56,-83.77,-4.02,-4.19,-3.24,-3.83,-7.37,Standing,
11:14.9,453,478,717,641,443,1.31,763.79,2.17,20724.3,443,181,20723.7,184,429471680,32761,181,0.99,0.01,0.08,-3.03,0.56,1.21,0.04,-83.97,-4.26,-4.33,-3.04,-4.09,-7.52,Standing,
11:15.0,476,477,715.5,641,443,1.31,763.79,2.17,20724.3,443,184,20723.7,184,429471680,1081,365,1,0.02,0.08,-1.72,1.6,-1.53,0.75,-83.57,-4.38,-4.37,-3.11,-4.17,-7.54,Standing,
11:15.1,491,478,717,641,444,1.3,766.84,2.17,20724.3,443,181,20723.7,184,429471680,33842,546,0.99,0.01,0.07,-3.66,0.21,-1.85,0.08,-84.55,-4.7,-4.56,-3.22,-4.5,-7.76,Standing,
11:15.2,522,479,718.5,641,443,1.31,763.79,2.17,20724.3,443,181,20723.7,184,429471680,66603,727,1.02,0.01,0.08,-1.92,4.44,-0.67,0.08,-83.66,-4.83,-4.31,-3.21,-4.63,-7.49,Standing,
11:15.3,410,477,715.5,641,444,1.3,766.84,2.17,20724.3,443,180,20723.7,184,429471680,99003,907,1.01,0.01,0.08,-1.26,2.71,0.75,-0.18,-84.03,-4.9,-4.24,-3.05,-4.71,-7.43,Standing,
11:15.4,442,476,714,641,443,1.31,763.79,2.17,20724.3,443,180,20723.7,184,429471680,131403,1087,1,0.02,0.08,-2.38,1.51,0.55,0.41,-83.92,-5.09,-4.29,-2.92,-4.87,-7.48,Standing,
11:15.5,458,476,714,641,444,1.3,766.84,2.17,20724.3,443,180,20723.7,184,429471680,163803,1267,0.99,0.01,0.09,-0.28,3.41,-0.44,0.04,-83.27,-5.06,-4.15,-2.88,-4.85,-7.31,Standing,
11:15.6,490,476,714,641,444,1.3,766.84,2.17,20724.3,443,179,20723.7,184,429471680,195844,1446,1,0.02,0.08,-2.09,1.05,-0.79,0.45,-83.62,-5.21,-4.25,-2.88,-4.99,-7.42,Standing,
11:15.7,458,476,714,641,443,1.31,763.79,2.17,20724.3,443,183,20723.7,184,429471680,163797,1629,1,0.01,0.1,0.65,2.48,-0.2,-0.26,-82.67,-5.09,-4.2,-2.82,-4.9,-7.34,Standing,
11:15.9,406,474,711,641,443,1.31,763.79,2.17,20724.3,443,182,114.62,181,13137,0,0,1,0.01,0.09,-3.28,0.07,-1.98,0.06,-83.13,-5.36,-4.39,-2.94,-5.14,-7.54,Standing,
11:16.0,354,471,706.5,641,443,1.31,763.79,2.17,20724.3,443,179,114.62,181,13137,32041,179,1,0.01,0.09,-0.29,1.89,-0.72,0.24,-82.95,-5.33,-4.4,-2.93,-5.11,-7.54,Standing,
11:16.0,346,468,702,641,443,1.31,763.79,2.17,20724.3,443,179,114.62,181,13137,64082,358,1,0.01,0.11,-1.49,2.76,-1.98,0.23,-82.19,-5.42,-4.32,-3.05,-5.2,-7.44,Standing,
11:16.1,340,465,697.5,641,444,1.3,766.84,2.17,20724.3,443,179,114.62,181,13137,96123,537,1,0.01,0.09,-2.21,0.54,-1.89,-0.02,-83.49,-5.59,-4.47,-3.16,-5.37,-7.63,Standing,
11:16.2,331,461,691.5,641,443,1.31,763.79,2.17,20724.3,443,182,114.62,181,13137,63711,719,1.01,0.02,0.1,-3.27,1.45,-1.29,0.33,-82.87,-5.86,-4.52,-3.21,-5.61,-7.66,Standing,
11:16.3,342,459,688.5,641,443,1.31,763.79,2.17,20724.3,443,178,114.62,181,13137,95395,897,1.01,0.01,0.09,-1.27,4.53,0.1,0.18,-83.14,-5.93,-4.27,-3.12,-5.68,-7.42,Standing,
11:16.4,299,455,682.5,641,444,1.3,766.84,2.17,20724.3,443,179,114.62,181,13137,127436,1076,1,0,0.1,-2.31,0.31,-1.12,-0.37,-82.86,-6.1,-4.44,-3.16,-5.87,-7.58,Standing,
11:16.6,326,452,678,641,443,1.31,763.79,2.17,20724.3,443,178,114.62,181,13137,159120,1254,1.01,0.02,0.1,-1.5,1.82,-1.59,0.59,-82.61,-6.2,-4.46,-3.24,-5.92,-7.58,Standing,
11:16.6,401,451,676.5,641,443,1.31,763.79,2.17,20724.3,443,178,114.62,181,13137,190804,1432,1,0.02,0.1,-2.22,-0.06,-0.69,0.35,-82.84,-6.36,-4.66,-3.23,-6.09,-7.79,Standing,
11:16.7,516,453,679.5,641,443,1.31,763.79,2.17,20724.3,443,177,114.62,181,13137,222133,1609,1.01,0.01,0.1,-3.15,1.13,-1.24,0,-82.47,-6.62,-4.75,-3.27,-6.36,-7.86,Standing,
11:16.8,542,454,681,641,443,1.31,763.79,2.17,20724.3,443,177,159.2,178,25345,0,0,1.02,0.02,0.1,-2.58,1.11,-1.92,0.57,-82.5,-6.82,-4.83,-3.38,-6.52,-7.94,Standing,
11:16.9,612,458,687,641,443,1.31,763.79,2.17,20724.3,443,177,159.2,178,25345,31329,177,1,0.02,0.09,-2.48,-0.4,-0.05,0.49,-83.08,-7.01,-5.08,-3.31,-6.71,-8.2,Standing,
11:17.0,575,460,690,641,443,1.31,763.79,2.17,20724.3,443,178,159.2,178,25345,63013,355,1,0.02,0.1,-2.6,1.37,-1.47,0.67,-82.72,-7.21,-5.14,-3.38,-6.9,-8.24,Standing,
11:17.1,592,462,693,641,443,1.31,763.79,2.17,20724.3,443,177,159.2,178,25345,94342,532,1.02,0.02,0.1,-3.6,-0.13,-2.08,0.48,-82.45,-7.52,-5.35,-3.51,-7.2,-8.43,Standing,
11:17.2,640,466,699,641,444,1.3,766.84,2.17,20724.3,443,180,159.2,178,25345,126742,712,1.01,0.01,0.09,-2.06,1.89,-0.83,-0.21,-83.02,-7.67,-5.36,-3.51,-7.37,-8.47,Standing,
11:17.3,692,470,705,692,444,1.3,766.84,2.17,20724.3,443,177,159.2,178,25345,158071,889,1,0,0.1,-2.1,1.43,-1.19,-0.47,-82.58,-7.82,-5.42,-3.55,-7.53,-8.51,Standing,
11:17.4,688,474,711,692,443,1.31,763.79,2.17,20724.3,443,176,159.2,178,25345,189047,1065,1,0.02,0.1,-1.4,0.02,-0.69,0.34,-82.51,-7.91,-5.62,-3.54,-7.58,-8.69,Standing,
11:17.5,681,478,717,692,444,1.3,766.84,2.17,20724.3,443,177,159.2,178,25345,220376,1242,1,0.01,0.09,-2.24,-0.95,-2.29,-0.08,-83.19,-8.07,-5.91,-3.69,-7.75,-9,Standing,
11:17.6,631,480,720,692,443,1.31,763.79,2.17,20724.3,443,179,159.2,178,25345,252417,1421,1.01,0.01,0.11,-0.58,-0.07,-1.63,0.01,-82.41,-8.08,-6.12,-3.78,-7.75,-9.17,Standing,
11:17.7,646,483,724.5,692,444,1.3,766.84,2.17,20724.3,443,176,159.2,178,25345,283393,1597,1.01,0.01,0.09,-1.49,0.17,-1.78,0.11,-82.98,-8.17,-6.3,-3.88,-7.84,-9.37,Standing,
11:17.8,655,486,729,692,444,1.3,766.84,2.17,9.17,443,176,177.3,177,31435,0,0,1,0.01,0.1,-3.47,-0.17,-0.93,0.14,-82.82,-8.45,-6.51,-3.89,-8.11,-9.57,Standing,
11:17.9,649,489,733.5,692,444,1.3,766.84,2.17,9.17,443,176,177.3,177,31435,30976,176,1,0.01,0.09,-2.68,1.05,-0.74,0.19,-83.15,-8.66,-6.61,-3.88,-8.31,-9.67,Standing,
11:18.0,616,491,736.5,692,443,1.31,763.79,2.17,9.17,443,179,177.3,177,31435,63017,355,1.01,0.02,0.09,-2.6,1.26,-1.11,0.68,-83.2,-8.87,-6.68,-3.92,-8.48,-9.74,Standing,
11:18.1,550,492,738,692,443,1.31,763.79,2.17,9.17,443,178,177.3,177,31435,94701,533,1,0.02,0.07,-2.29,0.89,-0.52,0.3,-84.19,-9.03,-6.79,-3.89,-8.66,-9.89,Standing,
11:18.2,520,492,738,692,444,1.3,766.84,2.17,9.17,443,175,177.3,177,31435,125326,708,1,0.01,0.1,-0.64,1.8,-0.57,0.16,-82.85,-9.04,-6.81,-3.87,-8.67,-9.85,Standing,
11:18.3,525,493,739.5,692,444,1.3,766.84,2.17,9.17,443,175,177.3,177,31435,155951,883,1.01,0.02,0.09,-2.24,1.99,-0.05,0.36,-83.15,-9.21,-6.81,-3.79,-8.83,-9.86,Standing,
11:18.4,550,494,741,692,443,1.31,763.79,2.17,9.17,443,175,177.3,177,31435,186576,1058,1.01,0.02,0.09,-1.95,1.27,-0.68,0.5,-83.18,-9.35,-6.88,-3.78,-8.95,-9.94,Standing,
11:18.5,546,494,741,692,443,1.31,763.79,2.17,9.17,443,174,177.3,177,31435,216852,1232,1.01,0.02,0.09,-2.07,-0.15,-0.86,0.61,-83.01,-9.5,-7.1,-3.79,-9.09,-10.13,Standing,
11:18.6,554,495,742.5,692,444,1.3,766.84,2.17,9.17,443,175,177.3,177,31435,247477,1407,1,0.01,0.1,-0.18,2.65,-0.97,0.02,-82.43,-9.46,-7.03,-3.81,-9.08,-10.05,Standing,
11:18.7,472,495,742.5,692,443,1.31,763.79,2.17,9.17,443,174,177.3,177,31435,277753,1581,1.02,0.01,0.11,-1.24,0.95,-1.45,0.06,-82.13,-9.53,-7.14,-3.87,-9.14,-10.14,Standing,
11:18.8,442,494,741,692,443,1.31,763.79,2.17,20724.3,443,174,175.5,175,30801,0,0,1,0.02,0.09,-1.32,3.03,-1.33,0.64,-83.32,-9.6,-7.03,-3.93,-9.19,-10.09,Standing,
11:18.9,449,493,739.5,692,443,1.31,763.79,2.17,20724.3,443,174,175.5,175,30801,30276,174,1.01,0.02,0.1,-2.6,1.73,-0.7,0.28,-82.6,-9.8,-7.06,-3.92,-9.4,-10.08,Standing,
11:19.0,489,493,739.5,692,444,1.3,766.84,2.17,20724.3,443,174,175.5,175,30801,60552,348,1,0.01,0.1,-3.56,0.24,-1.6,0.27,-82.86,-10.11,-7.24,-4,-9.69,-10.26,Standing,
11:19.1,452,493,739.5,692,443,1.31,763.79,2.17,20724.3,443,173,175.5,175,30801,90481,521,1,0.02,0.09,-1.99,0.33,-3.2,0.72,-82.9,-10.25,-7.4,-4.24,-9.81,-10.42,Standing,
11:19.2,502,493,739.5,692,443,1.31,763.79,2.17,20724.3,443,173,175.5,175,30801,120410,694,1.02,0.02,0.1,-1.11,1.19,-2.67,0.41,-82.49,-10.3,-7.49,-4.43,-9.88,-10.49,Standing,
11:19.3,435,492,738,692,443,1.31,763.79,2.17,20724.3,443,173,175.5,175,30801,150339,867,1.01,0.01,0.11,-2.35,0.24,-1.69,0.1,-82.18,-10.48,-7.66,-4.52,-10.06,-10.64,Standing,
11:19.4,402,491,736.5,692,443,1.31,763.79,2.17,20724.3,443,173,175.5,175,30801,180268,1040,1.01,0.02,0.11,-1.58,0.94,-1.21,0.3,-82.36,-10.59,-7.77,-4.56,-10.15,-10.75,Standing,
11:19.5,424,490,735,692,443,1.31,763.79,2.17,20724.3,443,172,175.5,175,30801,209852,1212,1.01,0.02,0.1,-1.9,0.78,-1.31,0.65,-82.51,-10.72,-7.89,-4.61,-10.27,-10.88,Standing,
11:19.6,451,490,735,692,443,1.31,763.79,2.17,20724.3,443,173,175.5,175,30801,239781,1385,1,0.03,0.09,-3.88,-0.2,-1.11,0.94,-83.04,-11.05,-8.11,-4.65,-10.57,-11.11,Standing,
11:19.7,436,489,733.5,692,443,1.31,763.79,2.17,20724.3,443,173,175.5,175,30801,269710,1558,1.01,0.03,0.09,-4.25,0.85,-1.5,1.12,-82.99,-11.42,-8.23,-4.72,-10.92,-11.22,Standing,
11:19.8,434,488,732,692,444,1.3,766.84,2.17,20724.3,443,176,173.4,173,30067,0,0,1.02,0.03,0.09,-5.4,0.33,-2.98,1.02,-83.29,-11.91,-8.39,-4.94,-11.39,-11.39,Standing,
11:19.9,420,487,730.5,692,443,1.31,763.79,2.17,20724.3,443,172,173.4,173,30067,29584,172,1,0.02,0.08,-1.59,4.42,-1.77,0.69,-83.49,-12.01,-8.15,-5.03,-11.5,-11.17,Standing,
11:20.0,414,486,729,692,443,1.31,763.79,2.17,20724.3,443,172,173.4,173,30067,59168,344,1.01,0.03,0.09,-3.05,1.21,-1.48,0.96,-83.2,-12.26,-8.23,-5.1,-11.73,-11.23,Standing,
11:20.1,440,486,729,692,444,1.3,766.84,2.17,20724.3,443,172,173.4,173,30067,88752,516,1.01,0.03,0.09,-2.81,2.18,-2.19,0.84,-83.22,-12.48,-8.21,-5.25,-11.95,-11.21,Standing,
11:20.2,455,485,727.5,692,443,1.31,763.79,2.17,20724.3,443,171,173.4,173,30067,117993,687,1.01,0.02,0.1,-0.88,1.76,-1.79,0.82,-82.76,-12.52,-8.24,-5.34,-11.98,-11.22,Standing,
11:20.3,448,485,727.5,692,444,1.3,766.84,2.17,20724.3,443,175,173.4,173,30067,148618,862,1.01,0.03,0.1,-2.49,-0.25,-0.76,1.37,-82.58,-12.71,-8.46,-5.34,-12.14,-11.43,Standing,
11:20.4,428,484,726,692,443,1.31,763.79,2.17,20724.3,443,174,173.4,173,30067,178894,1036,0.99,0.03,0.1,-2.29,2.24,-0.59,0.93,-82.75,-12.88,-8.44,-5.32,-12.33,-11.41,Standing,
11:20.5,431,484,726,692,444,1.3,766.84,2.17,20724.3,443,174,173.4,173,30067,209170,1210,1,0.03,0.1,-1.59,1.82,-3.18,0.93,-82.63,-12.99,-8.46,-5.56,-12.43,-11.42,Standing,
11:20.6,462,483,724.5,692,443,1.31,763.79,2.17,20724.3,443,171,173.4,173,30067,238411,1381,1.01,0.03,0.09,-2.94,0.42,-2.01,1.01,-82.81,-13.23,-8.61,-5.68,-12.66,-11.58,Standing,
11:35.9,415,415,622.5,415,443,1.31,763.79,2.17,0,0,149,0,0,0,45002,300,0.98,0.17,0.14,-3.59,-1.85,-2.64,9.16,-75.69,-0.38,-0.36,-0.25,0,-3.37,Left Fall while Standing,
11:36.0,414,414,621,415,443,1.31,763.79,2.17,0,0,149,0,0,0,67203,449,0.98,0.17,0.13,-5.6,-3.09,-6.43,9.12,-76.14,-0.87,-0.85,-0.8,-0.47,-3.86,Left Fall while Standing,
11:36.1,423,417,625.5,423,443,1.31,763.79,2.17,0,0,149,0,0,0,89404,598,0.99,0.17,0.13,-0.62,-3.74,-11.33,9.17,-76.14,-0.87,-1.41,-1.82,-0.47,-4.4,Left Fall while Standing,
11:36.2,454,426,639,454,443,1.31,763.79,2.17,0,0,149,0,0,0,111605,747,1,0.19,0.11,-7.93,-9.98,-12.9,9.9,-76.26,-1.6,-2.58,-3.01,-1.14,-5.53,Left Fall while Standing,
11:36.3,452,431,646.5,454,444,1.3,766.84,2.17,0,0,149,0,0,0,133806,896,1.02,0.2,0.13,-2.93,0.89,-16.69,10.66,-75.13,-1.83,-2.69,-4.57,-1.33,-5.59,Left Fall while Standing,
11:36.4,498,442,663,498,444,1.3,766.84,2.17,0,0,149,0,0,0,156007,1045,0.99,0.21,0.11,-7.4,-14.63,-16.54,11.49,-74.92,-2.5,-4.32,-6.11,-1.94,-7.14,Left Fall while Standing,
11:36.5,504,451,676.5,504,444,1.3,766.84,2.17,0,0,149,0,0,0,178208,1194,0.94,0.27,0.07,-6.48,-8.95,-19.91,15.32,-71.96,-3.08,-5.39,-7.98,-2.34,-8.06,Left Fall while Standing,
11:36.6,424,448,672,504,443,1.31,763.79,2.17,0,0,148,0,0,0,200112,1342,0.96,0.32,0.08,-4.97,-1.41,-17.36,17.83,-69.38,-3.51,-5.73,-9.61,-2.66,-8.27,Left Fall while Standing,
11:36.7,439,447,670.5,504,443,1.31,763.79,2.17,20724.3,443,146,148.8,148,22141,0,0,0.95,0.33,0.05,-10.6,-8.24,-12.15,18.5,-69.13,-4.51,-6.74,-10.73,-3.59,-9.24,Left Fall while Standing,
11:36.8,468,449,673.5,504,443,1.31,763.79,2.17,20724.3,443,150,148.8,148,22141,22500,150,0.96,0.35,0.08,-10.4,-0.82,-16.94,19.29,-68.03,-5.49,-7.02,-12.35,-4.5,-9.46,Left Fall while Standing,
11:36.9,467,450,675,504,443,1.31,763.79,2.17,20724.3,443,150,148.8,148,22141,45000,300,0.68,0.37,0.17,-5.73,4.41,-11.05,27.21,-57.61,-6.01,-6.78,-13.38,-4.68,-8.81,Left Fall while Standing,
11:37.0,431,449,673.5,504,443,1.31,763.79,2.17,20724.3,443,150,148.8,148,22141,67500,450,0.86,0.34,0.08,-4.25,7.27,-25.44,21.21,-66.05,-6.38,-6.25,-15.85,-5.28,-8.64,Left Fall while Standing,
11:37.1,428,447,670.5,504,443,1.31,763.79,2.17,20724.3,443,146,148.8,148,22141,88816,596,0.91,0.44,0.06,-4.29,-6.14,-43.55,25.07,-62.55,-6.75,-7.07,-20.12,-5.48,-9.28,Left Fall while Standing,
11:37.2,448,447,670.5,504,444,1.3,766.84,2.17,20724.3,443,146,148.8,148,22141,110132,742,0.81,0.44,0.12,-10.74,7.67,-28.98,27.95,-58.8,-7.78,-6.49,-22.97,-6.35,-8.58,Left Fall while Standing,
11:37.3,489,450,675,504,443,1.31,763.79,2.17,20724.3,443,149,148.8,148,22141,132333,891,0.77,0.51,0.08,-13.45,-7.45,-27.1,32.46,-54.88,-9.07,-7.44,-25.6,-7.41,-9.34,Left Fall while Standing,
11:37.4,480,452,678,504,443,1.31,763.79,2.17,20724.3,443,150,148.8,148,22141,154833,1041,0.82,0.55,0.06,-15,-4.07,-32.08,33.19,-54.46,-10.53,-8.05,-28.76,-8.78,-9.91,Left Fall while Standing,
11:37.5,478,453,679.5,504,443,1.31,763.79,2.17,20724.3,443,146,148.8,148,22141,176149,1187,0.81,0.61,0.07,-5.08,-2.12,-25.93,36.15,-51.36,-10.99,-8.47,-31.3,-9.1,-10.18,Left Fall while Standing,
11:37.6,556,459,688.5,556,443,1.31,763.79,2.17,20724.3,443,147,148.8,148,22141,197758,1334,0.78,0.64,0.04,-6.63,-8.34,-10.89,38.52,-49.2,-11.6,-9.51,-32.32,-9.59,-11.1,Left Fall while Standing,
11:37.7,449,458,687,556,443,1.31,763.79,2.17,20724.3,443,150,148.41,148,22024,0,0,0.78,0.66,0.03,-4.22,-2.5,-7.21,39.45,-48.32,-11.96,-9.96,-32.96,-9.91,-11.49,Left Fall while Standing,
11:37.8,455,458,687,556,443,1.31,763.79,2.17,20724.3,443,150,148.41,148,22024,22500,150,0.73,0.64,0.07,-0.05,4.85,-5.38,40.52,-47.02,-11.91,-9.67,-33.42,-9.81,-11.16,Left Fall while Standing,
11:37.9,482,459,688.5,556,444,1.3,766.84,2.17,20724.3,443,146,148.41,148,22024,43816,296,0.72,0.63,0.09,-3.12,-3.24,-7.06,40.67,-46.68,-12.17,-10.19,-34.05,-10.05,-11.65,Left Fall while Standing,
11:38.0,485,460,690,556,443,1.31,763.79,2.17,20724.3,443,145,148.41,148,22024,64841,441,0.73,0.64,0.14,-5.03,3.63,-13.8,40.39,-46.23,-12.62,-10.03,-35.38,-10.5,-11.47,Left Fall while Standing,
11:38.1,447,460,690,556,443,1.31,763.79,2.17,20724.3,443,146,148.41,148,22024,86157,587,0.72,0.68,0.1,-4.76,6.74,-13.44,42.38,-44.88,-13.04,-9.55,-36.64,-10.83,-10.96,Left Fall while Standing,
11:38.2,446,459,688.5,556,443,1.31,763.79,2.17,20724.3,443,149,148.41,148,22024,108358,736,0.7,0.67,0.1,-1.62,-4.98,-4.91,43.1,-44.16,-13.15,-10.25,-37.05,-10.9,-11.61,Left Fall while Standing,
11:38.3,474,460,690,556,443,1.31,763.79,2.17,20724.3,443,149,148.41,148,22024,130559,885,0.73,0.72,0.12,-3.6,1.27,-6.93,43.64,-43.46,-13.46,-10.32,-37.68,-11.17,-11.65,Left Fall while Standing,
11:38.4,525,462,693,556,444,1.3,766.84,2.17,20724.3,443,149,148.41,148,22024,152760,1034,0.69,0.71,0.07,-6.93,5.37,-12.11,45.31,-42.24,-14.1,-9.98,-38.82,-11.73,-11.27,Left Fall while Standing,
11:38.5,518,464,696,556,443,1.31,763.79,2.17,20724.3,443,144,148.41,148,22024,173496,1178,0.68,0.7,0.09,-4.44,0.06,-5.69,45.07,-42.31,-14.49,-10.18,-39.31,-12.11,-11.46,Left Fall while Standing,
11:38.6,540,467,700.5,556,443,1.31,763.79,2.17,20724.3,443,149,148.41,148,22024,195697,1327,0.68,0.72,0.06,-4.13,-7.74,-6.3,46.03,-41.6,-14.85,-11.17,-39.87,-12.42,-12.39,Left Fall while Standing,
11:38.7,478,467,700.5,556,444,1.3,766.84,2.17,20724.3,443,145,147.21,147,21671,0,0,0.66,0.73,0.09,-0.47,0,-8.87,47.12,-40.29,-14.85,-11.37,-40.67,-12.37,-12.53,Left Fall while Standing,
11:38.8,472,467,700.5,556,443,1.31,763.79,2.17,20724.3,443,145,147.21,147,21671,21025,145,0.65,0.74,0.09,-3.31,4.93,-7.53,47.62,-39.79,-15.12,-11.07,-41.35,-12.61,-12.22,Left Fall while Standing,
11:38.9,491,468,702,556,444,1.3,766.84,2.17,20724.3,443,145,147.21,147,21671,42050,290,0.64,0.72,0.07,0.77,3.06,-7.24,47.69,-39.83,-14.99,-10.97,-42.01,-12.48,-12.12,Left Fall while Standing,
11:39.0,530,470,705,556,443,1.31,763.79,2.17,20724.3,443,145,147.21,147,21671,63075,435,0.65,0.74,0.08,-0.34,-2.34,-7.22,47.95,-39.5,-14.97,-11.4,-42.65,-12.45,-12.52,Left Fall while Standing,
11:39.1,520,472,708,556,443,1.31,763.79,2.17,20724.3,443,149,147.21,147,21671,85276,584,0.61,0.75,0.08,0.69,8.52,-8.18,50.32,-37.13,-14.84,-10.75,-43.39,-12.24,-11.8,Left Fall while Standing,
11:39.2,505,473,709.5,556,443,1.31,763.79,2.17,20724.3,443,145,147.21,147,21671,106301,729,0.6,0.76,0.1,-0.1,1.31,-6.31,50.89,-36.27,-14.8,-10.82,-43.95,-12.17,-11.84,Left Fall while Standing,
11:39.3,537,474,711,556,443,1.31,763.79,2.17,20724.3,443,145,147.21,147,21671,127326,874,0.61,0.75,0.13,-1.56,7.8,-7.79,49.81,-36.98,-14.9,-10.24,-44.65,-12.31,-11.31,Left Fall while Standing,
11:39.4,481,475,712.5,556,444,1.3,766.84,2.17,20724.3,443,145,147.21,147,21671,148351,1019,0.6,0.78,0.11,-5.21,4.65,-7.93,51.4,-35.67,-15.37,-9.97,-45.38,-12.7,-11,Left Fall while Standing,
11:39.5,479,475,712.5,556,443,1.31,763.79,2.17,20724.3,443,145,147.21,147,21671,169376,1164,0.59,0.77,0.08,-2.38,3.5,-9.15,52.05,-35.36,-15.55,-9.82,-46.21,-12.85,-10.84,Left Fall while Standing,
11:39.6,502,475,712.5,556,443,1.31,763.79,2.17,20724.3,443,145,147.21,147,21671,190401,1309,0.57,0.79,0.11,-1.54,-1.24,-5.89,53.3,-33.77,-15.65,-10.15,-46.73,-12.89,-11.09,Left Fall while Standing,
11:39.7,541,477,715.5,556,444,1.3,766.84,2.17,20724.3,443,145,145.4,145,21141,0,0,0.56,0.81,0.12,-0.31,8.47,-10.18,54.04,-32.86,-15.63,-9.5,-47.67,-12.84,-10.43,Left Fall while Standing,
11:39.8,531,478,717,556,443,1.31,763.79,2.17,20724.3,443,144,145.4,145,21141,20736,144,0.56,0.81,0.12,-4.9,3.56,-11.56,54.42,-32.56,-16.06,-9.34,-48.75,-13.24,-10.27,Left Fall while Standing,
11:39.9,516,479,718.5,556,443,1.31,763.79,2.17,20724.3,443,144,145.4,145,21141,41472,288,0.54,0.81,0.12,-5.37,0.25,-5.11,54.87,-31.99,-16.55,-9.52,-49.18,-13.69,-10.42,Left Fall while Standing,
11:40.0,506,480,720,556,443,1.31,763.79,2.17,20724.3,443,144,145.4,145,21141,62208,432,0.55,0.81,0.12,-4.31,5.96,-2.52,54.9,-31.98,-16.93,-9.12,-49.36,-14.05,-10.03,Left Fall while Standing,
11:40.1,510,481,721.5,556,443,1.31,763.79,2.17,20724.3,443,147,145.4,145,21141,83817,579,0.55,0.81,0.11,-2.89,1.67,-3.2,54.97,-32.07,-17.16,-9.15,-49.6,-14.27,-10.07,Left Fall while Standing,
11:40.2,498,481,721.5,556,443,1.31,763.79,2.17,20724.3,443,148,145.4,145,21141,105721,727,0.54,0.81,0.12,-3.67,0.01,-1.83,55.19,-31.75,-17.47,-9.35,-49.7,-14.56,-10.25,Left Fall while Standing,
11:40.3,490,481,721.5,556,444,1.3,766.84,2.17,20724.3,443,148,145.4,145,21141,127625,875,0.52,0.81,0.1,-2.82,1.92,-0.56,56.15,-31.03,-17.7,-9.36,-49.68,-14.75,-10.23,Left Fall while Standing,
11:40.4,492,481,721.5,556,443,1.31,763.79,2.17,20724.3,443,144,145.4,145,21141,148361,1019,0.53,0.82,0.11,-3.05,-1.21,-2.16,55.88,-31.2,-17.95,-9.68,-49.81,-14.99,-10.54,Left Fall while Standing,
11:40.6,515,482,723,556,443,1.31,763.79,2.17,20724.3,443,144,145.4,145,21141,169097,1163,0.52,0.8,0.1,-2.93,3.74,-0.94,55.87,-31.24,-18.19,-9.5,-49.83,-15.23,-10.37,Left Fall while Standing,
11:40.6,513,483,724.5,556,443,1.31,763.79,2.17,20724.3,443,144,145.4,145,21141,189833,1307,0.53,0.81,0.1,-3.32,0.5,0.02,55.71,-31.46,-18.47,-9.65,-49.75,-15.5,-10.52,Left Fall while Standing,
11:40.8,499,483,724.5,556,443,1.31,763.79,2.17,20724.3,443,147,145.41,145,21143,0,0,0.54,0.82,0.11,-3.47,-1.26,0.24,55.41,-31.69,-18.75,-9.98,-49.65,-15.79,-10.84,Left Fall while Standing,
11:40.8,490,483,724.5,556,443,1.31,763.79,2.17,20724.3,443,144,145.41,145,21143,20736,144,0.54,0.81,0.09,-2.73,0.99,0.85,55.25,-32.03,-18.97,-10.08,-49.48,-16,-10.95,Left Fall while Standing,
11:41.0,485,483,724.5,556,443,1.31,763.79,2.17,20724.3,443,144,145.41,145,21143,41472,288,0.54,0.8,0.1,-0.47,0.85,1.12,55.09,-32.1,-18.96,-10.19,-49.29,-16,-11.07,Left Fall while Standing,
11:41.0,476,483,724.5,556,443,1.31,763.79,2.17,20724.3,443,147,145.41,145,21143,63081,435,0.54,0.79,0.13,-1.6,0.82,0.54,54.31,-32.5,-19.07,-10.31,-49.16,-16.13,-11.2,Left Fall while Standing,
11:41.2,457,483,724.5,556,443,1.31,763.79,2.17,20724.3,443,144,145.41,145,21143,83817,579,0.56,0.8,0.12,-2.52,-1.61,5.18,53.98,-33,-19.26,-10.67,-48.55,-16.34,-11.57,Left Fall while Standing,
11:41.3,421,481,721.5,556,444,1.3,766.84,2.17,20724.3,443,147,145.41,145,21143,105426,726,0.57,0.79,0.11,-1.31,5.47,11.94,53.02,-34.02,-19.34,-10.32,-47.27,-16.45,-11.27,Left Fall while Standing,
11:41.4,415,480,720,556,443,1.31,763.79,2.17,20724.3,443,144,145.41,145,21143,126162,870,0.57,0.76,0.14,-1.3,3.67,17.57,51.67,-34.9,-19.41,-10.16,-45.43,-16.57,-11.15,Left Fall while Standing,
11:41.5,392,479,718.5,556,443,1.31,763.79,2.17,20724.3,443,144,145.41,145,21143,146898,1014,0.59,0.77,0.14,-0.74,3.71,14.24,51.23,-35.33,-19.43,-9.98,-43.9,-16.61,-11,Left Fall while Standing,
11:41.6,371,477,715.5,556,443,1.31,763.79,2.17,20724.3,443,147,145.41,145,21143,168507,1161,0.59,0.73,0.13,-4.98,-0.6,14.19,49.51,-37.18,-19.87,-10.24,-42.4,-17.1,-11.32,Left Fall while Standing,
11:41.7,350,475,712.5,556,443,1.31,763.79,2.17,20724.3,443,143,145.41,145,21143,188956,1304,0.64,0.71,0.16,-10.02,-3.97,21.5,46.58,-39.7,-20.83,-10.85,-40.15,-18.13,-12,Left Fall while Standing,
11:41.8,344,472,708,556,443,1.31,763.79,2.17,20724.3,443,147,145.11,145,21055,0,0,0.68,0.71,0.14,-4.23,0.6,17.59,44.68,-41.98,-21.2,-10.99,-38.29,-18.57,-12.23,Left Fall while Standing,
11:41.9,395,471,706.5,556,443,1.31,763.79,2.17,20724.3,443,143,145.11,145,21055,20449,143,0.71,0.67,0.14,-0.73,5.63,20.46,42.28,-44.46,-21.22,-10.62,-36.17,-18.68,-11.98,Left Fall while Standing,
11:42.0,423,470,705,556,443,1.31,763.79,2.17,20724.3,443,143,145.11,145,21055,40898,286,0.73,0.64,0.14,3.89,3.81,23.87,40.15,-46.53,-20.77,-10.44,-33.7,-18.34,-11.89,Left Fall while Standing,
11:42.1,378,469,703.5,556,443,1.31,763.79,2.17,20724.3,443,147,145.11,145,21055,62507,433,0.77,0.62,0.13,-0.59,-2.25,29.21,37.99,-48.86,-20.78,-10.87,-30.67,-18.43,-12.39,Left Fall while Standing,
11:42.2,425,468,702,556,443,1.31,763.79,2.17,20724.3,443,143,145.11,145,21055,82956,576,0.8,0.57,0.15,3.54,-5.29,32.05,34.04,-52.34,-20.36,-11.61,-27.36,-18.19,-13.24,Left Fall while Standing,
11:42.3,471,468,702,556,444,1.3,766.84,2.17,20724.3,443,147,145.11,145,21055,104565,723,0.81,0.52,0.12,5.08,9.87,33.66,31.82,-55.06,-19.79,-10.81,-23.88,-17.73,-12.58,Left Fall while Standing,
11:42.4,510,469,703.5,556,443,1.31,763.79,2.17,20724.3,443,143,145.11,145,21055,125014,866,0.88,0.52,0,2.89,9.55,27,29.91,-57.93,-19.44,-10.05,-21.07,-17.47,-11.97,Left Fall while Standing,
11:42.5,522,470,705,556,444,1.3,766.84,2.17,20724.3,443,143,145.11,145,21055,145463,1009,0.84,0.44,0.15,2.24,11.6,26.57,26.57,-59.58,-19.16,-9.09,-18.33,-17.33,-11.11,Left Fall while Standing,
11:42.6,534,470,705,556,443,1.31,763.79,2.17,20724.3,443,143,145.11,145,21055,165912,1152,0.86,0.4,0.16,5.97,6.71,21.63,23.93,-61.78,-18.5,-8.61,-16.05,-16.8,-10.74,Left Fall while Standing,
11:42.7,558,472,708,558,443,1.31,763.79,2.17,20724.3,443,143,145.11,145,21055,186361,1295,0.91,0.37,0.17,-0.07,4.96,21.54,21.26,-64.19,-18.45,-8.32,-13.81,-16.86,-10.55,Left Fall while Standing,
11:42.8,551,473,709.5,558,444,1.3,766.84,2.17,20724.3,443,143,143.81,143,20680,0,0,0.91,0.31,0.13,4.85,4.26,26.67,18.05,-68.19,-17.91,-8.09,-11.09,-16.47,-10.5,Left Fall while Standing,
11:42.9,557,474,711,558,443,1.31,763.79,2.17,20724.3,443,143,143.81,143,20680,20449,143,0.95,0.28,0.18,-4.02,-6.11,25.02,15.83,-68.78,-18.26,-8.91,-8.49,-16.9,-11.31,Left Fall while Standing,
11:43.0,590,476,714,590,443,1.31,763.79,2.17,20724.3,443,143,143.81,143,20680,40898,286,0.99,0.27,0.15,-4.07,1.31,23.1,14.37,-71.18,-18.61,-8.98,-6.1,-17.29,-11.47,Left Fall while Standing,
11:43.1,621,478,717,621,444,1.3,766.84,2.17,20724.3,443,143,143.81,143,20680,61347,429,0.98,0.21,0.13,-3.21,0.6,25.95,11.65,-74.02,-18.88,-9.12,-3.42,-17.66,-11.72,Left Fall while Standing,
11:43.2,598,479,718.5,621,443,1.31,763.79,2.17,20724.3,443,143,143.81,143,20680,81796,572,0.98,0.19,0.19,-1.6,0.07,16.71,10.26,-73.23,-18.98,-9.32,-1.66,-17.81,-11.87,Left Fall while Standing,
11:43.3,571,481,721.5,621,443,1.31,763.79,2.17,20724.3,443,146,143.81,143,20680,103112,718,0.98,0.15,0.18,-0.66,2.05,8.15,7.7,-74.99,-18.99,-9.31,-0.76,-17.92,-11.94,Left Fall while Standing,
11:43.4,548,481,721.5,621,443,1.31,763.79,2.17,20724.3,443,143,143.81,143,20680,123561,861,1.04,0.12,0.13,0.06,1.96,3.94,5.98,-78.62,-18.93,-9.31,-0.29,-17.93,-12.09,Left Fall while Standing,
11:43.5,519,482,723,621,444,1.3,766.84,2.17,20724.3,443,147,143.81,143,20680,145170,1008,0.99,0.12,0.17,-0.76,9.6,-0.77,6.51,-76.45,-18.95,-8.55,-0.29,-17.93,-11.26,Left Fall while Standing,
11:43.6,493,482,723,621,443,1.31,763.79,2.17,20724.3,443,146,143.81,143,20680,166486,1154,1,0.14,0.17,-6.01,4.62,-0.32,7.05,-76.03,-19.5,-8.28,-0.24,-18.43,-10.99,Left Fall while Standing,
11:43.7,402,481,721.5,621,443,1.31,763.79,2.17,20724.3,443,143,143.81,143,20680,186935,1297,0.97,0.13,0.17,-11.4,-11.5,-4.14,6.71,-76.17,-20.59,-9.65,-0.58,-19.5,-12.31,Left Fall while Standing,
11:43.8,438,481,721.5,621,443,1.31,763.79,2.17,20724.3,443,146,144.31,144,20824,0,0,1.04,0.17,0.19,-5.44,7.33,-0.34,8.79,-74.42,-21.07,-9.12,-0.54,-19.88,-11.73,Left Fall while Standing,
11:49.2,530,530,795,530,443,1.31,763.79,2.17,0,0,141,0,0,0,40330,284,1,-0.13,0.04,-0.6,7.96,3.3,-7.93,-80.72,-0.49,0.6,1.64,-0.78,-2.65,Right Fall while Standing,
11:49.3,474,502,753,530,443,1.31,763.79,2.17,0,0,142,0,0,0,60494,426,1.03,-0.15,0.08,-1,-4.82,4.28,-8.8,-79.09,-0.53,-0.06,2.13,-0.86,-3.22,Right Fall while Standing,
11:49.4,468,490,735,530,442,1.31,760.76,2.16,0,0,141,0,0,0,80375,567,1.01,-0.16,0.05,-1.93,0.33,5.76,-9.63,-78.85,-0.66,-0.22,2.76,-1.02,-3.37,Right Fall while Standing,
11:49.5,486,489,733.5,530,442,1.31,760.76,2.16,0,0,141,0,0,0,100256,708,0.96,-0.19,0.05,-1.95,-0.95,12.31,-11.57,-76.98,-0.8,-0.51,4.03,-1.23,-3.57,Right Fall while Standing,
11:49.6,536,498,747,536,443,1.31,763.79,2.17,0,0,141,0,0,0,120137,849,0.97,-0.2,0.08,-4.3,2.84,7.56,-12.32,-75.89,-1.17,-0.42,4.86,-1.61,-3.44,Right Fall while Standing,
11:49.7,527,503,754.5,536,443,1.31,763.79,2.17,0,0,142,0,0,0,140301,991,0.97,-0.2,0.07,-2.69,0.42,5.5,-12.36,-75.98,-1.37,-0.58,5.47,-1.81,-3.59,Right Fall while Standing,
11:49.8,573,513,769.5,573,443,1.31,763.79,2.17,0,0,142,0,0,0,160465,1133,0.99,-0.23,0.08,-4.56,0.42,7.45,-13.74,-74.45,-1.77,-0.73,6.28,-2.25,-3.68,Right Fall while Standing,
11:49.9,529,515,772.5,573,443,1.31,763.79,2.17,0,0,140,0,0,0,180065,1273,1,-0.26,0.09,-2.31,4.53,8.6,-15.19,-72.96,-1.94,-0.48,7.2,-2.47,-3.38,Right Fall while Standing,
11:50.0,488,512,768,573,443,1.31,763.79,2.17,20724.29,442,143,141.6,141,20050,0,0,1,-0.27,0.07,-8.08,-5.31,15.44,-15.56,-72.86,-2.67,-1.2,8.79,-3.19,-4.07,Right Fall while Standing,
11:50.1,501,511,766.5,573,443,1.31,763.79,2.17,20724.29,442,140,141.6,141,20050,19600,140,0.98,-0.28,0.05,-6.22,2.76,18.6,-16.69,-72.07,-3.24,-1.12,10.73,-3.78,-3.96,Right Fall while Standing,
11:50.2,525,512,768,573,444,1.3,766.84,2.17,20724.29,442,144,141.6,141,20050,40336,284,1,-0.31,0.09,-6.31,-3.62,14.27,-17.49,-70.81,-3.82,-1.69,12.25,-4.37,-4.46,Right Fall while Standing,
11:50.3,526,513,769.5,573,443,1.31,763.79,2.17,20724.29,442,143,141.6,141,20050,60785,427,0.96,-0.35,0.06,-1.98,2.79,16.47,-20.55,-68.15,-3.96,-1.61,13.97,-4.63,-4.27,Right Fall while Standing,
11:50.4,517,513,769.5,573,443,1.31,763.79,2.17,20724.29,442,144,141.6,141,20050,81521,571,0.93,-0.39,0.06,-1.46,3.92,16.53,-23.52,-65.24,-4.05,-1.42,15.71,-4.83,-3.97,Right Fall while Standing,
11:50.5,587,519,778.5,587,443,1.31,763.79,2.17,20724.29,442,141,141.6,141,20050,101402,712,0.92,-0.43,0.06,-2.42,2.43,12.53,-25.48,-63.27,-4.24,-1.38,17.05,-5.09,-3.85,Right Fall while Standing,
11:50.6,483,516,774,587,443,1.31,763.79,2.17,20724.29,442,144,141.6,141,20050,122138,856,0.92,-0.44,0.04,0.24,1.82,9.73,-25.99,-62.89,-4.16,-1.4,18.11,-5.03,-3.86,Right Fall while Standing,
11:50.7,493,515,772.5,587,443,1.31,763.79,2.17,20724.29,442,144,141.6,141,20050,142874,1000,0.91,-0.47,0.07,-0.44,-1.32,9.71,-27.71,-60.92,-4.15,-1.72,19.14,-5.09,-4.09,Right Fall while Standing,
11:50.8,504,514,771,587,443,1.31,763.79,2.17,20724.29,442,144,141.6,141,20050,163610,1144,0.85,-0.49,0.06,2.34,-0.31,8.05,-30.55,-58.22,-3.85,-1.96,20.05,-4.92,-4.21,Right Fall while Standing,
11:50.9,496,513,769.5,587,443,1.31,763.79,2.17,20724.29,442,144,141.6,141,20050,184346,1288,0.9,-0.51,0.07,0.21,-5.34,1.33,-30.13,-58.55,-3.78,-2.69,20.26,-4.83,-4.92,Right Fall while Standing,
11:51.0,547,515,772.5,587,442,1.31,760.76,2.16,20724.3,443,144,143.21,143,20507,0,0,0.87,-0.53,0.03,-1.71,-0.66,6.2,-31.87,-57.05,-3.89,-2.95,20.95,-5.01,-5.11,Right Fall while Standing,
11:51.1,657,522,783,657,444,1.3,766.84,2.17,20724.3,443,140,143.21,143,20507,19600,140,0.87,-0.55,0.06,-0.69,-0.08,7.88,-32.82,-55.98,-3.9,-3.16,21.82,-5.06,-5.27,Right Fall while Standing,
11:51.2,452,519,778.5,657,443,1.31,763.79,2.17,20724.3,443,144,143.21,143,20507,40336,284,0.89,-0.56,0.02,2.2,0.15,10.42,-33.04,-55.94,-3.63,-3.35,22.94,-4.81,-5.45,Right Fall while Standing,
11:51.3,454,516,774,657,443,1.31,763.79,2.17,20724.3,443,140,143.21,143,20507,59936,424,0.85,-0.58,0.05,2,-0.34,8.58,-35.04,-53.81,-3.38,-3.58,23.87,-4.64,-5.59,Right Fall while Standing,
11:51.4,452,513,769.5,657,443,1.31,763.79,2.17,20724.3,443,145,143.21,143,20507,80961,569,0.86,-0.58,0.06,-2.98,-1.8,11.94,-34.44,-54.33,-3.62,-3.96,25.16,-4.85,-5.98,Right Fall while Standing,
11:51.5,416,509,763.5,657,443,1.31,763.79,2.17,20724.3,443,141,143.21,143,20507,100842,710,0.84,-0.59,0.03,-8.63,-8.15,6.92,-35.31,-53.64,-4.43,-4.98,25.93,-5.66,-6.92,Right Fall while Standing,
11:51.6,363,503,754.5,657,441,1.32,757.73,2.16,20724.3,443,141,143.21,143,20507,120723,851,0.87,-0.6,0.01,-0.21,-0.89,3.05,-35.29,-53.7,-4.39,-5.27,26.31,-5.63,-7.2,Right Fall while Standing,
11:51.7,365,498,747,657,443,1.31,763.79,2.17,20724.3,443,142,143.21,143,20507,140887,993,0.85,-0.61,0.02,-1.33,-5.63,-0.91,-36.14,-52.84,-4.47,-6.04,26.3,-5.74,-7.91,Right Fall while Standing,
11:51.8,291,490,735,657,443,1.31,763.79,2.17,20724.3,443,142,143.21,143,20507,161051,1135,0.83,-0.62,0,-1.82,-2.7,2.34,-37.68,-51.32,-4.6,-6.51,26.61,-5.92,-8.3,Right Fall while Standing,
11:51.9,273,482,723,657,443,1.31,763.79,2.17,20724.3,443,145,143.21,143,20507,182076,1280,0.84,-0.64,0.02,2.24,6.51,2.95,-37.72,-51.25,-4.32,-6.05,26.99,-5.65,-7.86,Right Fall while Standing,
11:52.0,290,475,712.5,657,443,1.31,763.79,2.17,20724.29,442,143,142.31,142,20251,0,0,0.84,-0.65,0.04,-1.81,5.39,4.21,-38.11,-50.81,-4.44,-5.72,27.49,-5.79,-7.52,Right Fall while Standing,
11:52.1,351,471,706.5,657,443,1.31,763.79,2.17,20724.29,442,143,142.31,142,20251,20449,143,0.83,-0.65,0.06,-5.94,2.44,3.72,-38.72,-50.06,-4.97,-5.67,27.93,-6.32,-7.45,Right Fall while Standing,
11:52.2,375,468,702,657,443,1.31,763.79,2.17,20724.29,442,146,142.31,142,20251,41765,289,0.81,-0.66,0.03,-5.92,-1.73,5.65,-39.7,-49.24,-5.51,-6.04,28.58,-6.88,-7.77,Right Fall while Standing,
11:52.3,407,466,699,657,443,1.31,763.79,2.17,20724.29,442,143,142.31,142,20251,62214,432,0.82,-0.64,0.04,-5.79,-2.79,0.98,-38.44,-50.45,-6.04,-6.53,28.76,-7.33,-8.28,Right Fall while Standing,
11:52.4,463,466,699,657,443,1.31,763.79,2.17,20724.29,442,143,142.31,142,20251,82663,575,0.79,-0.65,-0.03,-4.3,-4.4,-0.24,-40.08,-48.87,-6.41,-7.17,28.81,-7.76,-8.84,Right Fall while Standing,
11:52.5,566,469,703.5,657,443,1.31,763.79,2.17,20724.29,442,144,142.31,142,20251,103399,719,0.82,-0.66,0.02,-5.84,-3.04,-3.89,-39.59,-49.38,-6.95,-7.68,28.5,-8.25,-9.34,Right Fall while Standing,
11:52.6,857,480,720,857,444,1.3,766.84,2.17,20724.29,442,149,142.31,142,20251,125600,868,0.81,-0.66,-0.02,-3.08,-3.54,-4.31,-39.66,-49.33,-7.2,-8.23,28.15,-8.5,-9.87,Right Fall while Standing,
11:52.7,599,483,724.5,857,443,1.31,763.79,2.17,20724.29,442,149,142.31,142,20251,147801,1017,0.81,-0.65,0,-1.24,-3.09,-1.78,-39.35,-49.65,-7.27,-8.74,28.05,-8.55,-10.38,Right Fall while Standing,
11:52.8,632,487,730.5,857,445,1.3,769.9,2.17,20724.29,442,144,142.31,142,20251,168537,1161,0.81,-0.65,-0.04,-2.63,-3.92,-2.08,-39.03,-49.9,-7.48,-9.34,27.92,-8.74,-10.97,Right Fall while Standing,
11:52.9,656,492,738,857,444,1.3,766.84,2.17,20724.29,442,144,142.31,142,20251,189273,1305,0.8,-0.66,-0.03,-1.5,2.15,-1.62,-40.16,-48.8,-7.57,-9.33,27.83,-8.87,-10.91,Right Fall while Standing,
11:53.0,660,496,744,857,444,1.3,766.84,2.17,9.17,443,144,144.91,144,20999,0,0,0.73,-0.67,0.06,-2.6,-1.45,-1.64,-42.88,-45.94,-7.77,-9.67,27.75,-9.18,-11.12,Right Fall while Standing,
11:53.1,640,500,750,857,443,1.31,763.79,2.17,9.17,443,146,144.91,144,20999,21316,146,0.76,-0.66,-0.01,1.43,4.35,-1.76,-41.7,-47.3,-7.57,-9.43,27.65,-8.94,-10.95,Right Fall while Standing,
11:53.2,633,503,754.5,857,443,1.31,763.79,2.17,9.17,443,144,144.91,144,20999,42052,290,0.78,-0.65,-0.02,-2.56,0.5,-3.32,-40.32,-48.66,-7.77,-9.58,27.4,-9.08,-11.15,Right Fall while Standing,
11:53.3,662,507,760.5,857,444,1.3,766.84,2.17,9.17,443,144,144.91,144,20999,62788,434,0.79,-0.65,-0.01,-3.31,1.45,-5.69,-39.73,-49.26,-8.05,-9.64,26.92,-9.31,-11.22,Right Fall while Standing,
11:53.4,642,510,765,857,443,1.31,763.79,2.17,9.17,443,144,144.91,144,20999,83524,578,0.78,-0.65,-0.02,-1.32,1.37,-3.21,-40.38,-48.6,-8.12,-9.7,26.67,-9.41,-11.26,Right Fall while Standing,
11:53.5,589,512,768,857,443,1.31,763.79,2.17,9.17,443,147,144.91,144,20999,105133,725,0.78,-0.66,0,-0.76,-1.15,-1.95,-40.73,-48.27,-8.14,-10.01,26.56,-9.45,-11.54,Right Fall while Standing,
11:53.6,605,514,771,857,443,1.31,763.79,2.17,9.17,443,148,144.91,144,20999,127037,873,0.79,-0.66,-0.01,-1.6,-2.58,-3.43,-40.32,-48.67,-8.25,-10.47,26.29,-9.53,-12,Right Fall while Standing,
11:53.7,609,516,774,857,443,1.31,763.79,2.17,9.17,443,149,144.91,144,20999,149238,1022,0.79,-0.64,0.02,2.4,5.71,-17.08,-39.25,-49.72,-7.95,-10.1,24.65,-9.2,-11.68,Right Fall while Standing,
11:53.8,593,517,775.5,857,443,1.31,763.79,2.17,9.17,443,145,144.91,144,20999,170263,1167,0.75,-0.62,0.04,-4.74,8.13,-13.91,-40.07,-48.85,-8.37,-9.48,23.34,-9.63,-11.06,Right Fall while Standing,
11:53.9,560,518,777,857,443,1.31,763.79,2.17,9.17,443,149,144.91,144,20999,192464,1316,0.85,-0.6,0.03,-5.98,1.84,-15.08,-35.52,-53.41,-8.91,-9.5,21.91,-9.97,-11.26,Right Fall while Standing,
11:54.0,552,519,778.5,857,443,1.31,763.79,2.17,20724.3,443,149,146.51,146,21465,0,0,0.86,-0.57,-0.01,-3.61,-0.62,-10.93,-34.21,-54.79,-9.21,-9.76,20.89,-10.21,-11.56,Right Fall while Standing,
11:54.1,575,520,780,857,443,1.31,763.79,2.17,20724.3,443,149,146.51,146,21465,22201,149,0.84,-0.53,-0.02,1.85,8.11,-14.89,-32.76,-56.22,-8.97,-9.14,19.47,-9.92,-11.03,Right Fall while Standing,
11:54.2,513,520,780,857,443,1.31,763.79,2.17,20724.3,443,148,146.51,146,21465,44105,297,0.91,-0.51,-0.01,-0.76,10.23,-24.22,-29.89,-59.1,-8.99,-8.32,17.13,-9.83,-10.35,Right Fall while Standing,
11:54.3,492,519,778.5,857,443,1.31,763.79,2.17,20724.3,443,148,146.51,146,21465,66009,445,0.91,-0.5,0.01,-5.44,0.66,-25.91,-29.3,-59.69,-9.48,-8.46,14.59,-10.28,-10.51,Right Fall while Standing,
11:54.4,508,519,778.5,857,443,1.31,763.79,2.17,20724.3,443,145,146.51,146,21465,87034,590,0.93,-0.46,0.02,1.02,0.98,-26.95,-27.17,-61.79,-9.32,-8.56,11.97,-10.04,-10.69,Right Fall while Standing,
11:54.5,537,519,778.5,857,444,1.3,766.84,2.17,20724.3,443,149,146.51,146,21465,109235,739,0.94,-0.43,-0.01,-4.23,1.92,-20.79,-25.19,-63.8,-9.7,-8.57,9.93,-10.32,-10.78,Right Fall while Standing,
11:54.6,517,519,778.5,857,444,1.3,766.84,2.17,20724.3,443,149,146.51,146,21465,131436,888,0.93,-0.37,0.03,-4.53,5.99,-19.89,-22.1,-66.83,-10.1,-8.17,8.02,-10.58,-10.51,Right Fall while Standing,
11:54.7,497,519,778.5,857,443,1.31,763.79,2.17,20724.3,443,149,146.51,146,21465,153637,1037,0.89,-0.33,0.03,2.93,13.63,-26.86,-20.94,-68,-9.74,-6.99,5.39,-10.19,-9.43,Right Fall while Standing,
11:54.8,491,519,778.5,857,443,1.31,763.79,2.17,20724.3,443,145,146.51,146,21465,174662,1182,0.95,-0.3,0.06,3.47,2.46,-29.32,-18.17,-70.53,-9.34,-6.95,2.51,-9.69,-9.49,Right Fall while Standing,
11:54.9,478,518,777,857,443,1.31,763.79,2.17,20724.3,443,149,146.51,146,21465,196863,1331,0.99,-0.26,0.07,3.22,3.92,-31.8,-15.4,-73.12,-8.96,-6.76,-0.59,-9.22,-9.41,Right Fall while Standing,
11:55.0,439,516,774,857,443,1.31,763.79,2.17,20724.3,443,149,148.01,148,21905,0,0,1.04,-0.18,0.04,-3.02,2.04,-29.27,-10.42,-78.39,-9.2,-6.75,-3.41,-9.25,-9.62,Right Fall while Standing,
11:55.1,423,515,772.5,857,444,1.3,766.84,2.17,20724.3,443,150,148.01,148,21905,22500,150,1.02,-0.14,0.06,-2.56,-5.24,-15.8,-8.52,-79.72,-9.4,-7.48,-4.93,-9.37,-10.37,Right Fall while Standing,
11:55.2,431,514,771,857,443,1.31,763.79,2.17,20724.3,443,150,148.01,148,21905,45000,300,1.03,-0.13,0.06,5.69,15.79,-22.24,-7.78,-80.4,-8.78,-6.1,-7.07,-8.74,-9.08,Right Fall while Standing,
11:55.3,458,513,769.5,857,444,1.3,766.84,2.17,20724.3,443,150,148.01,148,21905,67500,450,1,-0.08,0.04,3.5,6.79,-15.4,-5.03,-83.3,-8.37,-5.62,-8.54,-8.24,-8.73,Right Fall while Standing,
11:55.4,489,512,768,857,443,1.31,763.79,2.17,20724.3,443,149,148.01,148,21905,89701,599,1.02,-0.06,0.11,4.44,10.04,-9.18,-4.05,-81.49,-7.87,-4.82,-9.37,-7.72,-7.89,Right Fall while Standing,
11:55.5,583,513,769.5,857,444,1.3,766.84,2.17,20724.3,443,149,148.01,148,21905,111902,748,0.97,-0.06,0.1,-1.33,0.38,-14.63,-4.36,-81.23,-7.95,-4.98,-10.76,-7.81,-8.03,Right Fall while Standing,
11:55.6,691,516,774,857,444,1.3,766.84,2.17,20724.3,443,150,148.01,148,21905,134402,898,1.01,-0.02,0.14,3.24,3.9,-17.4,-1.84,-80.29,-7.57,-4.79,-12.42,-7.34,-7.81,Right Fall while Standing,
11:55.7,840,521,781.5,857,444,1.3,766.84,2.17,20724.3,443,150,148.01,148,21905,156902,1048,1.02,0,0.12,-3.89,-2.93,-15.91,-0.44,-81.61,-7.91,-5.29,-13.95,-7.61,-8.34,Right Fall while Standing,
11:55.8,882,526,789,882,444,1.3,766.84,2.17,20724.3,443,146,148.01,148,21905,178218,1194,0.99,0,0.09,2.1,7.37,-8.34,-0.38,-82.94,-7.64,-4.75,-14.7,-7.35,-7.88,Right Fall while Standing,
11:55.9,958,533,799.5,958,445,1.3,769.9,2.17,20724.3,443,146,148.01,148,21905,199534,1340,0.96,0.01,0.1,1.6,4.48,-4.1,-0.04,-82.16,-7.42,-4.51,-15.03,-7.13,-7.61,Right Fall while Standing,
11:56.0,990,539,808.5,990,444,1.3,766.84,2.17,20.95,443,147,148.71,148,22113,0,0,0.97,0,0.13,2.92,1.53,-6.36,-0.65,-80.71,-7.08,-4.55,-15.58,-6.82,-7.6,Right Fall while Standing,
11:56.1,991,546,819,991,444,1.3,766.84,2.17,20.95,443,148,148.71,148,22113,21904,148,0.98,0.04,0.12,1.68,0.11,-4.73,1.57,-81.04,-6.86,-4.74,-15.97,-6.52,-7.79,Right Fall while Standing,
11:56.2,988,552,828,991,444,1.3,766.84,2.17,20.95,443,147,148.71,148,22113,43513,295,0.99,0.05,0.14,0.86,0.47,-1.49,2.2,-79.86,-6.72,-4.89,-16.04,-6.36,-7.89,Right Fall while Standing,
11:56.3,982,558,837,991,444,1.3,766.84,2.17,20.95,443,147,148.71,148,22113,65122,442,0.99,0.05,0.14,-0.63,3.82,-1.04,2.17,-79.7,-6.72,-4.71,-16.07,-6.37,-7.71,Right Fall while Standing,
11:59.1,370,370,555,370,443,1.31,763.79,2.17,0,0,148,0,0,0,44404,298,1,0.02,0.13,-4.41,-2.14,0.59,0.7,-80.99,-0.76,-0.85,-0.06,-0.7,-4.06,Forward Fall while Standing,
11:59.2,361,365,547.5,370,444,1.3,766.84,2.17,0,0,149,0,0,0,66605,447,1,0.02,0.14,-2.02,5.69,-1.51,0.33,-80.51,-0.9,-0.5,-0.13,-0.85,-3.7,Forward Fall while Standing,
11:59.3,377,369,553.5,377,443,1.31,763.79,2.17,0,0,148,0,0,0,88509,595,0.97,0.01,0.16,-2.8,-3.15,-1.14,-0.2,-78.94,-1.12,-1,-0.16,-1.08,-4.11,Forward Fall while Standing,
11:59.4,403,377,565.5,403,443,1.31,763.79,2.17,0,0,147,0,0,0,110118,742,0.99,0.01,0.12,-0.83,2.92,-1.38,0.19,-81.31,-1.14,-0.91,-0.22,-1.09,-4.12,Forward Fall while Standing,
11:59.5,402,382,573,403,443,1.31,763.79,2.17,0,0,149,0,0,0,132319,891,1.01,0.02,0.15,-0.5,3.09,-1.12,0.58,-79.84,-1.14,-0.8,-0.25,-1.07,-3.96,Forward Fall while Standing,
11:59.6,406,386,579,406,443,1.31,763.79,2.17,0,0,149,0,0,0,154520,1040,1,0.02,0.14,-2.38,-1.81,-1.41,0.63,-80.49,-1.31,-1.17,-0.31,-1.24,-4.34,Forward Fall while Standing,
11:59.7,401,388,582,406,444,1.3,766.84,2.17,0,0,149,0,0,0,176721,1189,1,0.02,0.12,-1.64,0.6,0,0.56,-81.39,-1.42,-1.31,-0.23,-1.34,-4.51,Forward Fall while Standing,
11:59.8,361,385,577.5,406,444,1.3,766.84,2.17,0,0,148,0,0,0,198625,1337,0.98,0,0.14,0.13,1.49,-0.9,-0.47,-80.55,-1.35,-1.36,-0.25,-1.32,-4.52,Forward Fall while Standing,
11:59.9,397,386,579,406,443,1.31,763.79,2.17,9.17,443,150,148.7,148,22111,0,0,0.99,0.01,0.16,-1.35,1.47,-1.27,0.12,-79.39,-1.43,-1.41,-0.29,-1.37,-4.53,Forward Fall while Standing,
12:00.0,413,389,583.5,413,443,1.31,763.79,2.17,9.17,443,147,148.7,148,22111,21609,147,1,0.01,0.13,-3.33,-0.65,-0.92,0.2,-80.88,-1.7,-1.67,-0.31,-1.63,-4.84,Forward Fall while Standing,
12:00.1,428,392,588,428,443,1.31,763.79,2.17,9.17,443,150,148.7,148,22111,44109,297,0.99,0.01,0.13,-3.34,-1.01,-0.7,-0.12,-80.92,-1.98,-1.97,-0.3,-1.9,-5.12,Forward Fall while Standing,
12:00.2,429,395,592.5,429,444,1.3,766.84,2.17,9.17,443,150,148.7,148,22111,66609,447,1,0.02,0.12,0.21,3.56,-2.43,0.43,-81.5,-1.9,-1.81,-0.46,-1.81,-5,Forward Fall while Standing,
12:00.3,419,397,595.5,429,443,1.31,763.79,2.17,9.17,443,149,148.7,148,22111,88810,596,1,0.01,0.13,-2.5,0.2,0.37,0.2,-80.92,-2.09,-1.99,-0.35,-2,-5.14,Forward Fall while Standing,
12:00.4,383,396,594,429,443,1.31,763.79,2.17,9.17,443,150,148.7,148,22111,111310,746,0.98,0,0.14,-1.42,-0.02,0.3,-0.44,-80.55,-2.18,-2.19,-0.24,-2.11,-5.32,Forward Fall while Standing,
12:00.5,425,398,597,429,444,1.3,766.84,2.17,9.17,443,151,148.7,148,22111,134111,897,0.98,0.01,0.13,1.4,2.47,-0.11,-0.04,-80.92,-1.98,-2.14,-0.17,-1.9,-5.29,Forward Fall while Standing,
12:00.6,453,401,601.5,453,443,1.31,763.79,2.17,9.17,443,148,148.7,148,22111,156015,1045,1,0.01,0.15,-2.14,0.15,-1.48,0.12,-79.82,-2.13,-2.32,-0.24,-2.04,-5.42,Forward Fall while Standing,
12:00.7,464,405,607.5,464,444,1.3,766.84,2.17,9.17,443,148,148.7,148,22111,177919,1193,0.99,0.02,0.13,-2.98,-2.92,-1.81,0.44,-80.81,-2.37,-2.81,-0.34,-2.26,-5.93,Forward Fall while Standing,
12:00.8,463,408,612,464,443,1.31,763.79,2.17,9.17,443,148,148.7,148,22111,199823,1341,0.99,0.01,0.12,-2.4,4.1,-1.39,0.13,-81.43,-2.56,-2.6,-0.4,-2.45,-5.75,Forward Fall while Standing,
12:00.9,447,410,615,464,444,1.3,766.84,2.17,20724.3,443,148,148.9,148,22171,0,0,1.01,0.01,0.14,-3.89,1.21,-2.88,0.22,-80.5,-2.88,-2.68,-0.61,-2.76,-5.79,Forward Fall while Standing,
12:01.0,408,410,615,464,443,1.31,763.79,2.17,20724.3,443,148,148.9,148,22171,21904,148,1.01,0.02,0.12,-2.27,-1.53,-1.56,0.57,-81.76,-3.05,-3.03,-0.68,-2.91,-6.18,Forward Fall while Standing,
12:01.1,437,411,616.5,464,444,1.3,766.84,2.17,20724.3,443,148,148.9,148,22171,43808,296,0.99,0.01,0.11,-0.49,2.14,0.18,-0.09,-82.01,-3.05,-3.01,-0.58,-2.93,-6.17,Forward Fall while Standing,
12:01.2,460,413,619.5,464,444,1.3,766.84,2.17,20724.3,443,148,148.9,148,22171,65712,444,1,0.01,0.13,-3.11,3.1,-0.53,0.18,-80.88,-3.3,-2.9,-0.56,-3.16,-6.02,Forward Fall while Standing,
12:01.3,465,416,624,465,444,1.3,766.84,2.17,20724.3,443,148,148.9,148,22171,87616,592,0.99,0.01,0.12,-3.11,-2.21,0.02,0.26,-81.61,-3.55,-3.32,-0.48,-3.4,-6.45,Forward Fall while Standing,
12:01.4,454,417,625.5,465,444,1.3,766.84,2.17,20724.3,443,148,148.9,148,22171,109520,740,1.01,0.02,0.1,-3.18,-3.66,-3.8,0.32,-82.56,-3.82,-3.89,-0.78,-3.65,-7.04,Forward Fall while Standing,
12:01.5,446,418,627,465,443,1.31,763.79,2.17,20724.3,443,148,148.9,148,22171,131424,888,1,0.01,0.1,-4.05,-3.52,-2.34,0.27,-82.7,-4.16,-4.45,-0.94,-3.99,-7.58,Forward Fall while Standing,
12:01.6,392,417,625.5,465,443,1.31,763.79,2.17,20724.3,443,151,148.9,148,22171,154225,1039,1.01,0.02,0.09,-3.74,-4.07,-2.53,0.31,-83.05,-4.48,-5.05,-1.11,-4.29,-8.17,Forward Fall while Standing,
12:01.7,439,418,627,465,443,1.31,763.79,2.17,20724.3,443,152,148.9,148,22171,177329,1191,1,0.01,0.09,-12.43,-15.62,-3.05,0.01,-83.16,-5.68,-6.83,-1.34,-5.45,-9.88,Forward Fall while Standing,
12:01.8,460,420,630,465,443,1.31,763.79,2.17,20724.3,443,153,148.9,148,22171,200738,1344,1,0,0.06,-16.35,-43.98,-6.36,-0.3,-85.24,-7.26,-11.42,-1.9,-6.98,-14.38,Forward Fall while Standing,
12:01.9,472,421,631.5,472,443,1.31,763.79,2.17,20724.3,443,147,149.11,149,22233,0,0,1.03,0.03,-0.03,-13.1,-23.4,-11.87,1.18,-86.04,-8.5,-13.94,-2.99,-8.11,-16.82,Forward Fall while Standing,
12:02.0,450,422,633,472,443,1.31,763.79,2.17,20724.3,443,148,149.11,149,22233,21904,148,1.08,0.06,-0.02,5.02,14.57,-5.01,2.83,-84.77,-7.93,-12.66,-3.42,-7.5,-15.54,Forward Fall while Standing,
12:02.1,486,424,636,486,443,1.31,763.79,2.17,20724.3,443,150,149.11,149,22233,44404,298,1.02,0.04,-0.06,-11.4,-16.78,-0.09,1.56,-84.62,-9.01,-14.53,-3.35,-8.59,-17.34,Forward Fall while Standing,
12:02.2,785,436,654,785,444,1.3,766.84,2.17,20724.3,443,148,149.11,149,22233,66308,446,1.04,0.05,-0.04,-6.18,-1.84,-2.25,2.12,-84.92,-9.58,-14.92,-3.5,-9.11,-17.72,Forward Fall while Standing,
12:02.3,442,436,654,785,443,1.31,763.79,2.17,20724.3,443,149,149.11,149,22233,88509,595,1.04,0.06,-0.08,-14.93,-19.94,3.53,2.91,-82.63,-11.02,-17.12,-3.07,-10.46,-19.74,Forward Fall while Standing,
12:02.4,472,437,655.5,785,444,1.3,766.84,2.17,20724.3,443,145,149.11,149,22233,109534,740,1,0.05,-0.09,-18.12,-19.25,2.69,1.99,-82.49,-12.79,-19.26,-2.72,-12.2,-21.79,Forward Fall while Standing,
12:02.5,498,439,658.5,785,443,1.31,763.79,2.17,20724.3,443,147,149.11,149,22233,131143,887,1.02,0.05,-0.17,-16.16,-30.98,-2.63,2.05,-78.84,-14.37,-22.59,-2.9,-13.71,-24.84,Forward Fall while Standing,
12:02.6,514,441,661.5,785,443,1.31,763.79,2.17,20724.3,443,150,149.11,149,22233,153643,1037,1.01,0.03,-0.22,-20.66,-46.65,-5.75,1.35,-75.82,-16.4,-27.51,-3.4,-15.69,-29.44,Forward Fall while Standing,
12:02.7,546,444,666,785,443,1.31,763.79,2.17,20724.3,443,149,149.11,149,22233,175844,1186,0.96,0.03,-0.27,-10.41,-22.43,-9.5,0.98,-72.48,-17.39,-29.97,-4.28,-16.66,-31.67,Forward Fall while Standing,
12:02.8,486,445,667.5,785,444,1.3,766.84,2.17,20724.3,443,149,149.11,149,22233,198045,1335,0.98,0.06,-0.29,-8.76,-23.62,-5.82,2.91,-71.38,-18.23,-32.59,-4.8,-17.38,-34.14,Forward Fall while Standing,
12:02.9,505,446,669,785,443,1.31,763.79,2.17,20724.3,443,158,149.33,149,22299,0,0,1,0.06,-0.42,-15.66,-35.11,-9.96,2.64,-65.26,-19.72,-36.26,-5.7,-18.83,-37.42,Forward Fall while Standing,
12:03.0,529,448,672,785,444,1.3,766.84,2.17,20724.3,443,152,149.33,149,22299,23104,152,0.98,0.09,-0.38,-20.35,-35.64,-3.34,4.48,-66.81,-21.72,-40.06,-5.96,-20.67,-41.13,Forward Fall while Standing,
12:03.1,554,451,676.5,785,443,1.31,763.79,2.17,20724.3,443,156,149.33,149,22299,47440,308,0.94,0.12,-0.38,-11.87,-26.16,-5.11,6.05,-65.45,-22.88,-42.94,-6.4,-21.72,-43.84,Forward Fall while Standing,
12:03.2,548,453,679.5,785,443,1.31,763.79,2.17,20724.3,443,156,149.33,149,22299,71776,464,1.08,0.14,-0.53,-9.81,-21.73,-5.98,6.1,-61.38,-23.8,-45.31,-6.92,-22.6,-45.95,Forward Fall while Standing,
12:03.3,542,455,682.5,785,444,1.3,766.84,2.17,20724.3,443,151,149.33,149,22299,94577,615,0.9,0.13,-0.52,-3.86,-23.99,-5.82,6.63,-57.4,-24.14,-47.96,-7.43,-22.91,-48.34,Forward Fall while Standing,
12:03.4,515,456,684,785,443,1.31,763.79,2.17,20724.3,443,151,149.33,149,22299,117378,766,0.91,0.11,-0.56,-2.12,-17.85,-0.82,5.14,-56.39,-24.29,-49.94,-7.44,-23.12,-50.2,Forward Fall while Standing,
12:03.5,507,458,687,785,443,1.31,763.79,2.17,20724.3,443,151,149.33,149,22299,140179,917,0.88,0.1,-0.61,2.56,-25.02,-0.58,4.57,-53.25,-23.98,-52.67,-7.42,-22.84,-52.7,Forward Fall while Standing,
12:03.6,518,459,688.5,785,443,1.31,763.79,2.17,20724.3,443,153,149.33,149,22299,163588,1070,0.87,0.14,-0.62,-1.12,-23.35,-2.29,6.81,-52.06,-24.04,-55.26,-7.57,-22.8,-55.13,Forward Fall while Standing,
12:03.7,568,461,691.5,785,443,1.31,763.79,2.17,20724.3,443,169,149.33,149,22299,192149,1239,0.8,0.11,-0.64,-1.63,-19.27,-4.47,5.76,-49.47,-24.14,-57.38,-7.94,-22.95,-57.07,Forward Fall while Standing,
12:03.8,695,466,699,785,444,1.3,766.84,2.17,20724.3,443,197,149.33,149,22299,165422,1436,0.8,0.13,-0.64,-2.37,-15.24,-1.53,6.88,-49.32,-24.32,-59.13,-8.01,-23.08,-58.73,Forward Fall while Standing,
12:03.9,617,469,703.5,785,444,1.3,766.84,2.17,20724.3,443,197,117.77,163,13868,0,0,0.81,0.13,-0.64,-0.11,-11.72,-7.5,6.51,-49.63,-24.28,-60.51,-8.69,-23.05,-60.08,Forward Fall while Standing,
12:04.0,510,470,705,785,443,1.31,763.79,2.17,20724.3,443,195,117.77,163,13868,4294939785,195,0.81,0.14,-0.74,3.2,-0.43,-5.3,6.91,-45.62,-23.9,-60.76,-9.14,-22.67,-60.15,Forward Fall while Standing,
12:04.1,464,470,705,785,444,1.3,766.84,2.17,20724.3,443,202,117.77,163,13868,4294915053,397,0.8,0.16,-0.71,5.16,1.16,-5.96,7.77,-46.17,-23.32,-60.84,-9.67,-22.08,-60.26,Forward Fall while Standing,
12:04.2,487,470,705,785,443,1.31,763.79,2.17,20724.3,443,207,117.77,163,13868,4294892366,604,0.81,0.18,-0.69,-4.08,-2.96,-6.93,8.73,-47.06,-23.68,-61.35,-10.29,-22.38,-60.78,Forward Fall while Standing,
12:04.3,438,470,705,785,443,1.31,763.79,2.17,20724.3,443,203,117.77,163,13868,4294868039,807,0.78,0.14,-0.68,-5.22,0.03,-2.02,7,-46.65,-24.15,-61.55,-10.42,-22.91,-60.95,Forward Fall while Standing,
12:04.4,420,469,703.5,785,443,1.31,763.79,2.17,20724.3,443,204,117.77,163,13868,4294844119,1011,0.78,0.16,-0.69,-4.52,-5,-1.2,7.92,-46.57,-24.56,-62.26,-10.46,-23.26,-61.63,Forward Fall while Standing,
12:04.5,424,468,702,785,443,1.31,763.79,2.17,20724.3,443,207,117.77,163,13868,4294821432,1218,0.77,0.16,-0.76,0.84,2.18,-7.06,7.88,-43.25,-24.41,-62.24,-11.1,-23.12,-61.48,Forward Fall while Standing,
12:04.6,475,468,702,785,444,1.3,766.84,2.17,20724.3,443,205,117.77,163,13868,4294797921,1423,0.78,0.18,-0.71,-2.05,-3.65,-2.98,9.09,-45.11,-24.56,-62.81,-11.32,-23.22,-62.1,Forward Fall while Standing,
12:04.7,622,471,706.5,785,444,1.3,766.84,2.17,20724.3,443,198,117.77,163,13868,4294771589,1621,0.77,0.17,-0.74,-5.33,-3.38,-4.08,8.59,-44,-25.05,-63.36,-11.66,-23.7,-62.59,Forward Fall while Standing,
12:04.8,431,470,705,785,443,1.31,763.79,2.17,20724.3,443,195,117.77,163,13868,4294744078,1816,0.77,0.17,-0.74,-3.68,1.07,-3.73,8.33,-43.6,-25.37,-63.46,-11.95,-24.02,-62.66,Forward Fall while Standing,
12:04.9,462,470,705,785,443,1.31,763.79,2.17,20724.3,443,179,20723.84,199,429477600,0,0,0.77,0.18,-0.73,-2.61,3.82,-5.75,8.87,-43.91,-25.57,-63.27,-12.46,-24.2,-62.5,Forward Fall while Standing,
12:05.1,336,468,702,785,443,1.31,763.79,2.17,20724.3,443,154,20723.84,199,429477600,23716,154,0.76,0.17,-0.72,-3.92,1.29,-1.47,8.71,-44.16,-25.91,-63.35,-12.52,-24.53,-62.58,Forward Fall while Standing,
12:05.1,369,466,699,785,443,1.31,763.79,2.17,20724.3,443,148,20723.84,199,429477600,45620,302,0.78,0.17,-0.69,4.76,14.31,-3.79,8.42,-46.17,-25.38,-62.1,-12.83,-24.02,-61.46,Forward Fall while Standing,
12:05.3,444,466,699,785,442,1.31,760.76,2.16,20724.3,443,145,20723.84,199,429477600,66645,447,0.8,0.16,-0.67,1.09,14.09,-1.12,8.42,-47.63,-25.21,-60.86,-12.86,-23.86,-60.33,Forward Fall while Standing,
12:05.4,545,467,700.5,785,443,1.31,763.79,2.17,20724.3,443,147,20723.84,199,429477600,88254,594,0.8,0.17,-0.68,-1.7,8.01,-0.05,8.69,-47.12,-25.32,-60.25,-12.79,-23.96,-59.72,Forward Fall while Standing,
12:05.5,768,471,706.5,785,443,1.31,763.79,2.17,20724.3,443,148,20723.84,199,429477600,110158,742,0.81,0.16,-0.67,-1.89,8.99,0.23,8.24,-48.07,-25.46,-59.54,-12.68,-24.11,-59.08,Forward Fall while Standing,
12:05.6,562,473,709.5,785,443,1.31,763.79,2.17,20724.3,443,149,20723.84,199,429477600,132359,891,0.82,0.16,-0.64,-6.22,7.53,1.38,8.24,-49.27,-26.04,-58.97,-12.46,-24.67,-58.59,Forward Fall while Standing,
12:05.7,607,475,712.5,785,443,1.31,763.79,2.17,20724.3,443,150,20723.84,199,429477600,154859,1041,0.82,0.16,-0.64,0.15,17.05,-2.02,8.25,-49.59,-25.97,-57.45,-12.58,-24.6,-57.14,Forward Fall while Standing,
12:05.8,609,477,715.5,785,444,1.3,766.84,2.17,20724.3,443,150,20723.84,199,429477600,177359,1191,0.84,0.17,-0.61,-2.49,20.36,0.11,8.51,-51.29,-26.17,-55.56,-12.49,-24.78,-55.39,Forward Fall while Standing,
12:05.9,617,479,718.5,785,444,1.3,766.84,2.17,20724.3,443,154,20723.84,199,429477600,201075,1345,0.87,0.16,-0.58,1.98,22,-2.02,8.28,-53.75,-25.91,-53.54,-12.62,-24.54,-53.55,Forward Fall while Standing,
12:06.0,588,481,721.5,785,444,1.3,766.84,2.17,20724.3,443,151,149.62,149,22386,0,0,0.87,0.15,-0.58,8.53,33.69,-4.3,7.35,-53.97,-25,-50.37,-12.97,-23.71,-50.52,Forward Fall while Standing,
12:06.1,614,482,723,785,444,1.3,766.84,2.17,20724.3,443,156,149.62,149,22386,24336,156,0.91,0.15,-0.53,4.99,31.54,-1.92,7.32,-57.27,-24.44,-47.39,-13.08,-23.17,-47.79,Forward Fall while Standing,
12:06.2,566,484,726,785,443,1.31,763.79,2.17,20724.3,443,152,149.62,149,22386,47440,308,0.94,0.15,-0.45,6.36,31.93,0.57,7.35,-61.63,-23.75,-44.4,-12.94,-22.5,-45.09,Forward Fall while Standing,
12:06.3,525,484,726,785,443,1.31,763.79,2.17,20724.3,443,158,149.62,149,22386,72404,466,0.96,0.15,-0.42,2.31,28.59,-0.04,7.66,-63.31,-23.46,-41.74,-12.87,-22.21,-42.6,Forward Fall while Standing,
12:06.4,610,486,729,785,444,1.3,766.84,2.17,20724.3,443,185,149.62,149,22386,41093,651,0.95,0.13,-0.38,4.34,36.49,-4.96,6.7,-65.63,-22.96,-38.22,-13.29,-21.77,-39.32,Forward Fall while Standing,
12:06.5,616,488,732,785,444,1.3,766.84,2.17,20724.3,443,185,149.62,149,22386,9782,836,0.96,0.13,-0.34,7.27,27.95,-4.3,6.84,-67.51,-22.18,-35.62,-13.65,-21.02,-36.9,Forward Fall while Standing,
12:06.6,528,488,732,785,444,1.3,766.84,2.17,20724.3,443,170,149.62,149,22386,38682,1006,0.98,0.12,-0.26,5.93,22.93,-2.61,6.43,-72.31,-21.53,-33.53,-13.83,-20.41,-35.08,Forward Fall while Standing,
12:06.7,458,488,732,785,443,1.31,763.79,2.17,20724.3,443,160,149.62,149,22386,64282,1166,1.02,0.14,-0.23,10.37,37.48,-0.81,7.09,-73.57,-20.41,-29.91,-13.83,-19.31,-31.66,Forward Fall while Standing,
12:06.8,430,487,730.5,785,443,1.31,763.79,2.17,20724.3,443,157,149.62,149,22386,88931,1323,0.99,0.11,-0.16,12.55,32.8,-1.44,5.63,-77.24,-19.1,-26.83,-13.89,-18.11,-28.85,Forward Fall while Standing,
12:06.9,423,486,729,785,444,1.3,766.84,2.17,20724.3,443,153,149.62,149,22386,112340,1476,1.01,0.12,-0.11,10.68,34.78,-5.56,6.36,-78.93,-17.96,-23.49,-14.38,-16.98,-25.71,Forward Fall while Standing,
12:07.0,382,485,727.5,785,443,1.31,763.79,2.17,9.17,443,158,117.18,163,13729,0,0,1.04,0.15,-0.12,8.35,34.15,-5.87,7.38,-78.25,-17.07,-20.31,-14.88,-16.1,-22.62,Forward Fall while Standing,
12:07.1,457,484,726,785,443,1.31,763.79,2.17,9.17,443,157,117.18,163,13729,24649,157,1.01,0.14,-0.03,4.05,25.13,-4.58,7.1,-80.52,-16.62,-18.02,-15.26,-15.67,-20.52,Forward Fall while Standing,
12:07.2,494,485,727.5,785,443,1.31,763.79,2.17,9.17,443,155,117.18,163,13729,48674,312,1.01,0.14,-0.01,-1.18,11.44,-3.21,7.04,-80.76,-16.68,-17.06,-15.5,-15.73,-19.61,Forward Fall while Standing,
12:07.3,497,485,727.5,785,443,1.31,763.79,2.17,9.17,443,155,117.18,163,13729,72699,467,1.02,0.16,0.03,-4.4,5.94,-1.27,8.47,-79.19,-17.06,-16.67,-15.55,-16.04,-19.17,Forward Fall while Standing,
12:07.4,516,485,727.5,785,444,1.3,766.84,2.17,9.17,443,160,117.18,163,13729,98299,627,1,0.16,0.04,-5.09,14.35,-2.37,8.66,-78.85,-17.51,-15.45,-15.71,-16.47,-17.98,Forward Fall while Standing,
12:07.5,510,485,727.5,785,443,1.31,763.79,2.17,9.17,443,156,117.18,163,13729,122635,783,0.95,0.14,0.04,-1.6,19.13,-5.11,7.62,-79.82,-17.62,-13.72,-16.14,-16.61,-16.36,Forward Fall while Standing,
12:07.6,488,485,727.5,785,444,1.3,766.84,2.17,9.17,443,156,117.18,163,13729,146971,939,0.95,0.12,0.08,0.24,17.7,-7.02,6.87,-79.6,-17.54,-12.15,-16.77,-16.56,-14.84,Forward Fall while Standing,
12:07.7,510,486,729,785,443,1.31,763.79,2.17,9.17,443,157,117.18,163,13729,171620,1096,0.93,0.14,0.16,-0.05,31.15,-8.92,7.79,-75.49,-17.49,-9.23,-17.58,-16.47,-11.88,Forward Fall while Standing,
12:07.8,807,489,733.5,807,444,1.3,766.84,2.17,9.17,443,157,117.18,163,13729,196269,1253,0.94,0.16,0.19,-2.37,33.5,-3.1,8.71,-73.73,-17.67,-6.08,-17.81,-16.61,-8.79,Forward Fall while Standing,
12:07.9,483,489,733.5,807,443,1.31,763.79,2.17,9.17,443,157,117.18,163,13729,220918,1410,0.94,0.2,0.35,2.42,56.36,-1.73,10.5,-65.48,-17.37,-0.64,-17.91,-16.25,-3.24,Forward Fall while Standing,
12:08.0,496,489,733.5,807,443,1.31,763.79,2.17,20724.3,443,157,156.7,156,24555,0,0,0,0,0,-0.01,-0.01,-0.01,-35.84,36.84,-17.31,-0.84,-17.83,-18.06,0.67,Forward Fall while Standing,
12:08.1,508,490,735,807,444,1.3,766.84,2.17,20724.3,443,157,156.7,156,24555,24649,157,0,0,0,-0.01,-0.01,-0.01,-35.84,36.84,-17.26,-1.05,-17.75,-18,0.47,Forward Fall while Standing,
12:08.2,532,490,735,807,443,1.31,763.79,2.17,20724.3,443,162,156.7,156,24555,50893,319,0,0,0,-0.01,-0.01,-0.01,-35.84,36.84,-17.2,-1.25,-17.67,-17.95,0.28,Forward Fall while Standing,
12:16.8,496,496,744,496,442,1.31,760.76,2.16,0,0,148,0,0,0,44404,298,1.01,-0.02,0.06,-2.31,-4.26,-1.36,-1.87,-84.62,-0.27,-0.17,-0.14,-0.34,-3.55,Sitting,
12:16.9,526,511,766.5,526,442,1.31,760.76,2.16,0,0,148,0,0,0,66308,446,1.02,-0.04,0.03,-2.02,-3.67,-1.18,-2.83,-85.5,-0.42,-0.72,-0.18,-0.51,-4.12,Sitting,
12:17.0,492,504,756,526,443,1.31,763.79,2.17,0,0,148,0,0,0,88212,594,1,-0.02,0.03,-2.25,0.55,-1.4,-1.9,-86.33,-0.58,-0.87,-0.23,-0.63,-4.28,Sitting,
12:17.1,486,500,750,526,442,1.31,760.76,2.16,0,0,146,0,0,0,109528,740,1.02,-0.02,0.02,-2.53,1.47,-0.86,-1.94,-86.66,-0.77,-0.92,-0.24,-0.82,-4.35,Sitting,
12:17.2,466,493,739.5,526,442,1.31,760.76,2.16,0,0,148,0,0,0,131432,888,1.02,-0.03,0.03,-2.82,-0.28,-0.99,-2.34,-85.82,-0.99,-1.14,-0.26,-1.05,-4.53,Sitting,
12:17.3,445,485,727.5,526,441,1.32,757.73,2.16,0,0,148,0,0,0,153336,1036,1.01,-0.03,0.03,-1.63,-0.27,-0.69,-2,-86.11,-1.1,-1.36,-0.25,-1.14,-4.75,Sitting,
12:17.4,467,482,723,526,442,1.31,760.76,2.16,0,0,148,0,0,0,175240,1184,1.02,-0.02,0.03,-1.76,-3.26,-1.21,-1.84,-86.39,-1.22,-1.88,-0.29,-1.24,-5.26,Sitting,
12:17.4,489,483,724.5,526,442,1.31,760.76,2.16,0,0,147,0,0,0,196849,1331,0.99,-0.04,0.05,-1.18,-5.11,-0.99,-2.7,-84.78,-1.28,-2.58,-0.31,-1.33,-5.87,Sitting,
12:17.5,469,481,721.5,526,442,1.31,760.76,2.16,20724.28,442,145,147.6,147,21786,0,0,1.04,-0.02,-0.05,-2.5,-7.92,-1,-1.79,-85.51,-1.47,-3.55,-0.33,-1.48,-6.83,Sitting,
12:17.6,436,477,715.5,526,441,1.32,757.73,2.16,20724.28,442,145,147.6,147,21786,21025,145,1.02,-0.04,-0.02,-2.06,3.06,-0.95,-2.6,-86.21,-1.62,-3.45,-0.35,-1.66,-6.76,Sitting,
12:17.7,466,476,714,526,442,1.31,760.76,2.16,20724.28,442,145,147.6,147,21786,42050,290,1.01,-0.04,0.01,-1.63,5.8,-0.49,-2.6,-86.37,-1.73,-3.06,-0.32,-1.76,-6.4,Sitting,
12:17.8,455,474,711,526,442,1.31,760.76,2.16,20724.28,442,149,147.6,147,21786,64251,439,1.01,-0.03,0.02,-1.81,-1.77,0.15,-2.38,-86.42,-1.85,-3.44,-0.23,-1.87,-6.76,Sitting,
12:17.9,458,473,709.5,526,442,1.31,760.76,2.16,20724.28,442,145,147.6,147,21786,85276,584,1.02,-0.04,-0.06,0.1,-6.5,-2.18,-2.83,-84.15,-1.79,-4.28,-0.36,-1.83,-7.48,Sitting,
12:18.0,488,474,711,526,441,1.32,757.73,2.16,20724.28,442,145,147.6,147,21786,106301,729,1.15,-0.02,-0.16,-1.79,-4.65,-2.33,-1.79,-80.5,-1.91,-4.95,-0.52,-1.9,-7.97,Sitting,
12:18.1,492,475,712.5,526,443,1.31,763.79,2.17,20724.28,442,145,147.6,147,21786,127326,874,1.07,-0.02,-0.05,-3.4,14.95,-2.98,-1.65,-85.72,-2.2,-3.64,-0.74,-2.17,-6.93,Sitting,
12:18.2,492,476,714,526,442,1.31,760.76,2.16,20724.28,442,146,147.6,147,21786,148642,1020,1.04,0.04,-0.01,14.93,41.67,-7.74,1.38,-86.38,-0.65,0.32,-1.44,-0.57,-3.15,Sitting,
12:18.3,490,477,715.5,526,443,1.31,763.79,2.17,20724.28,442,145,147.6,147,21786,169667,1165,0.96,0.01,0.05,7.73,31.39,-13,-0.1,-85.6,0.19,3.29,-2.67,0.18,-0.26,Sitting,
12:18.4,517,479,718.5,526,442,1.31,760.76,2.16,20724.28,442,146,147.6,147,21786,190983,1311,0.99,0.06,0.14,-4.05,-1.64,-4.37,2.63,-79.72,-0.15,2.93,-3.02,-0.04,-0.38,Sitting,
12:18.5,435,477,715.5,526,442,1.31,760.76,2.16,20724.27,442,145,145.6,145,21199,0,0,0.99,0.01,0.16,-11.48,2.94,3.16,-0.02,-79.36,-1.22,3.02,-2.64,-1.18,-0.27,Sitting,
12:18.6,423,474,711,526,442,1.31,760.76,2.16,20724.27,442,149,145.6,145,21199,22201,149,0.97,-0.01,0.13,-19.73,-1.77,3.22,-1.32,-80.52,-3.16,2.64,-2.23,-3.09,-0.69,Sitting,
12:18.7,398,470,705,526,442,1.31,760.76,2.16,20724.27,442,145,145.6,145,21199,43226,294,0.98,-0.06,0.1,-0.56,11.47,-8.63,-3.97,-81.88,-3.16,3.58,-3.01,-3.19,0.16,Sitting,
12:18.8,387,466,699,526,442,1.31,760.76,2.16,20724.27,442,149,145.6,145,21199,65427,443,1.01,-0.04,0.11,8.79,7.5,-8.24,-2.74,-81.62,-2.23,4.13,-3.75,-2.25,0.7,Sitting,
12:18.9,380,463,694.5,526,443,1.31,763.79,2.17,20724.27,442,145,145.6,145,21199,86452,588,1.09,0.02,0.12,1.05,-7.66,-7.25,0.26,-82.29,-2.06,3.16,-4.4,-1.97,-0.25,Sitting,
12:19.0,375,459,688.5,526,442,1.31,760.76,2.16,20724.27,442,145,145.6,145,21199,107477,733,1.06,0.02,0.07,5.61,-16.98,5.5,0.75,-84.32,-1.45,1.28,-3.77,-1.37,-2.14,Sitting,
12:19.1,393,456,684,526,442,1.31,760.76,2.16,20724.27,442,145,145.6,145,21199,128502,878,1.01,0.04,0.05,8.47,-6.43,7.89,1.57,-84.95,-0.56,0.45,-2.91,-0.47,-2.97,Sitting,
12:19.2,432,455,682.5,526,443,1.31,763.79,2.17,20724.27,442,145,145.6,145,21199,149527,1023,1.05,0.04,0.08,10.6,-1.44,-0.38,1.55,-83.58,0.57,0.1,-2.87,0.61,-3.24,Sitting,
12:19.3,497,457,685.5,526,443,1.31,763.79,2.17,20724.27,442,145,145.6,145,21199,170552,1168,1.03,0.01,0.05,3.15,-11.94,5.65,-0.1,-85.33,0.94,-1.28,-2.24,0.89,-4.64,Sitting,
12:19.4,490,458,687,526,442,1.31,760.76,2.16,20724.27,442,147,145.6,145,21199,192161,1315,1.01,0,0.07,7.75,6.1,1.19,-0.72,-84.69,1.76,-0.87,-2.04,1.66,-4.22,Sitting,
12:19.5,530,461,691.5,530,443,1.31,763.79,2.17,20724.28,442,145,146.01,146,21317,0,0,1.04,0,0.08,2.55,-9.79,2.74,-0.35,-84.01,2.07,-2.04,-1.69,1.97,-5.32,Sitting,
12:19.6,550,464,696,550,445,1.3,769.9,2.17,20724.28,442,149,146.01,146,21317,22201,149,1.01,-0.01,0.05,2.04,3.41,0.32,-1.38,-85.33,2.32,-1.9,-1.58,2.17,-5.24,Sitting,
12:19.7,625,469,703.5,625,444,1.3,766.84,2.17,20724.28,442,145,146.01,146,21317,43226,294,1.02,0.01,0.06,0.15,9.86,-2.92,-0.06,-85.09,2.39,-1.12,-1.79,2.29,-4.48,Sitting,
12:19.8,646,474,711,646,444,1.3,766.84,2.17,20724.28,442,146,146.01,146,21317,64542,440,1.03,-0.02,0.06,-4.66,2.33,-0.8,-1.64,-85.16,1.98,-1.09,-1.79,1.84,-4.45,Sitting,
12:19.9,583,478,717,646,444,1.3,766.84,2.17,20724.28,442,145,146.01,146,21317,85567,585,1.03,-0.02,0.03,0.15,3.34,-1.93,-1.48,-86.45,2.05,-0.96,-1.9,1.91,-4.38,Sitting,
12:20.0,609,481,721.5,646,445,1.3,769.9,2.17,20724.28,442,145,146.01,146,21317,106592,730,0.99,-0.02,0.01,-3.24,-2.07,-0.83,-1.72,-87.1,1.78,-1.36,-1.91,1.64,-4.79,Sitting,
12:20.1,614,485,727.5,646,444,1.3,766.84,2.17,20724.28,442,145,146.01,146,21317,127617,875,1.01,-0.01,0.02,2.92,0.86,-0.41,-1.13,-86.93,2.13,-1.48,-1.87,2,-4.89,Sitting,
12:20.2,611,489,733.5,646,444,1.3,766.84,2.17,20724.28,442,145,146.01,146,21317,148642,1020,1.07,0.03,0.01,-2.97,-6.31,-2.03,1.25,-86.46,1.89,-2.31,-2,1.87,-5.67,Sitting,
12:20.3,585,491,736.5,646,443,1.31,763.79,2.17,20724.28,442,145,146.01,146,21317,169667,1165,1.03,0.01,0,-0.49,-2.08,-1.34,0.04,-87.76,1.9,-2.71,-2.05,1.83,-6.11,Sitting,
12:20.4,578,493,739.5,646,443,1.31,763.79,2.17,20724.28,442,148,146.01,146,21317,191571,1313,1.02,0.02,0.01,-4.9,-4.6,-2.24,0.28,-87.26,1.46,-3.38,-2.2,1.41,-6.73,Sitting,
12:20.5,566,495,742.5,646,444,1.3,766.84,2.17,22.98,444,145,145.8,145,21258,0,0,1.03,0.01,0.03,-2.48,3.87,-0.99,-0.05,-86.83,1.27,-3.2,-2.22,1.22,-6.54,Sitting,
12:20.6,535,496,744,646,444,1.3,766.84,2.17,22.98,444,146,145.8,145,21258,21316,146,1.02,0,0.01,-8.05,5.73,-2.55,-0.39,-87.9,0.53,-2.83,-2.39,0.5,-6.23,Sitting,
12:20.7,528,497,745.5,646,444,1.3,766.84,2.17,22.98,444,145,145.8,145,21258,42341,291,1.03,0.01,-0.01,-7.13,1.34,-1.01,0.14,-87.63,-0.12,-2.89,-2.41,-0.11,-6.28,Sitting,
12:20.8,534,498,747,646,443,1.31,763.79,2.17,22.98,444,145,145.8,145,21258,63366,436,1.02,0,0.03,-0.2,7.99,-7.03,-0.47,-86.91,-0.09,-2.3,-3.03,-0.1,-5.68,Sitting,
12:20.9,573,500,750,646,443,1.31,763.79,2.17,22.98,444,145,145.8,145,21258,84391,581,1.02,0.02,-0.01,-4.07,-2.48,-0.86,0.39,-87.34,-0.43,-2.74,-3.04,-0.4,-6.12,Sitting,
12:21.0,530,500,750,646,443,1.31,763.79,2.17,22.98,444,146,145.8,145,21258,105707,727,1.02,0,0.02,-4.79,-2.8,0.14,-0.33,-87.43,-0.86,-3.22,-2.94,-0.84,-6.59,Sitting,
12:21.1,535,501,751.5,646,444,1.3,766.84,2.17,22.98,444,145,145.8,145,21258,126732,872,1.02,0.01,0.02,-0.59,5.52,-2.49,-0.06,-87.13,-0.86,-2.87,-3.11,-0.83,-6.24,Sitting,
12:21.2,515,501,751.5,646,443,1.31,763.79,2.17,22.98,444,145,145.8,145,21258,147757,1017,1.02,0.03,0.04,2.41,-1.76,3.83,1.22,-85.53,-0.57,-3.25,-2.65,-0.5,-6.54,Sitting,
12:21.3,551,502,753,646,443,1.31,763.79,2.17,22.98,444,145,145.8,145,21258,168782,1162,1.02,0.01,0,-1.95,1.31,-5.98,-0.09,-87.91,-0.71,-3.32,-3.17,-0.68,-6.7,Sitting,
12:21.4,490,502,753,646,444,1.3,766.84,2.17,22.98,444,145,145.8,145,21258,189807,1307,1,0.01,-0.02,0.69,8.11,0.45,0.01,-87.05,-0.58,-2.71,-3.05,-0.56,-6.08,Sitting,
12:21.5,487,502,753,646,443,1.31,763.79,2.17,20724.3,443,148,145.5,145,21170,0,0,1.03,0,0.03,-2.27,0.56,-0.47,-0.78,-86.7,-0.75,-2.85,-3.02,-0.75,-6.2,Sitting,
12:21.6,506,502,753,646,443,1.31,763.79,2.17,20724.3,443,144,145.5,145,21170,20736,144,1.01,0.01,-0.01,-0.69,-2.82,0.8,0,-87.4,-0.76,-3.33,-2.86,-0.73,-6.69,Sitting,
12:21.7,528,502,753,646,443,1.31,763.79,2.17,20724.3,443,144,145.5,145,21170,41472,288,1,0,0.01,1.21,-4.72,4.36,-0.71,-87.69,-0.59,-4,-2.34,-0.59,-7.35,Sitting,
12:21.8,494,502,753,646,443,1.31,763.79,2.17,20724.3,443,144,145.5,145,21170,62208,432,1.03,0.01,0.01,-0.18,-10.24,1.84,-0.05,-87.8,-0.55,-5.21,-2.08,-0.53,-8.52,Sitting,
12:21.9,489,502,753,646,442,1.31,760.76,2.16,20724.3,443,143,145.5,145,21170,82657,575,1.05,-0.01,0.03,3.61,-8.04,2.15,-1.05,-86.64,-0.13,-6.23,-1.79,-0.16,-9.44,Sitting,
12:22.0,482,502,753,646,443,1.31,763.79,2.17,20724.3,443,143,145.5,145,21170,103106,718,0.42,-0.01,1.19,-1,9.11,-9.25,-0.88,-17.79,-0.17,-5.52,-2.62,-0.2,-6.01,Sitting,
12:22.1,479,501,751.5,646,442,1.31,760.76,2.16,20724.3,443,146,145.5,145,21170,124422,864,1.06,0.01,-0.12,7.25,10.46,-2.3,-0.25,-81.73,0.61,-4.68,-2.77,0.58,-7.76,Sitting,
12:22.2,469,501,751.5,646,443,1.31,763.79,2.17,20724.3,443,144,145.5,145,21170,145158,1008,1.01,0,0.03,-1.73,-0.44,0.4,-0.79,-86.69,0.49,-4.92,-2.65,0.44,-8.19,Sitting,
12:22.3,490,500,750,646,443,1.31,763.79,2.17,20724.3,443,144,145.5,145,21170,165894,1152,1.01,-0.01,0.01,-0.61,-0.22,-3.62,-1.3,-87.46,0.49,-5.14,-2.93,0.42,-8.43,Sitting,
12:22.4,530,501,751.5,646,443,1.31,763.79,2.17,20724.3,443,144,145.5,145,21170,186630,1296,1.01,0,-0.02,-0.75,-3.83,1.42,-0.34,-87.41,0.47,-5.73,-2.71,0.44,-8.99,Sitting,
12:22.5,491,501,751.5,646,444,1.3,766.84,2.17,20724.29,442,144,144,144,20735,0,0,1.02,0.01,-0.01,3.29,6.76,-2.14,0.01,-87.63,0.85,-5.25,-2.85,0.82,-8.54,Sitting,
12:22.6,486,500,750,646,444,1.3,766.84,2.17,20724.29,442,148,144,144,20735,21904,148,1.01,0,-0.01,4.28,4.08,-3.24,-0.33,-88,1.33,-5.05,-3.09,1.26,-8.36,Sitting,
12:22.7,484,500,750,646,443,1.31,763.79,2.17,20724.29,442,147,144,144,20735,43513,295,1.01,0.02,0,0.25,-1.08,-2.1,0.29,-87.52,1.41,-5.35,-3.22,1.37,-8.64,Sitting,
12:22.8,474,500,750,646,443,1.31,763.79,2.17,20724.29,442,144,144,144,20735,64249,439,0.99,0.03,0.01,-0.4,9.81,-11.85,1.14,-86.61,1.43,-4.57,-4.33,1.41,-7.85,Sitting,
12:22.9,434,499,748.5,646,444,1.3,766.84,2.17,20724.29,442,144,144,144,20735,84985,583,1.04,0.02,0.02,-1.4,-4.4,-4.53,0.4,-86.81,1.34,-5.21,-4.7,1.3,-8.47,Sitting,
12:23.0,474,498,747,646,443,1.31,763.79,2.17,20724.29,442,143,144,144,20735,105434,726,1.04,0.05,-0.06,0.24,-6.56,-2.45,2.32,-83.94,1.42,-6.05,-4.86,1.46,-9.17,Sitting,
12:23.1,500,498,747,646,443,1.31,763.79,2.17,20724.29,442,144,144,144,20735,126170,870,1.01,0.06,-0.05,-0.52,-0.53,-0.53,2.73,-84.15,1.42,-6.31,-4.83,1.48,-9.42,Sitting,
12:23.2,474,498,747,646,444,1.3,766.84,2.17,20724.29,442,143,144,144,20735,146619,1013,1.04,0.02,0,2.05,3.15,2.87,0.35,-87.48,1.69,-6.19,-4.47,1.63,-9.44,Sitting,
12:23.3,468,498,747,646,443,1.31,763.79,2.17,20724.29,442,143,144,144,20735,167068,1156,0.97,0.07,0.01,3.02,0.73,1.66,3.51,-84.28,2.04,-6.32,-4.23,2.1,-9.44,Sitting,
12:23.4,461,497,745.5,646,443,1.31,763.79,2.17,20724.29,442,143,144,144,20735,187517,1299,0.99,0.04,0.02,-2.2,-1.51,3.05,1.49,-85.95,1.88,-6.67,-3.84,1.86,-9.84,Sitting,
12:23.5,496,497,745.5,646,443,1.31,763.79,2.17,20724.3,443,146,144.51,144,20882,0,0,1.01,0.01,-0.02,-4.1,-1.3,2.06,0.27,-87.07,1.53,-6.99,-3.56,1.48,-10.2,Sitting,
12:23.6,453,496,744,646,444,1.3,766.84,2.17,20724.3,443,147,144.51,144,20882,21609,147,1.02,0.01,-0.03,-3.85,-1.98,3.34,0.15,-86.8,1.2,-7.39,-3.15,1.16,-10.56,Sitting,
12:23.7,442,496,744,646,443,1.31,763.79,2.17,20724.3,443,147,144.51,144,20882,43218,294,1.03,0.02,-0.02,-5.09,-4.34,1.81,0.73,-86.56,0.75,-8.03,-2.89,0.75,-11.17,Sitting,
12:23.8,472,495,742.5,646,443,1.31,763.79,2.17,20724.3,443,143,144.51,144,20882,63667,437,1.01,0.02,-0.02,-1.47,1.66,-1.31,0.31,-86.98,0.66,-8.06,-2.94,0.64,-11.22,Sitting,
12:23.9,497,495,742.5,646,443,1.31,763.79,2.17,20724.3,443,143,144.51,144,20882,84116,580,1.03,0.01,-0.04,-2.82,-3.53,2.24,-0.13,-86.21,0.43,-8.61,-2.64,0.41,-11.71,Sitting,
12:24.0,491,495,742.5,646,443,1.31,763.79,2.17,20724.3,443,143,144.51,144,20882,104565,723,1.02,0.01,-0.03,-4.09,1.47,2.82,-0.16,-86.62,0.08,-8.66,-2.28,0.07,-11.78,Sitting,
12:24.1,485,495,742.5,646,443,1.31,763.79,2.17,20724.3,443,143,144.51,144,20882,125014,866,1,0.01,-0.02,-2.56,0.65,2,-0.16,-87.28,-0.12,-8.79,-2,-0.12,-11.93,Sitting,
12:24.2,526,495,742.5,646,444,1.3,766.84,2.17,20724.3,443,143,144.51,144,20882,145463,1009,1.01,0.01,-0.05,-0.85,3.76,-1.07,-0.12,-85.38,-0.15,-8.62,-2.03,-0.15,-11.69,Sitting,
12:24.3,477,495,742.5,646,443,1.31,763.79,2.17,20724.3,443,143,144.51,144,20882,165912,1152,1.01,0,-0.04,0.15,0.94,-2.26,-0.68,-86,-0.08,-8.73,-2.18,-0.1,-11.82,Sitting,
12:24.4,488,495,742.5,646,442,1.31,760.76,2.16,20724.3,443,143,144.51,144,20882,186361,1295,0.99,0.01,-0.01,-4.07,0.08,-0.47,-0.14,-87.65,-0.43,-8.92,-2.15,-0.42,-12.07,Sitting,
12:24.5,515,495,742.5,646,442,1.31,760.76,2.16,20724.3,443,143,143.81,143,20680,0,0,0.99,0,-0.02,0.19,7.78,-0.04,-0.61,-87.42,-0.36,-8.35,-2.07,-0.37,-11.51,Sitting,
12:24.6,546,496,744,646,443,1.31,763.79,2.17,20724.3,443,147,143.81,143,20680,21609,147,1,0,-0.03,-0.44,3.05,0.64,-0.37,-86.78,-0.34,-8.24,-1.93,-0.34,-11.38,Sitting,
12:24.7,533,496,744,646,443,1.31,763.79,2.17,20724.3,443,146,143.81,143,20680,42925,293,1.01,-0.01,-0.03,-2.26,-0.45,0.77,-1.31,-86.54,-0.51,-8.48,-1.77,-0.55,-11.61,Sitting,
12:24.8,525,497,745.5,646,443,1.31,763.79,2.17,20724.3,443,143,143.81,143,20680,63374,436,1.03,0,-0.03,-1.4,0.49,-1.6,-0.66,-86.73,-0.6,-8.64,-1.85,-0.6,-11.76,Sitting,
12:24.9,557,497,745.5,646,443,1.31,763.79,2.17,20724.3,443,142,143.81,143,20680,83538,578,1.02,-0.01,-0.06,-3.43,0.69,-0.53,-0.96,-85.1,-0.88,-8.77,-1.83,-0.89,-11.82,Sitting,
12:25.0,487,497,745.5,646,443,1.31,763.79,2.17,20724.3,443,143,143.81,143,20680,103987,721,1.01,-0.02,-0.02,-0.19,2.08,-0.27,-1.62,-86.67,-0.85,-8.76,-1.77,-0.88,-11.87,Sitting,
12:25.1,490,497,745.5,646,443,1.31,763.79,2.17,20724.3,443,146,143.81,143,20680,125303,867,1.03,-0.01,-0.04,-1.6,-0.73,-1.05,-1.41,-85.92,-0.95,-9.03,-1.8,-0.97,-12.11,Sitting,
12:25.2,505,497,745.5,646,444,1.3,766.84,2.17,20724.3,443,146,143.81,143,20680,146619,1013,1.03,-0.01,-0.03,-0.91,1.95,-0.89,-0.93,-86.93,-0.99,-9.04,-1.81,-0.98,-12.15,Sitting,
12:25.3,527,498,747,646,443,1.31,763.79,2.17,20724.3,443,143,143.81,143,20680,167068,1156,1.02,-0.01,-0.03,-1.54,3.64,-1.16,-1.39,-86.8,-1.08,-8.87,-1.85,-1.1,-11.99,Sitting,
12:25.4,505,498,747,646,444,1.3,766.84,2.17,20724.3,443,146,143.81,143,20680,188384,1302,1.02,-0.01,-0.04,-2.28,-0.39,-0.65,-0.97,-86.26,-1.26,-9.11,-1.83,-1.25,-12.2,Sitting,
12:25.5,491,498,747,646,443,1.31,763.79,2.17,20724.3,443,143,144.51,144,20882,0,0,1.01,-0.01,-0.04,-1.88,1.78,-1.04,-1.19,-85.92,-1.39,-9.14,-1.86,-1.38,-12.21,Sitting,
12:25.6,497,498,747,646,444,1.3,766.84,2.17,20724.3,443,146,144.51,144,20882,21316,146,1.02,-0.02,-0.01,-2.02,0.34,-1.27,-1.57,-87.36,-1.54,-9.3,-1.91,-1.54,-12.42,Sitting,
12:25.7,464,497,745.5,646,443,1.31,763.79,2.17,20724.3,443,142,144.51,144,20882,41480,288,1.03,-0.02,-0.02,-2.73,1.13,-1.23,-1.73,-86.65,-1.76,-9.39,-1.95,-1.75,-12.48,Sitting,
12:25.8,454,497,745.5,646,444,1.3,766.84,2.17,20724.3,443,142,144.51,144,20882,61644,430,1.01,-0.01,-0.03,-1.87,0.99,-1.79,-1.3,-86.5,-1.89,-9.49,-2.05,-1.86,-12.57,Sitting,
12:25.9,474,497,745.5,646,442,1.31,760.76,2.16,20724.3,443,146,144.51,144,20882,82960,576,1,-0.01,-0.03,-1.74,-0.56,-0.13,-1.22,-86.55,-2,-9.75,-1.98,-1.97,-12.82,Sitting,
12:26.0,511,497,745.5,646,444,1.3,766.84,2.17,20724.3,443,143,144.51,144,20882,103409,719,1.03,-0.02,-0.04,-2.37,0.11,-0.92,-1.78,-85.98,-2.19,-9.94,-2,-2.17,-12.98,Sitting,
12:26.1,483,497,745.5,646,443,1.31,763.79,2.17,20724.3,443,146,144.51,144,20882,124725,865,1.02,-0.01,-0.04,-2.09,1.56,-1.52,-1.18,-86.29,-2.34,-9.98,-2.07,-2.29,-13.03,Sitting,
12:26.2,479,496,744,646,444,1.3,766.84,2.17,20724.3,443,142,144.51,144,20882,144889,1007,1.01,-0.01,-0.02,-1.99,0.34,-0.68,-0.95,-87.47,-2.48,-10.15,-2.06,-2.42,-13.24,Sitting,
12:26.3,477,496,744,646,443,1.31,763.79,2.17,20724.3,443,142,144.51,144,20882,165053,1149,1.02,-0.02,-0.01,-1.6,1.24,-0.55,-1.62,-87.14,-2.59,-10.23,-2.03,-2.55,-13.3,Sitting,
12:26.4,505,496,744,646,443,1.31,763.79,2.17,20724.3,443,142,144.51,144,20882,185217,1291,1,-0.01,-0.01,-2.01,-0.43,0.15,-1.21,-87.43,-2.74,-10.47,-1.94,-2.67,-13.55,Sitting,
12:26.5,694,498,747,694,444,1.3,766.84,2.17,20724.3,443,143,143.41,143,20565,0,0,1.01,-0.01,-0.03,-1.82,0.61,-0.66,-1.4,-86.62,-2.86,-10.61,-1.93,-2.8,-13.65,Sitting,
12:26.6,493,498,747,694,443,1.31,763.79,2.17,20724.3,443,142,143.41,143,20565,20164,142,1.02,-0.02,-0.02,-2.6,0.6,-1.66,-1.91,-86.73,-3.07,-10.75,-2.02,-3.02,-13.79,Sitting,
12:32.0,486,486,729,486,444,1.3,766.84,2.17,0,0,141,0,0,0,40330,284,1.04,-0.04,-0.13,1.71,-10.11,-0.79,-2.59,-80.97,0.15,-0.99,-0.88,0.04,-4.19,Left Fall while Sitting,
12:32.1,483,484,726,486,444,1.3,766.84,2.17,0,0,141,0,0,0,60211,425,1.04,-0.02,-0.07,0.82,5.14,-4.95,-1.43,-84.62,0.28,-0.68,-1.29,0.21,-4.04,Left Fall while Sitting,
12:32.2,516,495,742.5,516,443,1.31,763.79,2.17,0,0,142,0,0,0,80375,567,1.01,-0.01,-0.1,-6.5,-1.65,-5.56,-1.31,-82.58,-0.29,-1.04,-1.75,-0.34,-4.3,Left Fall while Sitting,
12:32.3,452,484,726,516,444,1.3,766.84,2.17,0,0,141,0,0,0,100256,708,1.02,-0.03,-0.09,-5.54,-6.01,-2.24,-2.42,-83.18,-0.78,-1.81,-1.89,-0.84,-5.07,Left Fall while Sitting,
12:32.4,464,480,720,516,444,1.3,766.84,2.17,0,0,141,0,0,0,120137,849,1.07,-0.04,-0.12,-8.95,-16.73,3.62,-2.51,-81.62,-1.61,-3.67,-1.45,-1.65,-6.79,Left Fall while Sitting,
12:32.5,480,480,720,516,444,1.3,766.84,2.17,0,0,142,0,0,0,140301,991,0.99,-0.04,-0.12,-4.59,8.15,-10.08,-2.69,-81.17,-2,-3.06,-2.36,-2.03,-6.19,Left Fall while Sitting,
12:32.6,513,484,726,516,444,1.3,766.84,2.17,0,0,141,0,0,0,160182,1132,1.04,-0.02,-0.09,-2.08,3.36,-5.92,-1.8,-83.2,-2.15,-2.93,-2.87,-2.14,-6.14,Left Fall while Sitting,
12:32.7,480,484,726,516,444,1.3,766.84,2.17,0,0,141,0,0,0,180063,1273,1.02,0.02,-0.1,-1.73,11.27,-15.47,0.69,-82.4,-2.27,-2.01,-4.32,-2.15,-5.23,Left Fall while Sitting,
12:32.8,480,483,724.5,516,443,1.31,763.79,2.17,20.95,443,141,141.4,141,19993,0,0,0.99,0.04,-0.04,-9.37,-0.47,-13.14,1.63,-85.35,-3.13,-2.25,-5.53,-2.94,-5.58,Left Fall while Sitting,
12:32.9,480,483,724.5,516,443,1.31,763.79,2.17,20.95,443,141,141.4,141,19993,19881,141,1,0.05,-0.12,-3.35,-1.82,-8.83,2,-81.27,-3.41,-2.63,-6.33,-3.19,-5.78,Left Fall while Sitting,
12:33.0,511,485,727.5,516,444,1.3,766.84,2.17,20.95,443,141,141.4,141,19993,39762,282,1.02,0.09,-0.09,-1.89,5.29,-7.55,4.33,-81.24,-3.54,-2.3,-7,-3.23,-5.46,Left Fall while Sitting,
12:33.1,471,484,726,516,443,1.31,763.79,2.17,20.95,443,140,141.4,141,19993,59362,422,1,0.07,-0.09,-4.08,7.08,-9.44,3.56,-81.75,-3.89,-1.8,-7.86,-3.59,-5,Left Fall while Sitting,
12:33.2,479,484,726,516,443,1.31,763.79,2.17,20.95,443,140,141.4,141,19993,78962,562,1.06,0.1,-0.14,-4.25,4.85,-11.89,4.68,-79.22,-4.26,-1.52,-8.96,-3.9,-4.63,Left Fall while Sitting,
12:33.3,506,485,727.5,516,443,1.31,763.79,2.17,20.95,443,141,141.4,141,19993,98843,703,1.03,0.12,-0.11,-7.02,-7.57,-16.89,6.22,-79.17,-4.9,-2.48,-10.57,-4.46,-5.54,Left Fall while Sitting,
12:33.4,539,489,733.5,539,444,1.3,766.84,2.17,20.95,443,141,141.4,141,19993,118724,844,1.01,0.16,-0.08,-9.85,-11.66,-14.98,8.48,-78.32,-5.83,-3.84,-11.99,-5.26,-6.82,Left Fall while Sitting,
12:33.5,509,490,735,539,443,1.31,763.79,2.17,20.95,443,141,141.4,141,19993,138605,985,0.98,0.18,-0.09,-5.56,4.85,-19.69,9.62,-77.02,-6.33,-3.56,-13.88,-5.69,-6.5,Left Fall while Sitting,
12:33.6,502,491,736.5,539,444,1.3,766.84,2.17,20.95,443,141,141.4,141,19993,158486,1126,0.98,0.22,-0.07,-6.58,-1.73,-21.64,11.93,-75.27,-6.93,-3.93,-15.96,-6.18,-6.78,Left Fall while Sitting,
12:33.7,525,493,739.5,539,443,1.31,763.79,2.17,20.95,443,140,141.4,141,19993,178086,1266,0.97,0.24,-0.08,-0.68,-4.21,-23.61,13.51,-73.49,-6.94,-4.55,-18.24,-6.13,-7.31,Left Fall while Sitting,
12:33.8,480,492,738,539,444,1.3,766.84,2.17,20724.3,443,140,140.6,140,19767,0,0,0.91,0.28,-0.08,-1.64,4.89,-27.21,16.52,-70.59,-7.05,-4.26,-20.86,-6.11,-6.92,Left Fall while Sitting,
12:33.9,481,491,736.5,539,443,1.31,763.79,2.17,20724.3,443,140,140.6,140,19767,19600,140,0.95,0.33,-0.07,-4.02,-7.4,-21.22,18.46,-68.96,-7.4,-5.21,-22.92,-6.37,-7.76,Left Fall while Sitting,
12:34.0,507,492,738,539,444,1.3,766.84,2.17,20724.3,443,140,140.6,140,19767,39200,280,0.95,0.36,-0.09,-3.76,2.56,-19.85,20.36,-66.87,-7.72,-5.16,-24.85,-6.6,-7.63,Left Fall while Sitting,
12:34.1,552,495,742.5,552,443,1.31,763.79,2.17,20724.3,443,140,140.6,140,19767,58800,420,0.92,0.37,-0.11,-5.21,-2.86,-19.77,21.18,-65.67,-8.18,-5.64,-26.73,-7.01,-8.04,Left Fall while Sitting,
12:34.2,506,495,742.5,552,443,1.31,763.79,2.17,20724.3,443,140,140.6,140,19767,78400,560,0.92,0.44,-0.15,-0.42,6.95,-19.96,24.55,-61.67,-8.17,-5.13,-28.68,-6.86,-7.39,Left Fall while Sitting,
12:34.3,513,496,744,552,443,1.31,763.79,2.17,20724.3,443,140,140.6,140,19767,98000,700,0.91,0.45,-0.13,-1.45,0.24,-16.45,25.34,-61.34,-8.26,-5.31,-30.25,-6.91,-7.55,Left Fall while Sitting,
12:34.4,517,497,745.5,552,444,1.3,766.84,2.17,20724.3,443,140,140.6,140,19767,117600,840,0.93,0.49,-0.17,-2.44,2.44,-15.42,26.69,-59.36,-8.45,-5.26,-31.71,-7.04,-7.43,Left Fall while Sitting,
12:34.5,476,496,744,552,444,1.3,766.84,2.17,20724.3,443,144,140.6,140,19767,138336,984,0.88,0.48,-0.09,-1.05,6.76,-19.31,28.05,-59.27,-8.5,-4.78,-33.58,-7.03,-6.96,Left Fall while Sitting,
12:34.6,423,493,739.5,552,444,1.3,766.84,2.17,20724.3,443,140,140.6,140,19767,157936,1124,0.86,0.52,-0.08,-0.82,4.14,-12.07,30.65,-56.76,-8.52,-4.57,-34.71,-6.95,-6.66,Left Fall while Sitting,
12:34.7,418,491,736.5,552,443,1.31,763.79,2.17,20724.3,443,143,140.6,140,19767,178385,1267,0.85,0.53,-0.1,-3.18,2.76,-12.64,31.4,-55.81,-8.78,-4.49,-35.89,-7.18,-6.55,Left Fall while Sitting,
12:34.8,438,489,733.5,552,444,1.3,766.84,2.17,9.17,443,144,141.11,141,19911,0,0,0.84,0.55,-0.12,-2.15,2.54,-13,32.38,-54.56,-8.94,-4.44,-37.12,-7.29,-6.45,Left Fall while Sitting,
12:34.9,366,485,727.5,552,444,1.3,766.84,2.17,9.17,443,140,141.11,141,19911,19600,140,0.82,0.56,-0.09,0.05,1.17,-8.77,33.52,-53.8,-8.88,-4.52,-37.91,-7.19,-6.49,Left Fall while Sitting,
12:35.0,344,480,720,552,443,1.31,763.79,2.17,9.17,443,140,141.11,141,19911,39200,280,0.84,0.57,-0.09,-2.51,-0.07,-4.85,33.67,-53.71,-9.08,-4.73,-38.31,-7.37,-6.69,Left Fall while Sitting,
12:35.1,337,476,714,552,443,1.31,763.79,2.17,9.17,443,140,141.11,141,19911,58800,420,0.79,0.58,-0.07,-2.18,0.26,-5.47,35.68,-51.88,-9.24,-4.9,-38.78,-7.44,-6.78,Left Fall while Sitting,
12:35.2,295,470,705,552,444,1.3,766.84,2.17,9.17,443,140,141.11,141,19911,78400,560,0.81,0.61,-0.07,-1.81,4.26,-3.18,36.35,-51.18,-9.36,-4.68,-39.01,-7.53,-6.54,Left Fall while Sitting,
12:35.3,278,464,696,552,443,1.31,763.79,2.17,9.17,443,144,141.11,141,19911,99136,704,0.8,0.59,-0.07,-0.77,-0.01,-5.6,35.37,-52.15,-9.38,-4.88,-39.49,-7.59,-6.77,Left Fall while Sitting,
12:35.4,325,460,690,552,443,1.31,763.79,2.17,9.17,443,144,141.11,141,19911,119872,848,0.8,0.59,-0.07,-2.47,-1.23,-2.53,35.93,-51.58,-9.58,-5.2,-39.66,-7.75,-7.06,Left Fall while Sitting,
12:35.5,406,459,688.5,552,444,1.3,766.84,2.17,9.17,443,140,141.11,141,19911,139472,988,0.8,0.59,-0.09,-2.68,1.5,-2.16,35.37,-52.03,-9.78,-5.25,-39.8,-7.98,-7.12,Left Fall while Sitting,
12:35.6,427,458,687,552,443,1.31,763.79,2.17,9.17,443,140,141.11,141,19911,159072,1128,0.79,0.6,-0.09,-2.56,-0.11,-1.12,36.18,-51.13,-9.99,-5.46,-39.83,-8.14,-7.29,Left Fall while Sitting,
12:35.7,479,459,688.5,552,443,1.31,763.79,2.17,9.17,443,140,141.11,141,19911,178672,1268,0.78,0.6,-0.08,-2.01,1.03,0.91,36.69,-50.71,-10.13,-5.56,-39.66,-8.26,-7.37,Left Fall while Sitting,
12:35.8,526,460,690,552,444,1.3,766.84,2.17,20724.3,443,144,141.21,141,19939,0,0,0.81,0.59,-0.07,-1.76,2.11,1.95,35.37,-52.19,-10.25,-5.55,-39.39,-8.42,-7.42,Left Fall while Sitting,
12:35.9,568,463,694.5,568,443,1.31,763.79,2.17,20724.3,443,141,141.21,141,19939,19881,141,0.82,0.59,-0.08,-1.95,0.08,1.47,34.91,-52.53,-10.39,-5.74,-39.17,-8.58,-7.61,Left Fall while Sitting,
12:36.0,574,466,699,574,443,1.31,763.79,2.17,20724.3,443,140,141.21,141,19939,39481,281,0.82,0.58,-0.09,-0.44,0.89,2.5,34.73,-52.65,-10.38,-5.85,-38.83,-8.57,-7.73,Left Fall while Sitting,
12:36.1,626,469,703.5,626,444,1.3,766.84,2.17,20724.3,443,141,141.21,141,19939,59362,422,0.8,0.57,-0.08,-0.63,0.66,2.18,34.93,-52.54,-10.38,-5.99,-38.54,-8.57,-7.85,Left Fall while Sitting,
12:36.2,690,475,712.5,690,443,1.31,763.79,2.17,20724.3,443,141,141.21,141,19939,79243,563,0.81,0.56,-0.09,-0.54,1.6,3.73,34.12,-53.24,-10.38,-6.03,-38.08,-8.6,-7.91,Left Fall while Sitting,
12:36.3,667,479,718.5,690,444,1.3,766.84,2.17,20724.3,443,142,141.21,141,19939,99407,705,0.82,0.56,-0.07,-1.78,-2.97,5.69,33.52,-54.03,-10.5,-6.52,-37.44,-8.74,-8.42,Left Fall while Sitting,
12:36.4,661,483,724.5,690,443,1.31,763.79,2.17,20724.3,443,143,141.21,141,19939,119856,848,0.81,0.56,-0.09,-0.47,2.31,3.18,33.97,-53.36,-10.49,-6.49,-37.04,-8.72,-8.37,Left Fall while Sitting,
12:36.5,659,487,730.5,690,443,1.31,763.79,2.17,20724.3,443,141,141.21,141,19939,139737,989,0.83,0.56,-0.08,-1.02,3.14,4.47,33.03,-54.43,-10.54,-6.38,-36.51,-8.8,-8.3,Left Fall while Sitting,
12:36.6,640,490,735,690,443,1.31,763.79,2.17,20724.3,443,140,141.21,141,19939,159337,1129,0.84,0.54,-0.09,-2.31,1.23,8.91,31.98,-55.31,-10.72,-6.45,-35.54,-9.01,-8.41,Left Fall while Sitting,
12:36.7,656,493,739.5,690,443,1.31,763.79,2.17,20724.3,443,143,141.21,141,19939,179786,1272,0.86,0.51,-0.15,-2.43,0.9,10.76,29.8,-56.66,-10.9,-6.56,-34.38,-9.27,-8.57,Left Fall while Sitting,
12:36.8,975,503,754.5,975,443,1.31,763.79,2.17,20724.3,443,141,141.3,141,19965,0,0,0.87,0.51,-0.09,-0.31,2.83,10.55,29.62,-57.66,-10.88,-6.48,-33.25,-9.26,-8.53,Left Fall while Sitting,
12:36.9,598,505,757.5,975,443,1.31,763.79,2.17,20724.3,443,140,141.3,141,19965,19600,140,0.85,0.51,-0.1,-1.31,2.56,13.53,30.11,-57.06,-10.95,-6.43,-31.81,-9.31,-8.45,Left Fall while Sitting,
12:37.0,612,507,760.5,975,443,1.31,763.79,2.17,20724.3,443,140,141.3,141,19965,39200,280,0.87,0.47,-0.08,-1.46,1.16,16.53,27.92,-59.53,-11.04,-6.51,-30.08,-9.48,-8.63,Left Fall while Sitting,
12:37.1,585,509,763.5,975,443,1.31,763.79,2.17,20724.3,443,141,141.3,141,19965,59081,421,0.92,0.44,-0.07,-2.69,-2.48,19.38,24.99,-62.53,-11.26,-6.96,-28.05,-9.81,-9.18,Left Fall while Sitting,
12:37.2,575,510,765,975,442,1.31,760.76,2.16,20724.3,443,141,141.3,141,19965,78962,562,0.93,0.39,-0.09,-0.43,3.76,19.63,21.84,-65.37,-11.24,-6.79,-26,-9.92,-9.13,Left Fall while Sitting,
12:37.3,547,511,766.5,975,443,1.31,763.79,2.17,20724.3,443,141,141.3,141,19965,98843,703,0.95,0.38,-0.09,0.47,-0.53,18.29,21.01,-66.23,-11.14,-7.04,-24.1,-9.85,-9.41,Left Fall while Sitting,
12:37.4,527,511,766.5,975,442,1.31,760.76,2.16,20724.3,443,141,141.3,141,19965,118724,844,0.97,0.32,-0.06,2.02,0.03,22.47,17.89,-69.58,-10.88,-7.24,-21.75,-9.73,-9.73,Left Fall while Sitting,
12:37.5,546,512,768,975,442,1.31,760.76,2.16,20724.3,443,144,141.3,141,19965,139460,988,0.95,0.31,-0.09,0.73,-1.47,19.19,17.35,-69.71,-10.75,-7.58,-19.75,-9.63,-10.07,Left Fall while Sitting,
12:37.6,489,511,766.5,975,442,1.31,760.76,2.16,20724.3,443,140,141.3,141,19965,159060,1128,0.98,0.27,-0.12,1.76,3.62,15.85,14.86,-71.44,-10.52,-7.42,-18.07,-9.5,-9.98,Left Fall while Sitting,
12:37.7,476,511,766.5,975,443,1.31,763.79,2.17,20724.3,443,140,141.3,141,19965,178660,1268,0.96,0.23,-0.09,1.34,4.39,14.89,13.09,-73.85,-10.32,-7.18,-16.48,-9.39,-9.85,Left Fall while Sitting,
12:37.8,490,510,765,975,442,1.31,760.76,2.16,20724.28,442,140,140.8,140,19825,0,0,1,0.19,-0.12,6.11,5.85,16.25,10.08,-75.89,-9.66,-6.8,-14.8,-8.87,-9.56,Left Fall while Sitting,
12:37.9,512,510,765,975,442,1.31,760.76,2.16,20724.28,442,141,140.8,140,19825,19881,141,1.08,0.17,-0.08,3.96,5.89,14.24,8.32,-78.49,-9.22,-6.41,-13.31,-8.51,-9.3,Left Fall while Sitting,
12:38.0,489,510,765,975,443,1.31,763.79,2.17,20724.28,442,141,140.8,140,19825,39762,282,1.03,0.16,-0.06,3.82,6.91,7.78,8.22,-79.06,-8.77,-5.92,-12.44,-8.09,-8.84,Left Fall while Sitting,
12:38.1,486,509,763.5,975,442,1.31,760.76,2.16,20724.28,442,140,140.8,140,19825,59362,422,1.05,0.12,-0.08,7.56,9.82,24.88,5.67,-80.87,-7.97,-5.14,-9.9,-7.42,-8.17,Left Fall while Sitting,
12:38.2,481,509,763.5,975,442,1.31,760.76,2.16,20724.28,442,140,140.8,140,19825,78962,562,1.02,0.1,-0.03,1.48,-2.34,7.82,5.25,-82.32,-7.77,-5.57,-9.05,-7.25,-8.64,Left Fall while Sitting,
12:38.3,478,509,763.5,975,443,1.31,763.79,2.17,20724.28,442,140,140.8,140,19825,98562,702,1,0.1,-0.08,-3.53,-5.62,4.08,5,-81.37,-8.06,-6.33,-8.56,-7.54,-9.34,Left Fall while Sitting,
12:38.4,505,508,762,975,442,1.31,760.76,2.16,20724.28,442,140,140.8,140,19825,118162,842,0.99,0.06,-0.1,-2.71,6.71,2.47,2.98,-81.84,-8.28,-5.86,-8.24,-7.83,-8.9,Left Fall while Sitting,
12:38.5,888,514,771,975,442,1.31,760.76,2.16,20724.28,442,144,140.8,140,19825,138898,986,1.03,0.07,-0.04,-0.69,0.31,0.7,3.37,-83.8,-8.29,-6.03,-8.09,-7.83,-9.14,Left Fall while Sitting,
12:38.6,481,514,771,975,442,1.31,760.76,2.16,20724.28,442,144,140.8,140,19825,159634,1130,1.03,0.04,-0.04,3.73,6.77,6.82,1.52,-85.31,-7.86,-5.56,-7.33,-7.49,-8.75,Left Fall while Sitting,
12:38.7,491,513,769.5,975,442,1.31,760.76,2.16,20724.28,442,144,140.8,140,19825,180370,1274,1.06,0.04,-0.01,-5.29,1.49,2.67,1.78,-85.98,-8.34,-5.61,-6.98,-7.93,-8.82,Left Fall while Sitting,
12:38.8,478,513,769.5,975,442,1.31,760.76,2.16,20724.28,442,140,141.41,141,19996,0,0,1.08,0.08,-0.03,-5.79,-1.47,3.53,3.56,-83.93,-8.85,-5.95,-6.56,-8.35,-9.07,Left Fall while Sitting,
12:38.9,472,512,768,975,442,1.31,760.76,2.16,20724.28,442,144,141.41,141,19996,20736,144,1.01,0.05,-0.07,-2.85,-0.37,5.05,2.19,-83.78,-9.08,-6.18,-5.97,-8.63,-9.29,Left Fall while Sitting,
12:39.0,471,512,768,975,442,1.31,760.76,2.16,20724.28,442,144,141.41,141,19996,41472,288,1,0.03,-0.06,0.82,5.4,1.29,1.37,-84.55,-8.94,-5.84,-5.76,-8.53,-8.99,Left Fall while Sitting,
12:39.1,471,511,766.5,975,441,1.32,757.73,2.16,20724.28,442,141,141.41,141,19996,61353,429,1.01,0.02,-0.03,2.48,6.3,5.26,0.4,-86.33,-8.64,-5.42,-5.17,-8.28,-8.65,Left Fall while Sitting,
12:39.2,529,511,766.5,975,442,1.31,760.76,2.16,20724.28,442,143,141.41,141,19996,81802,572,1.02,-0.01,-0.03,-2.37,6.54,2.46,-1.05,-86.68,-8.82,-4.96,-4.84,-8.51,-8.23,Left Fall while Sitting,
12:41.9,577,577,865.5,577,441,1.32,757.73,2.16,0,0,141,0,0,0,40045,283,1.02,-0.05,0.01,-5.21,-1.85,1.18,-3.42,-85.53,-0.69,-0.26,0.23,-0.8,-3.67,Right Fall while Sitting,
12:42.0,533,555,832.5,577,441,1.32,757.73,2.16,0,0,140,0,0,0,59645,423,1.02,-0.05,0,-2.41,1.73,0.59,-3.63,-85.37,-0.87,-0.28,0.37,-0.98,-3.69,Right Fall while Sitting,
12:42.1,524,544,816,577,441,1.32,757.73,2.16,0,0,140,0,0,0,79245,563,1.01,-0.07,0,-1.21,4.47,0.78,-4.27,-84.72,-0.93,-0.04,0.52,-1.06,-3.43,Right Fall while Sitting,
12:42.2,506,535,802.5,577,441,1.32,757.73,2.16,0,0,140,0,0,0,98845,703,1.04,-0.06,0.03,-4.07,1.85,2.13,-3.7,-84.98,-1.27,-0.06,0.81,-1.37,-3.46,Right Fall while Sitting,
12:42.3,501,528,792,577,441,1.32,757.73,2.16,0,0,140,0,0,0,118445,843,1.02,-0.07,0.01,-4.16,-2.4,3.88,-4.42,-84.53,-1.63,-0.49,1.26,-1.74,-3.85,Right Fall while Sitting,
12:42.4,457,516,774,577,441,1.32,757.73,2.16,0,0,140,0,0,0,138045,983,1,-0.1,0.01,-1.53,1.65,5.49,-6.43,-82.55,-1.72,-0.52,1.87,-1.91,-3.81,Right Fall while Sitting,
12:42.5,492,512,768,577,441,1.32,757.73,2.16,0,0,140,0,0,0,157645,1123,0.98,-0.11,0.01,-3.4,4.17,0.89,-6.94,-82.04,-1.99,-0.31,2.04,-2.19,-3.58,Right Fall while Sitting,
12:42.6,518,513,769.5,577,441,1.32,757.73,2.16,0,0,141,0,0,0,177526,1264,1.02,-0.09,0.02,-7.6,0.53,4.24,-5.64,-83.27,-2.69,-0.46,2.53,-2.81,-3.77,Right Fall while Sitting,
12:42.7,506,512,768,577,441,1.32,757.73,2.16,20724.25,441,143,140.7,140,19796,0,0,1.01,-0.12,0.01,-4.73,-5.99,16.89,-7.22,-81.74,-3.1,-1.24,4.27,-3.26,-4.46,Right Fall while Sitting,
12:42.8,510,512,768,577,441,1.32,757.73,2.16,20724.25,441,142,140.7,140,19796,20164,142,1,-0.17,0.02,-0.44,1.89,26.03,-10.23,-78.68,-3.09,-1.25,6.92,-3.37,-4.35,Right Fall while Sitting,
12:42.9,496,510,765,577,441,1.32,757.73,2.16,20724.25,441,139,140.7,140,19796,39485,281,1,-0.22,0.02,-4.65,6.21,31.73,-12.79,-76.16,-3.5,-0.83,10.21,-3.87,-3.84,Right Fall while Sitting,
12:43.0,492,509,763.5,577,441,1.32,757.73,2.16,20724.25,441,139,140.7,140,19796,58806,420,1.02,-0.27,0.04,-9.29,-2.75,34.17,-15.26,-73.53,-4.37,-1.3,13.7,-4.81,-4.19,Right Fall while Sitting,
12:43.1,463,505,757.5,577,441,1.32,757.73,2.16,20724.25,441,143,140.7,140,19796,79255,563,0.95,-0.32,-0.01,-10,2.61,28.18,-19.46,-69.53,-5.32,-1.24,16.6,-5.88,-3.98,Right Fall while Sitting,
12:43.2,486,504,756,577,441,1.32,757.73,2.16,20724.25,441,139,140.7,140,19796,98576,702,0.95,-0.34,0.01,-5.15,4.44,16.95,-20.42,-68.58,-5.78,-1,18.39,-6.37,-3.7,Right Fall while Sitting,
12:43.3,500,504,756,577,441,1.32,757.73,2.16,20724.25,441,139,140.7,140,19796,117897,841,0.94,-0.38,0,0.22,5.9,18.69,-22.4,-66.6,-5.7,-0.61,20.34,-6.37,-3.25,Right Fall while Sitting,
12:43.4,498,503,754.5,577,441,1.32,757.73,2.16,20724.25,441,139,140.7,140,19796,137218,980,0.93,-0.43,0.02,-2.56,2.45,19.32,-25.25,-63.73,-5.9,-0.56,22.35,-6.68,-3.09,Right Fall while Sitting,
12:43.5,498,503,754.5,577,441,1.32,757.73,2.16,20724.25,441,143,140.7,140,19796,157667,1123,0.89,-0.51,0,-6.09,5.67,39.22,-30.53,-58.47,-6.46,-0.19,26.39,-7.42,-2.52,Right Fall while Sitting,
12:43.6,523,504,756,577,441,1.32,757.73,2.16,20724.25,441,143,140.7,140,19796,178116,1266,0.88,-0.55,0.06,-3.74,9.36,45.91,-32.3,-56.45,-6.78,0.54,31.06,-7.8,-1.74,Right Fall while Sitting,
12:43.7,487,503,754.5,577,441,1.32,757.73,2.16,20724.25,441,139,140.51,140,19742,0,0,0.8,-0.59,0,-3.58,5.48,39.05,-37.31,-51.69,-7.08,0.89,34.97,-8.28,-1.22,Right Fall while Sitting,
12:43.8,481,502,753,577,442,1.31,760.76,2.16,20724.25,441,139,140.51,140,19742,19321,139,0.8,-0.62,0.03,-1.25,0.34,31.05,-38.34,-50.6,-7.15,0.72,38.18,-8.39,-1.34,Right Fall while Sitting,
12:43.9,493,501,751.5,577,442,1.31,760.76,2.16,20724.25,441,139,140.51,140,19742,38642,278,0.68,-0.68,0.03,-4.41,-6,33.42,-45.23,-43.71,-7.53,-0.08,41.6,-9.04,-1.83,Right Fall while Sitting,
12:44.0,535,503,754.5,577,442,1.31,760.76,2.16,20724.25,441,140,140.51,140,19742,58242,418,0.68,-0.74,0.07,7.56,14.92,12.47,-47.76,-40.96,-6.72,1.21,42.93,-8.36,-0.48,Right Fall while Sitting,
12:44.1,513,503,754.5,577,442,1.31,760.76,2.16,20724.25,441,140,140.51,140,19742,77842,558,0.68,-0.78,0.07,1.56,-5.66,14.87,-49.29,-39.48,-6.51,0.44,44.49,-8.22,-1.15,Right Fall while Sitting,
12:44.2,497,503,754.5,577,442,1.31,760.76,2.16,20724.25,441,139,140.51,140,19742,97163,697,0.65,-0.81,0.05,2.27,-3.92,17.22,-51.67,-37.21,-6.22,-0.15,46.3,-8.04,-1.63,Right Fall while Sitting,
12:44.3,463,501,751.5,577,443,1.31,763.79,2.17,20724.25,441,140,140.51,140,19742,116763,837,0.64,-0.8,0.05,-7.56,-4.52,21.79,-52.02,-36.86,-6.92,-0.8,48.55,-8.73,-2.24,Right Fall while Sitting,
12:44.4,474,500,750,577,442,1.31,760.76,2.16,20724.25,441,143,140.51,140,19742,137212,980,0.53,-0.83,0.03,-4.42,-4.23,26.24,-57.78,-31.14,-7.31,-1.43,51.28,-9.33,-2.62,Right Fall while Sitting,
12:44.5,485,500,750,577,442,1.31,760.76,2.16,20724.25,441,140,140.51,140,19742,156812,1120,0.54,-0.86,0.05,-1.49,12.1,14.05,-58.26,-30.59,-7.4,-0.42,52.77,-9.44,-1.63,Right Fall while Sitting,
12:44.6,514,500,750,577,442,1.31,760.76,2.16,20724.25,441,140,140.51,140,19742,176412,1260,0.55,-0.85,0.06,-8.4,4.24,13.67,-57.53,-31.26,-8.19,-0.2,54.21,-10.16,-1.44,Right Fall while Sitting,
12:44.7,497,500,750,577,442,1.31,760.76,2.16,20724.28,442,140,140,140,19600,0,0,0.57,-0.88,0.03,-9.69,-2,22.58,-57.52,-31.42,-9.1,-0.6,56.55,-11.04,-1.83,Right Fall while Sitting,
12:44.8,502,500,750,577,442,1.31,760.76,2.16,20724.28,442,140,140,140,19600,19600,140,0.54,-0.87,0.01,-11.9,-3.89,22.69,-58.76,-30.23,-10.25,-1.19,58.92,-12.19,-2.35,Right Fall while Sitting,
12:44.9,520,501,751.5,577,442,1.31,760.76,2.16,20724.28,442,143,140,140,19600,40049,283,0.5,-0.89,0,-4.97,-1.59,12.53,-61.29,-27.71,-10.69,-1.55,60.27,-12.72,-2.6,Right Fall while Sitting,
12:45.0,664,506,759,664,442,1.31,760.76,2.16,20724.28,442,140,140,140,19600,59649,423,0.43,-0.92,-0.04,-0.06,3.16,8.76,-65.19,-23.7,-10.64,-1.44,61.22,-12.83,-2.33,Right Fall while Sitting,
12:45.1,473,505,757.5,664,442,1.31,760.76,2.16,20724.28,442,140,140,140,19600,79249,563,0.4,-0.95,-0.02,-8,-2.76,7.12,-67.94,-21.02,-11.39,-1.91,62.01,-13.65,-2.68,Right Fall while Sitting,
12:45.2,498,505,757.5,664,443,1.31,763.79,2.17,20724.28,442,144,140,140,19600,99985,707,0.39,-0.96,0.01,-9.37,-5.66,0.89,-68.61,-20.38,-12.29,-2.7,62.19,-14.54,-3.4,Right Fall while Sitting,
12:45.3,486,504,756,664,442,1.31,760.76,2.16,20724.28,442,144,140,140,19600,120721,851,0.42,-0.94,-0.01,-1.26,0.58,4.82,-66.36,-22.63,-12.36,-2.84,62.75,-14.52,-3.63,Right Fall while Sitting,
12:45.4,501,504,756,664,443,1.31,763.79,2.17,20724.28,442,140,140,140,19600,140321,991,0.44,-0.93,-0.04,-2.92,-1.66,5.72,-65.1,-23.81,-12.59,-3.2,63.4,-14.69,-4.03,Right Fall while Sitting,
12:45.5,496,504,756,664,442,1.31,760.76,2.16,20724.28,442,140,140,140,19600,159921,1131,0.4,-0.94,-0.03,-1.67,0.15,5.54,-67.76,-21.15,-12.71,-3.39,64.04,-14.91,-4.1,Right Fall while Sitting,
12:45.6,479,503,754.5,664,442,1.31,760.76,2.16,20724.28,442,140,140,140,19600,179521,1271,0.39,-0.96,-0.04,-4.37,3.15,-1.24,-68.34,-20.51,-13.09,-3.28,64,-15.3,-3.97,Right Fall while Sitting,
12:45.7,484,503,754.5,664,443,1.31,763.79,2.17,20724.28,442,140,141.11,141,19911,0,0,0.39,-0.96,-0.03,-4.6,0.59,-0.37,-68.38,-20.53,-13.49,-3.42,64.04,-15.69,-4.1,Right Fall while Sitting,
12:45.8,493,502,753,664,442,1.31,760.76,2.16,20724.28,442,141,141.11,141,19911,19881,141,0.36,-0.96,-0.05,-3.4,-2.52,1.85,-69.73,-19.09,-13.78,-3.88,64.31,-16.01,-4.48,Right Fall while Sitting,
12:45.9,511,503,754.5,664,442,1.31,760.76,2.16,20724.28,442,141,141.11,141,19911,39762,282,0.37,-0.96,-0.04,0.27,5.87,-3.68,-69.18,-19.69,-13.69,-3.49,64.02,-15.91,-4.14,Right Fall while Sitting,
12:46.0,499,502,753,664,442,1.31,760.76,2.16,20724.28,442,141,141.11,141,19911,59643,423,0.4,-0.96,-0.04,-1.69,2.61,-2.08,-67.93,-20.94,-13.81,-3.43,63.89,-15.97,-4.13,Right Fall while Sitting,
12:46.1,516,503,754.5,664,443,1.31,763.79,2.17,20724.28,442,145,141.11,141,19911,80668,568,0.4,-0.95,-0.03,-2.12,0.96,-3.17,-67.86,-21.06,-13.97,-3.53,63.65,-16.12,-4.23,Right Fall while Sitting,
12:46.2,515,503,754.5,664,442,1.31,760.76,2.16,20724.28,442,141,141.11,141,19911,100549,709,0.4,-0.95,-0.05,-1.27,6.03,-6.68,-67.61,-21.24,-14.04,-3.13,63.06,-16.18,-3.85,Right Fall while Sitting,
12:46.3,482,503,754.5,664,442,1.31,760.76,2.16,20724.28,442,141,141.11,141,19911,120430,850,0.41,-0.96,-0.05,-3.94,4.22,-11.47,-67.3,-21.52,-14.38,-2.91,61.98,-16.5,-3.65,Right Fall while Sitting,
12:46.4,473,502,753,664,442,1.31,760.76,2.16,20724.28,442,141,141.11,141,19911,140311,991,0.43,-0.96,-0.07,-2.74,4.68,-12.53,-66.1,-22.53,-14.6,-2.64,60.79,-16.66,-3.43,Right Fall while Sitting,
12:46.5,486,502,753,664,442,1.31,760.76,2.16,20724.28,442,141,141.11,141,19911,160192,1132,0.44,-0.94,-0.05,-0.8,5.52,-12.05,-65.37,-23.44,-14.62,-2.28,59.66,-16.65,-3.13,Right Fall while Sitting,
12:46.6,512,502,753,664,442,1.31,760.76,2.16,20724.28,442,141,141.11,141,19911,180073,1273,0.44,-0.92,-0.04,-0.86,1.98,-16.73,-64.72,-24.19,-14.65,-2.28,58.03,-16.66,-3.16,Right Fall while Sitting,
12:46.7,482,501,751.5,664,443,1.31,763.79,2.17,20724.28,442,142,141.5,141,20022,0,0,0.48,-0.92,-0.03,-4.99,4.21,-29.86,-63.18,-25.75,-15.09,-2.06,55.15,-17.02,-3.01,Right Fall while Sitting,
12:46.8,487,501,751.5,664,442,1.31,760.76,2.16,20724.28,442,140,141.5,141,20022,19600,140,0.53,-0.88,-0.04,-9.18,-4.29,-33.47,-59.69,-29.2,-15.95,-2.69,51.89,-17.7,-3.75,Right Fall while Sitting,
12:46.9,502,501,751.5,664,443,1.31,763.79,2.17,20724.28,442,140,141.5,141,20022,39200,280,0.58,-0.86,-0.04,-2.72,1.07,-30.19,-56.65,-32.25,-16.17,-2.79,48.89,-17.79,-3.96,Right Fall while Sitting,
12:47.0,503,501,751.5,664,442,1.31,760.76,2.16,20724.28,442,141,141.5,141,20022,59081,421,0.62,-0.83,-0.04,-1.97,-11.78,-30.21,-53.82,-35.08,-16.32,-4.18,45.91,-17.82,-5.41,Right Fall while Sitting,
12:47.1,503,501,751.5,664,443,1.31,763.79,2.17,20724.28,442,142,141.5,141,20022,79245,563,0.62,-0.8,-0.07,6.4,-5.4,-30.88,-52.65,-36.11,-15.62,-4.92,42.91,-17.1,-6.17,Right Fall while Sitting,
12:47.2,476,501,751.5,664,444,1.3,766.84,2.17,20724.28,442,142,141.5,141,20022,99409,705,0.64,-0.75,-0.06,2.11,-8.05,-32.66,-49.94,-38.88,-15.35,-5.94,39.65,-16.73,-7.26,Right Fall while Sitting,
12:47.3,493,501,751.5,664,443,1.31,763.79,2.17,20724.28,442,141,141.5,141,20022,119290,846,0.7,-0.73,-0.04,2.96,4.49,-37.26,-46.53,-42.38,-15,-5.69,36.01,-16.26,-7.16,Right Fall while Sitting,
12:47.4,524,501,751.5,664,443,1.31,763.79,2.17,20724.28,442,141,141.5,141,20022,139171,987,0.77,-0.7,-0.04,-0.7,3.78,-33.48,-42.93,-46,-15.01,-5.51,32.67,-16.13,-7.13,Right Fall while Sitting,
12:47.5,514,501,751.5,664,443,1.31,763.79,2.17,20724.28,442,142,141.5,141,20022,159335,1129,0.82,-0.65,-0.02,-3.21,0.27,-27.08,-38.92,-50.05,-15.28,-5.69,30.02,-16.22,-7.46,Right Fall while Sitting,
12:47.6,487,501,751.5,664,443,1.31,763.79,2.17,20724.28,442,142,141.5,141,20022,179499,1271,0.84,-0.6,-0.05,-2.16,-0.64,-24.58,-36.03,-52.8,-15.44,-5.95,27.64,-16.26,-7.83,Right Fall while Sitting,
12:47.7,489,501,751.5,664,443,1.31,763.79,2.17,20724.29,442,143,141.4,141,19993,0,0,0.86,-0.54,0.03,6.15,-8.93,-27.85,-32.63,-56.32,-14.76,-7.06,24.9,-15.48,-9.03,Right Fall while Sitting,
12:47.8,480,500,750,664,443,1.31,763.79,2.17,20724.29,442,141,141.4,141,19993,19881,141,0.88,-0.52,-0.02,7.57,-0.95,-33.84,-30.85,-58.12,-13.95,-7.35,21.6,-14.62,-9.38,Right Fall while Sitting,
12:47.9,479,500,750,664,443,1.31,763.79,2.17,20724.29,442,140,141.4,141,19993,39481,281,0.93,-0.49,0.01,4.88,-9.3,-30.06,-28.17,-60.81,-13.4,-8.49,18.64,-13.99,-10.58,Right Fall while Sitting,
12:48.0,469,499,748.5,664,442,1.31,760.76,2.16,20724.29,442,141,141.4,141,19993,59362,422,0.9,-0.45,-0.01,8.98,-0.56,-34.15,-27.05,-61.95,-12.44,-8.75,15.27,-13.02,-10.88,Right Fall while Sitting,
12:48.1,478,499,748.5,664,442,1.31,760.76,2.16,20724.29,442,141,141.4,141,19993,79243,563,0.96,-0.36,-0.02,16.28,7.44,-34.27,-21.24,-67.74,-10.73,-8.2,11.89,-11.15,-10.58,Right Fall while Sitting,
12:48.2,501,499,748.5,664,443,1.31,763.79,2.17,20724.29,442,141,141.4,141,19993,99124,704,0.94,-0.33,-0.01,5.35,-13.97,-28.79,-20.16,-68.83,-10.14,-9.8,9.09,-10.54,-12.16,Right Fall while Sitting,
12:48.3,462,499,748.5,664,443,1.31,763.79,2.17,20724.29,442,144,141.4,141,19993,119860,848,0.98,-0.26,-0.06,-1.76,-8.48,-24.28,-15.55,-73.09,-10.27,-10.87,6.7,-10.48,-13.36,Right Fall while Sitting,
12:48.4,453,498,747,664,443,1.31,763.79,2.17,20724.29,442,140,141.4,141,19993,139460,988,1.01,-0.25,-0.03,-2.45,-1.21,-25.24,-14.4,-74.52,-10.46,-11.19,4.23,-10.61,-13.73,Right Fall while Sitting,
12:48.6,437,497,745.5,664,442,1.31,760.76,2.16,20724.29,442,144,141.4,141,19993,160196,1132,1,-0.19,-0.04,6.47,1.27,-26.8,-11.56,-77.25,-9.74,-11.27,1.57,-9.81,-13.91,Right Fall while Sitting,
12:48.7,440,496,744,664,443,1.31,763.79,2.17,20724.29,442,140,141.4,141,19993,179796,1272,0.99,-0.12,-0.06,5.8,-4.03,-19.89,-7.25,-80.88,-9.1,-11.88,-0.36,-9.02,-14.64,Right Fall while Sitting,
12:48.8,550,497,745.5,664,442,1.31,760.76,2.16,20724.29,442,141,141.3,141,19966,0,0,1.11,-0.12,-0.16,1.27,21.3,-34.98,-6.68,-78.36,-8.92,-9.97,-3.74,-8.83,-12.7,Right Fall while Sitting,
12:51.7,783,783,1174.5,783,442,1.31,760.76,2.16,0,0,141,0,0,0,40045,283,1.01,-0.09,0,-1.26,0.22,0.26,-5.93,-83.07,-0.53,-0.95,-0.01,-0.75,-4.24,Forward Fall while Sitting,
12:51.8,488,635,952.5,783,441,1.32,757.73,2.16,0,0,140,0,0,0,59645,423,1.02,-0.1,0.03,0.73,5.15,-1.17,-5.96,-82.85,-0.41,-0.64,-0.05,-0.63,-3.93,Forward Fall while Sitting,
12:51.9,504,591,886.5,783,441,1.32,757.73,2.16,0,0,140,0,0,0,79245,563,1.01,-0.1,0,0.28,-1.34,0.23,-6.1,-82.9,-0.33,-0.97,0.05,-0.56,-4.25,Forward Fall while Sitting,
12:52.0,517,573,859.5,783,442,1.31,760.76,2.16,0,0,140,0,0,0,98845,703,0.99,-0.11,0.01,0.89,-0.02,1.09,-7.02,-81.97,-0.18,-1.17,0.24,-0.46,-4.4,Forward Fall while Sitting,
12:52.1,500,558,837,783,442,1.31,760.76,2.16,0,0,140,0,0,0,118445,843,0.99,-0.12,0.01,-2.22,-8.19,3.6,-7.39,-81.58,-0.35,-2.17,0.67,-0.63,-5.34,Forward Fall while Sitting,
12:52.2,500,548,822,783,441,1.32,757.73,2.16,0,0,140,0,0,0,138045,983,0.99,-0.12,0,-4.08,-13.66,2.82,-7.53,-81.47,-0.69,-3.68,1.02,-0.96,-6.8,Forward Fall while Sitting,
12:52.3,494,540,810,783,441,1.32,757.73,2.16,0,0,140,0,0,0,157645,1123,1.06,-0.1,-0.05,-11.15,-20.83,5.63,-6.22,-82.13,-1.73,-5.92,1.65,-1.91,-8.97,Forward Fall while Sitting,
12:52.4,487,534,801,783,441,1.32,757.73,2.16,0,0,140,0,0,0,177245,1263,0.98,-0.14,-0.12,-17.37,-40.53,3.26,-8.69,-77.66,-3.39,-10.13,2.05,-3.6,-12.83,Forward Fall while Sitting,
12:52.5,478,527,790.5,783,441,1.32,757.73,2.16,20724.26,441,142,140.5,140,19739,0,0,1.03,-0.13,-0.14,-15.12,-37.41,-2.37,-7.58,-78.03,-4.83,-14.03,1.89,-4.94,-16.59,Forward Fall while Sitting,
12:52.6,483,523,784.5,783,442,1.31,760.76,2.16,20724.26,441,142,140.5,140,19739,20164,142,1.04,-0.11,-0.24,-22.69,-52.08,0.92,-6.4,-74.13,-7.05,-19.44,2.06,-7.02,-21.63,Forward Fall while Sitting,
12:52.7,527,523,784.5,783,442,1.31,760.76,2.16,20724.26,441,143,140.5,140,19739,40613,285,0.98,-0.11,-0.35,-18.85,-44.47,-1.14,-6.54,-68.07,-8.91,-24.18,2.03,-8.82,-25.94,Forward Fall while Sitting,
12:52.8,504,522,783,783,443,1.31,763.79,2.17,20724.26,441,142,140.5,140,19739,60777,427,0.97,-0.1,-0.39,-7.82,-20.43,-6.08,-6.22,-65.77,-9.64,-26.42,1.5,-9.5,-28,Forward Fall while Sitting,
12:52.9,502,520,780,783,443,1.31,763.79,2.17,20724.26,441,147,140.5,140,19739,82386,574,0.93,-0.12,-0.48,-2.19,-21.29,-5.88,-6.96,-60.45,-9.8,-28.75,0.99,-9.69,-30.02,Forward Fall while Sitting,
12:53.0,571,524,786,783,443,1.31,763.79,2.17,20724.26,441,147,140.5,140,19739,103995,721,0.94,-0.08,-0.54,-5.81,-40.21,-6.13,-4.92,-58.05,-10.34,-33.06,0.44,-10.12,-34.06,Forward Fall while Sitting,
12:53.1,543,525,787.5,783,443,1.31,763.79,2.17,20724.26,441,145,140.5,140,19739,125020,866,0.91,-0.08,-0.57,-14.79,-53.11,-0.64,-5.07,-55.82,-11.76,-38.57,0.46,-11.49,-39.26,Forward Fall while Sitting,
12:53.2,485,522,783,783,443,1.31,763.79,2.17,20724.26,441,140,140.5,140,19739,144620,1006,0.95,-0.1,-0.7,-24.1,-55.5,4.43,-5.27,-51.78,-14.16,-44.43,0.99,-13.81,-44.73,Forward Fall while Sitting,
12:53.3,523,522,783,783,443,1.31,763.79,2.17,20724.26,441,151,140.5,140,19739,167421,1157,0.77,-0.1,-0.7,-13.59,-34.75,5.43,-6.03,-45.9,-15.49,-48.18,1.63,-15.11,-48.09,Forward Fall while Sitting,
12:53.4,543,524,786,783,443,1.31,763.79,2.17,20724.26,441,146,140.5,140,19739,188737,1303,0.76,-0.07,-0.79,-6.69,-40.31,6.5,-4.38,-42.26,-16.1,-52.41,2.35,-15.63,-52.01,Forward Fall while Sitting,
12:53.5,516,523,784.5,783,444,1.3,766.84,2.17,20724.29,442,147,145.03,145,21033,0,0,0.7,-0.06,-0.86,-2.83,-31.98,5.32,-3.43,-37.38,-16.33,-55.85,2.97,-15.82,-55.11,Forward Fall while Sitting,
12:53.6,517,523,784.5,783,443,1.31,763.79,2.17,20724.29,442,143,145.03,145,21033,20449,143,0.72,0,-0.85,-15.75,-40.44,5.49,-0.45,-38.78,-17.85,-60.09,3.6,-17.15,-59.24,Forward Fall while Sitting,
12:53.7,531,523,784.5,783,444,1.3,766.84,2.17,20724.29,442,144,145.03,145,21033,41185,287,0.62,-0.04,-0.9,-19.03,-24.59,3.09,-2.88,-33.11,-19.72,-62.77,3.99,-19.04,-61.59,Forward Fall while Sitting,
12:53.8,720,532,798,783,444,1.3,766.84,2.17,20724.29,442,149,145.03,145,21033,63386,436,0.61,-0.04,-0.95,-12.36,-20.89,2.5,-2.72,-30.97,-20.91,-65.09,4.32,-20.18,-63.72,Forward Fall while Sitting,
12:53.9,504,531,796.5,783,443,1.31,763.79,2.17,20724.29,442,152,145.03,145,21033,86490,588,0.57,-0.03,-0.97,3.44,-22.02,5.05,-2.13,-28.76,-20.5,-67.51,4.91,-19.77,-65.96,Forward Fall while Sitting,
12:54.0,539,531,796.5,783,444,1.3,766.84,2.17,20724.29,442,154,145.03,145,21033,110206,742,0.54,-0.05,-0.96,-3.85,-9.5,-6.06,-3.2,-27.7,-20.83,-68.66,4.39,-20.13,-67.02,Forward Fall while Sitting,
12:54.1,510,530,795,783,443,1.31,763.79,2.17,20724.29,442,150,145.03,145,21033,132706,892,0.55,-0.07,-1,-15.42,-22.38,0.34,-3.86,-27,-22.35,-71.15,4.5,-21.61,-69.38,Forward Fall while Sitting,
12:54.2,512,530,795,783,443,1.31,763.79,2.17,20724.29,442,154,145.03,145,21033,156422,1046,0.48,-0.06,-0.98,-5.35,-2.92,0.67,-3.95,-24.46,-22.83,-71.65,4.65,-22.08,-69.76,Forward Fall while Sitting,
12:54.3,501,528,792,783,444,1.3,766.84,2.17,20724.29,442,151,145.03,145,21033,179223,1197,0.48,-0.04,-0.96,-8.83,-6.97,0.54,-2.78,-24.73,-23.68,-72.56,4.79,-22.84,-70.65,Forward Fall while Sitting,
12:54.4,486,527,790.5,783,443,1.31,763.79,2.17,20724.29,442,151,145.03,145,21033,202024,1348,0.42,-0.07,-0.99,-4.4,-1.92,-1.96,-4.35,-21.31,-24.06,-72.95,4.67,-23.27,-70.89,Forward Fall while Sitting,
12:54.5,462,525,787.5,783,443,1.31,763.79,2.17,20724.3,443,147,149.54,149,22362,0,0,0.44,-0.04,-0.99,-3.56,-14.4,5.01,-2.83,-22.22,-24.36,-74.59,5.25,-23.5,-72.5,Forward Fall while Sitting,
12:54.6,487,523,784.5,783,443,1.31,763.79,2.17,20724.3,443,147,149.54,149,22362,21609,147,0.45,-0.01,-0.99,-4.09,-6.33,0.83,-1.26,-22.96,-24.72,-75.43,5.41,-23.78,-73.34,Forward Fall while Sitting,
12:54.7,518,523,784.5,783,443,1.31,763.79,2.17,20724.3,443,148,149.54,149,22362,43513,295,0.43,-0.03,-0.98,-8.17,-1.02,-1.52,-2.38,-22.11,-25.48,-75.74,5.34,-24.55,-73.59,Forward Fall while Sitting,
12:54.8,504,523,784.5,783,444,1.3,766.84,2.17,20724.3,443,148,149.54,149,22362,65417,443,0.46,0.01,-1.01,-7.91,3.55,-3.53,0.13,-22.92,-26.22,-75.58,5.06,-25.17,-73.47,Forward Fall while Sitting,
12:54.9,532,523,784.5,783,443,1.31,763.79,2.17,20724.3,443,156,149.54,149,22362,89753,599,0.41,-0.03,-1,-2.59,-0.83,1.45,-2.05,-20.48,-26.43,-75.87,5.29,-25.45,-73.65,Forward Fall while Sitting,
12:55.0,514,523,784.5,783,444,1.3,766.84,2.17,20724.3,443,161,149.54,149,22362,115674,760,0.44,-0.03,-1.01,-0.73,8.94,-3.44,-2.15,-21.85,-26.44,-75.17,5.02,-25.47,-73.04,Forward Fall while Sitting,
12:55.1,543,523,784.5,783,443,1.31,763.79,2.17,20724.3,443,161,149.54,149,22362,141595,921,0.44,0,-1,-2.89,-2.11,1.44,-0.7,-22.32,-26.68,-75.59,5.25,-25.64,-73.46,Forward Fall while Sitting,
12:55.2,493,522,783,783,443,1.31,763.79,2.17,20724.3,443,160,149.54,149,22362,167195,1081,0.43,-0.01,-1,-3.96,7.06,-1.03,-1.09,-21.52,-27.02,-75.08,5.23,-25.98,-72.93,Forward Fall while Sitting,
12:55.3,480,521,781.5,783,444,1.3,766.84,2.17,20724.3,443,161,149.54,149,22362,193116,1242,0.47,0,-0.99,-2.27,5.09,-4.28,-0.67,-23.91,-27.19,-74.76,4.87,-26.13,-72.73,Forward Fall while Sitting,
12:55.4,495,520,780,783,443,1.31,763.79,2.17,20724.3,443,162,149.54,149,22362,219360,1404,0.44,-0.02,-1,-1.81,4.27,0.23,-1.66,-22.41,-27.32,-74.53,4.98,-26.29,-72.45,Forward Fall while Sitting,
12:55.5,540,521,781.5,783,443,1.31,763.79,2.17,20724.3,443,163,156.82,156,24591,0,0,0.45,-0.02,-0.98,0.1,10.76,-1.03,-1.78,-23.07,-27.25,-73.66,4.95,-26.23,-71.63,Forward Fall while Sitting,
12:55.6,488,520,780,783,443,1.31,763.79,2.17,20724.3,443,164,156.82,156,24591,26896,164,0.49,-0.02,-0.95,0.85,19.79,-0.55,-1.55,-25.49,-27.11,-71.88,4.98,-26.09,-70.02,Forward Fall while Sitting,
12:55.7,491,519,778.5,783,444,1.3,766.84,2.17,20724.3,443,164,156.82,156,24591,53792,328,0.51,-0.03,-0.97,1.35,14.98,-0.21,-2.26,-26.06,-26.92,-70.57,5.03,-25.93,-68.79,Forward Fall while Sitting,
12:55.8,478,518,777,783,443,1.31,763.79,2.17,20724.3,443,163,156.82,156,24591,80361,491,0.57,-0.02,-0.94,3.34,25.15,-1.66,-1.39,-29.84,-26.53,-68.25,4.95,-25.52,-66.72,Forward Fall while Sitting,
12:55.9,500,518,777,783,443,1.31,763.79,2.17,20724.3,443,164,156.82,156,24591,107257,655,0.56,-0.03,-0.93,-0.96,18.24,-0.43,-2.19,-29.5,-26.57,-66.61,4.98,-25.59,-65.13,Forward Fall while Sitting,
12:56.0,456,517,775.5,783,444,1.3,766.84,2.17,20724.3,443,162,156.82,156,24591,133501,817,0.6,-0.01,-0.91,-5.62,10.43,-3.4,-1.11,-31.87,-27.09,-65.75,4.72,-26.05,-64.4,Forward Fall while Sitting,
12:56.1,452,515,772.5,783,443,1.31,763.79,2.17,20724.3,443,159,156.82,156,24591,158782,976,0.61,-0.01,-0.87,-2.85,7.47,-3.94,-1.12,-33.53,-27.31,-65.21,4.4,-26.27,-63.94,Forward Fall while Sitting,
12:56.2,478,514,771,783,443,1.31,763.79,2.17,20724.3,443,162,156.82,156,24591,185026,1138,0.64,0,-0.88,-5.77,10.97,-5.77,-0.64,-34.37,-27.84,-64.3,3.9,-26.75,-63.1,Forward Fall while Sitting,
12:56.3,530,515,772.5,783,444,1.3,766.84,2.17,20724.3,443,163,156.82,156,24591,211595,1301,0.63,-0.02,-0.9,-0.44,12.74,-0.69,-1.55,-33.36,-27.83,-63.21,3.91,-26.78,-62.01,Forward Fall while Sitting,
12:56.4,490,514,771,783,443,1.31,763.79,2.17,20724.3,443,162,156.82,156,24591,237839,1463,0.63,-0.03,-0.92,-0.4,11.58,-0.92,-2.03,-32.75,-27.81,-62.25,3.9,-26.78,-61.07,Forward Fall while Sitting,
12:56.5,500,514,771,783,443,1.31,763.79,2.17,20724.3,443,164,162.71,162,26472,0,0,0.69,-0.02,-0.85,2.11,20.48,-4.09,-1.48,-37.38,-27.55,-60.4,3.57,-26.5,-59.48,Forward Fall while Sitting,
12:56.6,493,513,769.5,783,443,1.31,763.79,2.17,20724.3,443,162,162.71,162,26472,26244,162,0.75,-0.07,-0.95,-2.11,8.93,4.51,-3.71,-36.73,-27.7,-59.7,4.1,-26.74,-58.78,Forward Fall while Sitting,
12:56.7,474,513,769.5,783,443,1.31,763.79,2.17,20724.3,443,157,162.71,162,26472,50893,319,0.68,-0.05,-0.84,-0.93,18.92,5.07,-3.16,-37.34,-27.74,-58.01,4.69,-26.76,-57.18,Forward Fall while Sitting,
12:56.8,488,512,768,783,443,1.31,763.79,2.17,20724.3,443,160,162.71,162,26472,76493,479,0.71,-0.06,-0.81,6.02,29.69,-2.06,-3.56,-39.67,-27.08,-55.24,4.56,-26.14,-54.61,Forward Fall while Sitting,
12:56.9,448,511,766.5,783,443,1.31,763.79,2.17,20724.3,443,160,162.71,162,26472,102093,639,0.79,-0.05,-0.78,8.43,29.43,-0.33,-3.07,-43.65,-26.17,-52.44,4.61,-25.24,-52.09,Forward Fall while Sitting,
12:57.0,424,509,763.5,783,444,1.3,766.84,2.17,20724.3,443,158,162.71,162,26472,127057,797,0.8,-0.06,-0.68,9.06,42.45,-1.24,-3.83,-48.28,-25.2,-48.4,4.56,-24.35,-48.39,Forward Fall while Sitting,
12:57.1,431,508,762,783,443,1.31,763.79,2.17,20724.3,443,151,162.71,162,26472,149858,948,0.81,-0.08,-0.54,3.98,41.9,0.51,-5.08,-54.48,-24.74,-44.33,4.69,-23.95,-44.73,Forward Fall while Sitting,
12:57.2,431,506,759,783,443,1.31,763.79,2.17,20724.3,443,152,162.71,162,26472,172962,1100,0.91,-0.06,-0.48,8.85,54.37,-2.11,-3.92,-60.61,-23.8,-39.09,4.56,-23,-39.95,Forward Fall while Sitting,
12:57.3,394,504,756,783,443,1.31,763.79,2.17,20724.3,443,147,162.71,162,26472,194571,1247,0.95,-0.08,-0.45,3.27,47.31,-2.7,-4.96,-62.55,-23.41,-34.51,4.37,-22.67,-35.63,Forward Fall while Sitting,
12:57.4,418,503,754.5,783,443,1.31,763.79,2.17,20724.3,443,147,162.71,162,26472,216180,1394,0.99,-0.1,-0.38,7.44,47.21,-5.14,-6,-66.51,-22.61,-29.95,3.93,-21.94,-31.41,Forward Fall while Sitting,
12:57.5,409,501,751.5,783,443,1.31,763.79,2.17,20724.3,443,148,154.3,154,23807,0,0,0.97,-0.1,-0.33,0.53,41.49,-6.25,-5.95,-69.15,-22.5,-26,3.38,-21.83,-27.72,Forward Fall while Sitting,
12:57.6,438,500,750,783,443,1.31,763.79,2.17,20724.3,443,149,154.3,154,23807,22201,149,1.03,-0.07,-0.34,3.33,48.93,-7.44,-4.17,-69.89,-22.11,-21.3,2.72,-21.39,-23.25,Forward Fall while Sitting,
12:57.7,448,499,748.5,783,443,1.31,763.79,2.17,20724.3,443,145,154.3,154,23807,43226,294,1.01,-0.09,-0.2,8.65,40.44,-1.7,-5.33,-76.47,-21.18,-17.42,2.63,-20.54,-19.78,Forward Fall while Sitting,
12:57.8,484,499,748.5,783,442,1.31,760.76,2.16,20724.3,443,144,154.3,154,23807,63962,438,1.01,-0.07,-0.15,5.82,30.59,-1.11,-4.72,-79.23,-20.53,-14.53,2.6,-19.9,-17.12,Forward Fall while Sitting,
12:57.9,689,502,753,783,442,1.31,760.76,2.16,20724.3,443,143,154.3,154,23807,84411,581,0.97,-0.08,-0.15,2.74,6.62,-2.12,-5.35,-78.42,-20.2,-14.07,2.46,-19.61,-16.65,Forward Fall while Sitting,
12:58.0,539,503,754.5,783,441,1.32,757.73,2.16,20724.3,443,147,154.3,154,23807,106020,728,1.01,-0.07,-0.07,9.2,28.11,-4.64,-4.29,-82.83,-19.22,-11.43,2.07,-18.62,-14.29,Forward Fall while Sitting,
12:58.1,602,504,756,783,442,1.31,760.76,2.16,20724.3,443,148,154.3,154,23807,127924,876,0.98,-0.07,-0.06,6.59,18.91,-1.56,-4.7,-83.18,-18.49,-9.73,2,-17.94,-12.67,Forward Fall while Sitting,
12:58.2,610,506,759,783,442,1.31,760.76,2.16,20724.3,443,144,154.3,154,23807,148660,1020,1.05,-0.06,0.01,6.81,22.76,-3.45,-3.97,-85,-17.75,-7.63,1.73,-17.2,-10.72,Forward Fall while Sitting,
12:58.3,649,508,762,783,442,1.31,760.76,2.16,20724.3,443,147,154.3,154,23807,170269,1167,1.05,-0.04,0.01,3.64,23.02,-8.46,-2.83,-86.03,-17.33,-5.53,0.96,-16.75,-8.75,Forward Fall while Sitting,
12:58.4,646,510,765,783,443,1.31,763.79,2.17,20724.3,443,144,154.3,154,23807,191005,1311,1.02,-0.04,0.04,2.54,6.66,-1.14,-2.55,-85.58,-17.02,-5.06,0.93,-16.44,-8.28,Forward Fall while Sitting,
12:58.5,661,512,768,783,442,1.31,760.76,2.16,20724.28,442,148,145.91,145,21289,0,0,1,-0.06,0.09,-1.18,-0.3,-0.75,-3.94,-82.16,-17.08,-5.29,0.93,-16.56,-8.37,Forward Fall while Sitting,
13:08.6,503,503,754.5,503,443,1.31,763.79,2.17,0,0,141,0,0,0,40330,284,1.01,0.03,-0.02,-4.93,3.73,-1.37,1.2,-86.33,-0.97,0.59,0.07,-0.89,-2.89,Walking,
13:08.7,504,503,754.5,504,443,1.31,763.79,2.17,0,0,141,0,0,0,60211,425,1,0.03,-0.02,-1.7,-2.19,-2.14,1.03,-86.36,-1.08,0.18,-0.06,-1,-3.28,Walking,
13:08.8,536,514,771,536,444,1.3,766.84,2.17,0,0,141,0,0,0,80092,566,1,0.03,-0.02,1.64,-3.43,-1.92,1.11,-86.43,-0.87,-0.35,-0.17,-0.79,-3.79,Walking,
13:08.9,470,503,754.5,536,443,1.31,763.79,2.17,0,0,142,0,0,0,100256,708,0.98,0.01,0.01,0.4,0.47,-2.73,0.06,-87.69,-0.78,-0.49,-0.36,-0.74,-3.98,Walking,
13:09.0,469,496,744,536,443,1.31,763.79,2.17,0,0,141,0,0,0,120137,849,1.06,0.05,0.04,-1.72,5.04,-8.6,1.93,-85.14,-0.89,-0.2,-1.13,-0.78,-3.59,Walking,
13:09.1,494,496,744,536,443,1.31,763.79,2.17,0,0,141,0,0,0,140018,990,1.04,0.07,-0.02,-2.62,6.58,0.78,3.51,-84.23,-1.09,0.25,-0.97,-0.9,-3.13,Walking,
13:09.2,544,502,753,544,443,1.31,763.79,2.17,0,0,142,0,0,0,160182,1132,1.03,0.07,-0.04,-13.56,1.76,-5.07,3.29,-83.83,-2.35,0.23,-1.39,-2.12,-3.14,Walking,
13:09.2,509,503,754.5,544,444,1.3,766.84,2.17,0,0,141,0,0,0,180063,1273,1.01,0.06,-0.06,-2.53,-2.3,1.06,2.81,-83.48,-2.54,-0.2,-1.21,-2.33,-3.53,Walking,
13:09.3,496,502,753,544,443,1.31,763.79,2.17,20724.3,443,140,141.3,141,19965,0,0,0.99,0.04,-0.06,4.32,2.45,0.18,1.78,-84.43,-2.07,-0.16,-1.11,-1.91,-3.53,Walking,
13:09.4,480,500,750,544,443,1.31,763.79,2.17,20724.3,443,143,141.3,141,19965,20449,143,0.99,0.03,0,7.05,0.02,-3.39,1.22,-86.6,-1.31,-0.35,-1.37,-1.21,-3.8,Walking,
13:09.5,487,499,748.5,544,443,1.31,763.79,2.17,20724.3,443,140,141.3,141,19965,40049,283,1.02,0.03,0.03,3.98,-0.79,-1.39,1.08,-85.91,-0.85,-0.63,-1.43,-0.78,-4.05,Walking,
