Datetime, ECGRaw , AvgECG , ampECG , MAX , GSRRaw , Resistance , GSR(kohm) , SCL , GSRRMS , GSRMAV , EMGRaw , EMGRMS , EMGMAV , EMGVAR , EMGSSI , IEMG , AccX , AccY, AccZ , GyroX , GyroY , GyroZ , Aroll , Apitch , Groll , Gpitch, Gyaw , Combroll , Combpitch,Features
01:37.0,484,357,535.5,730,264,2.88,347.83,1.29,32.16,258,206,20723.74,205,429473376,4294806424,1444,1,-0.16,0.04,-1.53,0.65,-0.97,-9.63,-79.14,-5.71,-1.12,-1.63,-5.86,-4.25,Standing
01:37.1,355,357,535.5,730,262,2.9,344.28,1.28,32.16,258,207,20723.74,205,429473376,4294783737,1651,1,-0.16,0.03,-1.35,-0.53,0.01,-9.84,-79.01,-5.79,-1.38,-1.55,-5.95,-4.49,Standing
01:37.2,486,362,543,730,261,2.92,342.52,1.28,32.16,258,205,20723.74,205,429473376,4294760226,1856,1.01,-0.16,0.04,-1.19,0.73,-0.31,-9.83,-78.96,-5.85,-1.51,-1.5,-6.01,-4.61,Standing
01:37.3,553,368,552,730,259,2.95,339.01,1.27,59.41,262,204,20723.75,206,429473632,0,0,1.01,-0.16,0.03,-2.53,0.86,-1.84,-9.54,-79.3,-6.05,-1.62,-1.61,-6.19,-4.73,Standing
01:37.4,532,374,561,730,257,2.98,335.51,1.26,59.41,262,204,20723.75,206,429473632,4294943376,204,1,-0.16,0.03,-2.52,2.02,-2.63,-9.49,-79.38,-6.24,-1.62,-1.8,-6.37,-4.73,Standing
01:37.5,539,379,568.5,730,255,3.01,332.03,1.25,59.41,262,204,20723.75,206,429473632,4294919456,408,0.99,-0.15,0.04,-1.72,2.04,-0.28,-9.31,-79.36,-6.36,-1.62,-1.74,-6.48,-4.73,Standing
01:37.6,584,385,577.5,730,253,3.04,328.57,1.24,59.41,262,203,20723.75,206,429473632,4294895129,611,1.02,-0.17,0.04,-2.06,-0.52,1.15,-9.98,-78.72,-6.51,-1.87,-1.55,-6.65,-4.95,Standing
01:37.7,512,389,583.5,730,251,3.08,325.13,1.23,59.41,262,203,20723.75,206,429473632,4294870802,814,1.01,-0.17,0.02,-1.77,0.15,-2.36,-10.02,-78.88,-6.64,-2.06,-1.7,-6.77,-5.13,Standing
01:37.8,472,392,588,730,250,3.09,323.42,1.22,59.41,262,204,20723.75,206,429473632,4294846882,1018,1,-0.16,0.03,-1.51,0.82,-2.11,-9.67,-79.18,-6.73,-2.18,-1.84,-6.85,-5.26,Standing
01:37.9,436,393,589.5,730,250,3.09,323.42,1.22,59.41,262,204,20723.75,206,429473632,4294822962,1222,1,-0.16,0.04,-2.66,2.66,-0.03,-9.74,-79.02,-6.95,-2.11,-1.76,-7.06,-5.19,Standing
01:38.0,454,395,592.5,730,248,3.13,320,1.21,59.41,262,205,20723.75,206,429473632,4294799451,1427,1.01,-0.16,0.04,-1.6,2.92,-0.41,-9.6,-79.06,-7.05,-2.02,-1.72,-7.15,-5.1,Standing
01:38.1,404,395,592.5,730,248,3.13,320,1.21,59.41,262,204,20723.75,206,429473632,4294775531,1631,1.01,-0.16,0.04,-2.21,-2.02,-1.26,-9.66,-79.11,-7.22,-2.43,-1.77,-7.32,-5.5,Standing
01:38.2,343,393,589.5,730,248,3.13,320,1.21,59.41,262,203,20723.75,206,429473632,4294751204,1834,1.01,-0.16,0.03,-0.28,2.11,-1,-9.7,-79.12,-7.19,-2.42,-1.79,-7.29,-5.49,Standing
01:38.3,351,392,588,730,248,3.13,320,1.21,20724.24,250,204,20723.73,203,429472736,0,0,1.01,-0.16,0.03,-3.87,-2.53,0.61,-9.54,-79.31,-7.52,-2.87,-1.65,-7.6,-5.93,Standing
01:38.4,428,393,589.5,730,249,3.11,321.71,1.22,20724.24,250,203,20723.73,203,429472736,4294942969,203,1.01,-0.18,0.03,-0.94,4.03,-1.66,-10.69,-78.17,-7.56,-2.66,-1.74,-7.69,-5.68,Standing
01:38.5,182,388,582,730,249,3.11,321.71,1.22,20724.24,250,203,20723.73,203,429472736,4294918642,406,1.01,-0.16,0.03,-2.14,-0.7,-2.92,-9.67,-79.13,-7.72,-2.94,-1.96,-7.8,-5.99,Standing
01:38.7,112,381,571.5,730,250,3.09,323.42,1.22,20724.24,250,203,20723.73,203,429472736,4294894315,609,1,-0.15,0.03,-2.34,0.68,-0.69,-9.17,-79.65,-7.91,-3.07,-1.95,-7.96,-6.14,Standing
01:38.7,148,376,564,730,250,3.09,323.42,1.22,20724.24,250,203,20723.73,203,429472736,4294869988,812,1.02,-0.16,0.02,-2.42,1.28,0.46,-9.54,-79.38,-8.1,-3.15,-1.82,-8.15,-6.2,Standing
01:38.8,294,374,561,730,252,3.06,326.85,1.23,20724.24,250,203,20723.73,203,429472736,4294845661,1015,1.02,-0.17,0.03,-2.47,1.79,-4.53,-10.17,-78.65,-8.29,-3.17,-2.2,-8.36,-6.19,Standing
01:38.9,460,376,564,730,253,3.04,328.57,1.24,20724.24,250,204,20723.73,203,429472736,4294821741,1219,0.99,-0.15,0.03,-3.44,2.63,-4.5,-9.33,-79.49,-8.58,-3.1,-2.58,-8.61,-6.16,Standing
01:39.0,519,379,568.5,730,254,3.03,330.3,1.24,20724.24,250,204,20723.73,203,429472736,4294797821,1423,1,-0.15,0.02,-4.46,2.76,-1.44,-9.09,-79.82,-8.98,-3.03,-2.64,-8.99,-6.1,Standing
01:39.1,556,383,574.5,730,255,3.01,332.03,1.25,20724.24,250,204,20723.73,203,429472736,4294773901,1627,1.02,-0.16,0.05,-3.21,6.14,-2.27,-9.72,-78.93,-9.25,-2.61,-2.79,-9.27,-5.66,Standing
01:39.2,601,387,580.5,730,256,3,333.77,1.25,20724.24,250,205,20723.73,203,429472736,4294750390,1832,1.04,-0.16,0.07,-4.7,3.88,-7.9,-9.5,-78.62,-9.68,-2.41,-3.53,-9.67,-5.46,Standing
01:39.3,664,393,589.5,730,256,3,333.77,1.25,20724.26,252,205,20723.72,203,429472672,0,0,0.99,-0.13,0.05,-3.68,0.66,-9.39,-8.34,-80.09,-9.98,-2.55,-4.38,-9.92,-5.65,Standing
01:39.4,682,399,598.5,730,257,2.98,335.51,1.26,20724.26,252,205,20723.72,203,429472672,4294943785,205,1.01,-0.11,0.03,-8.56,-8.88,-4.89,-7.05,-81.66,-10.81,-3.67,-4.8,-10.66,-6.79,Standing
01:39.5,647,404,606,730,258,2.97,337.25,1.26,20724.26,252,206,20723.72,203,429472672,4294920685,411,1.02,-0.12,0.06,-3.77,-5.11,-4.31,-7.47,-80.75,-11.14,-4.39,-5.16,-10.99,-7.45,Standing
01:39.6,606,408,612,730,259,2.95,339.01,1.27,20724.26,252,205,20723.72,203,429472672,4294897174,616,1.01,-0.11,-0.01,-0.03,4.36,-4.27,-7.07,-81.92,-11.08,-4.15,-5.51,-10.92,-7.26,Standing
01:39.7,561,410,615,730,259,2.95,339.01,1.27,20724.26,252,205,20723.72,203,429472672,4294873663,821,1.02,-0.12,0,-7.89,-2.99,-1.34,-7.22,-81.78,-11.84,-4.67,-5.57,-11.65,-7.75,Standing
01:39.8,508,412,618,730,260,2.93,340.76,1.27,20724.26,252,205,20723.72,203,429472672,4294850152,1026,1.02,-0.12,0.01,-3.82,6.82,-5.83,-7.29,-81.67,-12.17,-4.18,-6.08,-11.98,-7.28,Standing
01:39.9,577,415,622.5,730,261,2.92,342.52,1.28,20724.26,252,206,20723.72,203,429472672,4294827052,1232,1.02,-0.1,0.03,-5.62,3.45,-5.01,-6.41,-82.31,-12.69,-4.03,-6.52,-12.44,-7.16,Standing
01:40.0,606,419,628.5,730,261,2.92,342.52,1.28,20724.26,252,206,20723.72,203,429472672,4294803952,1438,1.03,-0.09,0.05,-5.61,1.05,-5.34,-5.8,-82.45,-13.21,-4.12,-6.98,-12.91,-7.26,Standing
01:40.1,545,421,631.5,730,262,2.9,344.28,1.28,20724.26,252,205,20723.72,203,429472672,4294780441,1643,1.02,-0.09,0.03,-2.02,2.05,-8.75,-5.78,-82.86,-13.36,-4.12,-7.79,-13.05,-7.27,Standing
01:40.2,525,423,634.5,730,262,2.9,344.28,1.28,20724.26,252,206,20723.72,203,429472672,4294757341,1849,0.96,-0.07,0.05,-3.75,-3.57,-9.41,-4.48,-83.54,-13.68,-4.69,-8.67,-13.31,-7.84,Standing
01:40.3,502,424,636,730,262,2.9,344.28,1.28,46.02,260,205,20723.74,205,429473376,0,0,0.95,-0.02,-0.11,0.57,-29.18,-2.63,-1.85,-81.87,-13.57,-7.8,-8.86,-13.1,-10.77,Standing
01:40.4,465,425,637.5,730,260,2.93,340.76,1.27,46.02,260,181,20723.74,205,429473376,32761,181,1.11,-0.13,0.23,1.21,12.02,-5.16,-7.13,-75.19,-13.39,-6.78,-9.3,-13.14,-9.52,Standing
01:40.5,846,432,648,846,258,2.97,337.25,1.26,46.02,260,169,20723.74,205,429473376,61322,350,1.03,-0.06,0.02,6.32,20.73,-10.32,-3.95,-84.93,-12.7,-4.91,-10.26,-12.35,-8.11,Standing
01:40.6,580,434,651,846,257,2.98,335.51,1.26,46.02,260,167,20723.74,205,429473376,89211,517,1.03,-0.05,0.02,-5.27,-6.53,-6.84,-3.44,-85.37,-13.18,-5.77,-10.87,-12.79,-8.95,Standing
01:40.7,641,437,655.5,846,257,2.98,335.51,1.26,46.02,260,169,20723.74,205,429473376,117772,686,1.03,-0.03,0,-3,-7.69,-4.3,-2.21,-86.79,-13.42,-6.76,-11.23,-12.98,-9.96,Standing
01:40.8,593,440,660,846,258,2.97,337.25,1.26,46.02,260,170,20723.74,205,429473376,146672,856,1.05,-0.05,0.01,1.34,9.71,-2.29,-3.43,-85.48,-13.23,-5.98,-11.38,-12.84,-9.16,Standing
01:40.9,528,441,661.5,846,259,2.95,339.01,1.27,46.02,260,171,20723.74,205,429473376,175913,1027,1,-0.04,-0.02,-3.81,6.15,-4.4,-2.89,-85.92,-13.56,-5.56,-11.74,-13.13,-8.77,Standing
01:41.0,484,442,663,846,258,2.97,337.25,1.26,46.02,260,172,20723.74,205,429473376,205497,1199,0.98,-0.04,0.01,1.89,5.95,-6.15,-2.72,-86.24,-13.31,-5.16,-12.29,-12.89,-8.4,Standing
01:41.1,424,441,661.5,846,259,2.95,339.01,1.27,46.02,260,173,20723.74,205,429473376,235426,1372,0.94,-0.01,0.05,5.16,9.4,-0.8,-1.31,-85.06,-12.73,-4.41,-12.29,-12.28,-7.64,Standing
01:41.2,253,439,658.5,846,260,2.93,340.76,1.27,46.02,260,176,20723.74,205,429473376,266402,1548,1,-0.02,0.05,-0.4,-8.97,10.44,-1.66,-85.38,-12.72,-5.52,-11.16,-12.27,-8.71,Standing
01:41.3,307,437,655.5,846,261,2.92,342.52,1.28,37.3,258,177,172.55,172,29772,0,0,1.04,0,0.05,0.95,-15.64,2.68,-0.81,-85.65,-12.57,-7.27,-10.81,-12.1,-10.4,Standing
01:41.4,306,435,652.5,846,262,2.9,344.28,1.28,37.3,258,179,172.55,172,29772,32041,179,0.99,-0.06,0.04,10.77,-2.1,5.09,-4.29,-84.16,-11.43,-7.68,-10.22,-11.15,-10.73,Standing
01:41.5,242,432,648,846,262,2.9,344.28,1.28,37.3,258,179,172.55,172,29772,64082,358,0.97,-0.04,0.02,4.3,13.07,-3.51,-3.15,-85.65,-10.94,-6.56,-10.5,-10.63,-9.72,Standing
01:41.6,197,429,643.5,846,262,2.9,344.28,1.28,37.3,258,181,172.55,172,29772,96843,539,0.96,-0.02,-0.02,-2.84,5.56,4.25,-1.53,-86.65,-11.17,-6.2,-9.99,-10.79,-9.42,Standing
01:41.7,174,425,637.5,846,263,2.89,346.05,1.29,37.3,258,181,172.55,172,29772,129604,720,1,-0.05,0.05,-17.25,-7.82,8.64,-3.6,-84.37,-12.82,-7.17,-9.06,-12.45,-10.26,Standing
01:41.8,48,420,630,846,264,2.88,347.83,1.29,37.3,258,183,172.55,172,29772,97557,903,1.06,-0.08,0.1,-16.44,0.76,-2.36,-5.04,-81.26,-14.43,-7.3,-9.22,-14.05,-10.26,Standing
01:41.9,89,416,624,846,264,2.88,347.83,1.29,37.3,258,183,172.55,172,29772,65510,1086,1.02,-0.08,0.05,-12.94,-7.79,-5.46,-5.28,-82.92,-15.67,-8.28,-9.69,-15.25,-11.26,Standing
01:42.0,253,414,621,846,265,2.86,349.6,1.3,37.3,258,187,172.55,172,29772,34943,1273,1,-0.06,0.03,-5.22,-5.14,-6.69,-4.06,-84.44,-16.13,-8.99,-10.28,-15.65,-12.01,Standing
01:42.1,427,414,621,846,266,2.85,351.39,1.3,37.3,258,186,172.55,172,29772,4003,1459,0.94,-0.05,0.01,3.13,5.66,-7.4,-3.39,-85.49,-15.76,-8.62,-10.94,-15.26,-11.7,Standing
01:42.2,549,416,624,846,266,2.85,351.39,1.3,37.3,258,186,172.55,172,29772,4294940359,1645,0.98,-0.06,0,-0.47,1.55,5.21,-3.85,-85.14,-15.75,-8.67,-10.34,-15.27,-11.72,Standing
01:42.3,590,418,627,846,267,2.83,353.17,1.3,64.92,264,186,20724.16,183,429490944,0,0,0.99,-0.09,-0.02,1.81,-1.86,8.31,-5.67,-83.2,-15.51,-9.05,-9.43,-15.12,-12.02,Standing
01:42.4,622,420,630,846,268,2.82,354.97,1.31,64.92,264,187,20724.16,183,429490944,4294936729,187,1.01,-0.11,-0.03,2.4,-1.76,3.08,-6.65,-82.16,-15.21,-9.44,-9.04,-14.87,-12.34,Standing
01:42.5,486,421,631.5,846,267,2.83,353.17,1.3,64.92,264,185,20724.16,183,429490944,4294905418,372,1.01,-0.09,-0.03,7.95,16.24,-3.9,-5.89,-82.78,-14.34,-7.98,-9.36,-14,-10.97,Standing
01:42.6,665,424,636,846,268,2.82,354.97,1.31,64.92,264,184,20724.16,183,429490944,4294873738,556,1.01,-0.1,0,-8.1,12.65,8.28,-6.49,-82.5,-15.1,-6.91,-8.44,-14.76,-9.93,Standing
01:42.7,699,427,640.5,846,268,2.82,354.97,1.31,64.92,264,189,20724.16,183,429490944,4294843923,745,1.04,-0.14,0.07,-13.53,1.9,9.16,-8.24,-79.81,-16.44,-6.92,-7.41,-16.11,-9.83,Standing
01:42.8,613,430,645,846,269,2.8,356.76,1.31,64.92,264,191,20724.16,183,429490944,4294814868,936,1.04,-0.13,0.07,-6.76,-4.89,0.53,-7.74,-80.22,-17.07,-7.61,-7.28,-16.69,-10.52,Standing
01:42.9,533,431,646.5,846,270,2.79,358.57,1.32,64.92,264,190,20724.16,183,429490944,4294785432,1126,1.04,-0.16,0.08,-5.92,-13.06,0.54,-9.18,-78.72,-17.62,-9.16,-7.14,-17.28,-11.95,Standing
01:43.0,564,432,648,846,270,2.79,358.57,1.32,64.92,264,195,20724.16,183,429490944,4294757921,1321,1.02,-0.13,0.02,-3.67,0.88,-3.4,-7.55,-81.33,-17.93,-9.28,-7.41,-17.52,-12.16,Standing
01:43.1,538,434,651,846,270,2.79,358.57,1.32,64.92,264,193,20724.16,183,429490944,4294729634,1514,1.02,-0.15,0.07,0.35,-2.17,-8.95,-9.17,-78.96,-17.84,-9.7,-8.24,-17.49,-12.47,Standing
01:43.2,547,435,652.5,846,271,2.77,360.37,1.32,64.92,264,190,20724.16,183,429490944,4294700198,1704,1.01,-0.1,0.02,-12.64,-9.69,-2.06,-6.51,-82.38,-19.09,-10.91,-8.37,-18.58,-13.77,Standing
01:43.3,574,436,654,846,271,2.77,360.37,1.32,83.27,269,189,20723.59,189,429467040,0,0,1.02,-0.12,0,-10.94,-1.71,-4.75,-7.2,-81.8,-20.12,-11.28,-8.77,-19.61,-14.1,Standing
01:43.4,569,438,657,846,270,2.79,358.57,1.32,83.27,269,184,20723.59,189,429467040,4294935616,184,1.02,-0.08,-0.01,-7.18,13.75,-5.89,-4.9,-84.07,-20.81,-10.07,-9.29,-20.17,-13.03,Standing
01:43.6,596,440,660,846,270,2.79,358.57,1.32,83.27,269,182,20723.59,189,429467040,4294903204,366,1,-0.05,0.03,-5.49,7.57,-5.27,-3.5,-84.92,-21.31,-9.5,-9.75,-20.6,-12.52,Standing
01:43.7,576,441,661.5,846,270,2.79,358.57,1.32,83.27,269,181,20723.59,189,429467040,4294935965,547,1.01,-0.08,0.05,-8.53,-2.95,-3.99,-4.89,-83.3,-22.11,-10,-10.07,-21.42,-12.93,Standing
01:43.8,597,443,664.5,846,270,2.79,358.57,1.32,83.27,269,182,20723.59,189,429467040,4294903553,729,1.03,-0.09,0.11,2.05,8.25,-4.18,-5.61,-80.63,-21.84,-9.36,-10.42,-21.19,-12.21,Standing
01:43.9,884,447,670.5,884,271,2.77,360.37,1.32,83.27,269,183,20723.59,189,429467040,4294871506,912,1,-0.06,0.05,1.87,1.22,-2.31,-4.16,-83.66,-21.6,-9.43,-10.57,-20.9,-12.4,Standing
01:44.0,512,448,672,884,271,2.77,360.37,1.32,83.27,269,183,20723.59,189,429467040,4294839459,1095,0.99,-0.07,0.05,-4.13,-6.61,-0.24,-4.53,-83.41,-21.97,-10.32,-10.52,-21.27,-13.24,Standing
01:44.1,474,448,672,884,271,2.77,360.37,1.32,83.27,269,182,20723.59,189,429467040,4294807047,1277,1.01,-0.07,0.03,-1.38,-5.18,1.32,-4.37,-84.36,-22.05,-11.05,-10.3,-21.34,-13.99,Standing
01:44.2,461,448,672,884,271,2.77,360.37,1.32,83.27,269,181,20723.59,189,429467040,4294839808,1458,1.05,-0.07,0,-9.37,-13.66,-1.59,-4.5,-84.49,-22.95,-12.65,-10.38,-22.21,-15.52,Standing
01:44.3,412,448,672,884,271,2.77,360.37,1.32,83.27,269,182,20723.59,189,429467040,4294807396,1640,1.04,-0.07,0.02,-6.1,-1.77,-8.44,-4.69,-84.2,-23.52,-13.04,-11.17,-22.77,-15.88,Standing
01:44.4,347,447,670.5,884,272,2.76,362.18,1.33,87.99,270,183,20723.84,182,429477536,0,0,0.98,-0.05,0.01,2.4,11.15,-9.68,-3.4,-85.47,-23.22,-12.11,-12.07,-22.43,-15.05,Standing
01:44.5,277,445,667.5,884,272,2.76,362.18,1.33,87.99,270,183,20723.84,182,429477536,4294935249,183,0.97,-0.04,-0.02,-8.11,0.89,-3.49,-3.04,-85.72,-23.98,-12.23,-12.34,-23.15,-15.17,Standing
01:44.6,100,440,660,884,273,2.75,364,1.33,87.99,270,183,20723.84,182,429477536,4294903202,366,1.03,-0.06,0.02,-11.41,-7.92,5.03,-4.13,-84.61,-25.1,-13.25,-11.74,-24.26,-16.1,Standing
01:44.7,101,436,654,884,273,2.75,364,1.33,87.99,270,186,20723.84,182,429477536,4294872262,552,1.05,-0.07,0.04,0.66,0.76,1.66,-4.56,-83.94,-24.98,-13.38,-11.49,-24.16,-16.2,Standing
01:44.8,65,434,651,884,273,2.75,364,1.33,87.99,270,184,20723.84,182,429477536,4294840582,736,1.06,-0.09,0.03,4.88,4.74,-4.83,-5.63,-83.15,-24.42,-13.09,-11.91,-23.67,-15.9,Standing
01:44.9,106,433,649.5,884,273,2.75,364,1.33,87.99,270,185,20723.84,182,429477536,4294809271,921,1.04,-0.06,0.01,7.34,8.25,-8.78,-3.96,-84.96,-23.62,-12.46,-12.71,-22.83,-15.36,Standing
01:45.0,214,433,649.5,884,274,2.73,365.82,1.34,87.99,270,186,20723.84,182,429477536,4294778331,1107,1,-0.04,-0.01,-3.85,-3.22,-9.44,-2.59,-86.27,-23.95,-12.99,-13.6,-23.1,-15.93,Standing
01:45.1,330,436,654,884,274,2.73,365.82,1.34,87.99,270,185,20723.84,182,429477536,4294747020,1292,1.01,-0.01,0.01,-0.67,-7.53,-3.63,-1.04,-87.59,-23.97,-13.98,-13.89,-23.05,-16.92,Standing
01:45.2,310,438,657,884,274,2.73,365.82,1.34,87.99,270,183,20723.84,182,429477536,4294714973,1475,1.01,-0.02,0,2.26,-2.12,1.52,-1.9,-87.07,-23.68,-14.4,-13.65,-22.81,-17.3,Standing
01:45.3,528,444,666,884,275,2.72,367.65,1.34,87.99,270,184,20723.84,182,429477536,4294683293,1659,1,-0.03,-0.04,3.41,5.64,-2.18,-2.06,-85.86,-23.27,-14.02,-13.8,-22.42,-16.9,Standing
01:45.4,612,450,675,884,275,2.72,367.65,1.34,96.55,273,185,20723.54,184,429465184,0,0,1,-0.04,0,-3.66,4.6,4.76,-2.92,-86.07,-23.58,-13.76,-13.24,-22.75,-16.65,Standing
01:45.5,633,456,684,884,276,2.71,369.48,1.35,96.55,273,185,20723.54,184,429465184,4294935985,185,1.05,-0.08,0.09,-3.56,24.76,3.9,-4.95,-81.81,-23.88,-11.44,-12.76,-23.13,-14.26,Standing
01:45.6,620,462,693,884,276,2.71,369.48,1.35,96.55,273,180,20723.54,184,429465184,1089,365,1.03,-0.03,0.04,19.84,19.15,-8.31,-2.29,-85.67,-21.8,-9.69,-13.53,-21.02,-12.73,Standing
01:45.7,661,468,702,884,276,2.71,369.48,1.35,96.55,273,197,20723.54,184,429465184,4294941658,562,0.97,-0.01,0.01,-15.57,-13.47,2.21,-0.94,-87.51,-23.33,-11.27,-13.22,-22.44,-14.32,Standing
01:45.8,776,474,711,776,277,2.69,371.31,1.35,96.55,273,197,20723.54,184,429465184,4294914931,759,1.01,-0.06,0.08,-9.34,-3.88,7.67,-4.19,-82.71,-24.24,-11.87,-12.35,-23.44,-14.71,Standing
01:45.9,666,477,715.5,776,277,2.69,371.31,1.35,96.55,273,205,20723.54,184,429465184,4294891420,964,1.01,-0.07,0.01,-2.24,1.74,1.75,-4.48,-84.47,-24.41,-11.9,-12.09,-23.61,-14.8,Standing
01:46.0,701,480,720,776,277,2.69,371.31,1.35,96.55,273,191,20723.54,184,429465184,4294862365,1155,1.02,-0.08,0.03,-16.6,-19.57,6.38,-5.09,-83.61,-26.03,-14.08,-11.37,-25.19,-16.86,Standing
01:46.1,651,481,721.5,776,277,2.69,371.31,1.35,96.55,273,185,20723.54,184,429465184,4294831054,1340,1.04,-0.1,0.04,-3.5,-1.94,1.2,-6.12,-82.41,-26.34,-14.49,-11.16,-25.53,-17.21,Standing
01:46.2,656,480,720,776,276,2.71,369.48,1.35,96.55,273,183,20723.54,184,429465184,4294799007,1523,1.02,-0.1,0.05,4.45,7.85,-1.97,-5.95,-82.35,-25.83,-13.89,-11.28,-25.03,-16.63,Standing
01:46.3,627,479,718.5,776,277,2.69,371.31,1.35,96.55,273,183,20723.54,184,429465184,4294766960,1706,1.02,-0.07,0.01,6.26,8.79,-2.79,-4.67,-84.27,-25.13,-13.2,-11.49,-24.31,-16.04,Standing
01:46.4,607,478,717,776,277,2.69,371.31,1.35,104.74,276,190,20723.75,189,429473760,0,0,1.01,-0.07,-0.01,-9.22,-7.05,0.25,-4.32,-84.62,-26,-14.1,-11.38,-25.13,-16.93,Standing
01:46.5,504,477,715.5,776,278,2.68,373.15,1.36,104.74,276,192,20723.75,189,429473760,4294938624,192,1.02,-0.09,0.03,-2.93,-1.37,-3.17,-5.49,-83.26,-26.24,-14.45,-11.63,-25.41,-17.2,Standing
01:46.6,560,478,717,776,277,2.69,371.31,1.35,104.74,276,185,20723.75,189,429473760,4294907313,377,1,-0.09,0.03,-1.3,-0.66,-2.02,-5.54,-83.26,-26.32,-14.73,-11.75,-25.49,-17.47,Standing
01:46.7,564,478,717,776,277,2.69,371.31,1.35,104.74,276,182,20723.75,189,429473760,4294874901,559,0.99,-0.08,0.05,1.64,3.4,0.37,-5.3,-82.84,-26.09,-14.58,-11.64,-25.26,-17.31,Standing
01:46.8,546,478,717,776,277,2.69,371.31,1.35,104.74,276,183,20723.75,189,429473760,4294842854,742,0.99,-0.07,0.01,-3.18,3.58,3.96,-4.74,-84.2,-26.36,-14.42,-11.16,-25.49,-17.21,Standing
01:46.9,493,478,717,776,278,2.68,373.15,1.36,104.74,276,182,20723.75,189,429473760,4294810442,924,1.03,-0.1,-0.01,-3.78,-2.74,5.51,-6.39,-82.57,-26.69,-14.91,-10.51,-25.88,-17.62,Standing
01:47.0,498,478,717,776,277,2.69,371.31,1.35,104.74,276,182,20723.75,189,429473760,4294778030,1106,1.06,-0.11,0.02,-2.03,5.71,-2.96,-6.37,-82.56,-26.84,-14.53,-10.73,-26.02,-17.25,Standing
01:47.1,367,477,715.5,776,277,2.69,371.31,1.35,104.74,276,181,20723.75,189,429473760,4294810791,1287,1.01,-0.11,0.02,-6,1.05,-4.13,-6.89,-82.04,-27.4,-14.63,-11.07,-26.58,-17.32,Standing
01:47.2,327,477,715.5,776,278,2.68,373.15,1.36,104.74,276,180,20723.75,189,429473760,4294843191,1467,1.01,-0.1,0.01,-4.43,-0.95,-1.6,-6.06,-82.9,-27.79,-14.93,-11.16,-26.93,-17.65,Standing
01:47.3,284,475,712.5,776,278,2.68,373.15,1.36,104.74,276,180,20723.75,189,429473760,4294875591,1647,0.94,-0.16,0.01,-2.08,-1.31,2.63,-9.96,-79.03,-27.95,-15.27,-10.8,-27.23,-17.82,Standing
01:47.4,257,472,708,776,278,2.68,373.15,1.36,107.1,277,179,20724.16,182,429490752,0,0,1.06,-0.11,0.08,-6.84,4.13,-0.05,-6.46,-81.19,-28.58,-15.06,-10.73,-27.69,-17.7,Standing
01:47.5,226,469,703.5,776,278,2.68,373.15,1.36,107.1,277,179,20724.16,182,429490752,32041,179,1.04,-0.1,0.03,-4.1,7.73,-5.79,-5.9,-82.77,-28.94,-14.48,-11.24,-28.02,-17.21,Standing
01:47.6,183,465,697.5,776,279,2.67,375,1.36,107.1,277,181,20724.16,182,429490752,64802,360,0.99,-0.11,0.01,-7.61,-6.85,-6.82,-6.74,-82.24,-29.66,-15.39,-11.86,-28.75,-18.06,Standing
01:47.7,61,460,690,776,278,2.68,373.15,1.36,107.1,277,180,20724.16,182,429490752,97202,540,1.01,-0.07,0.06,-2.11,2.07,-4.3,-4.52,-83.29,-29.82,-15.38,-12.21,-28.81,-18.1,Standing
01:47.8,83,456,684,776,278,2.68,373.15,1.36,107.1,277,181,20724.16,182,429490752,129963,721,0.99,-0.08,0.01,-2.1,-4.77,0.63,-5.35,-83.63,-29.98,-16.06,-12.07,-28.99,-18.77,Standing
01:47.9,187,453,679.5,776,279,2.67,375,1.36,107.1,277,182,20724.16,182,429490752,97551,903,1.01,-0.09,0.01,1.33,-1.58,3.28,-5.58,-83.39,-29.78,-16.43,-11.65,-28.81,-19.11,Standing
01:48.0,319,452,678,776,279,2.67,375,1.36,107.1,277,180,20724.16,182,429490752,129951,1083,1.02,-0.11,-0.01,-0.99,-0.02,1.27,-6.52,-82.43,-29.83,-16.63,-11.44,-28.89,-19.27,Standing
01:48.1,484,452,678,776,280,2.65,376.85,1.37,107.1,277,182,20724.16,182,429490752,97539,1265,1.02,-0.12,-0.01,-3.19,1.36,-1.4,-7.05,-81.94,-30.1,-16.7,-11.51,-29.18,-19.31,Standing
01:48.2,638,455,682.5,776,280,2.65,376.85,1.37,107.1,277,182,20724.16,182,429490752,65127,1447,1.01,-0.1,-0.01,-1.66,8.44,-2.01,-6.5,-82.49,-30.21,-16.05,-11.63,-29.26,-18.71,Standing
01:48.3,710,458,687,710,280,2.65,376.85,1.37,107.1,277,183,20724.16,182,429490752,33080,1630,1.01,-0.1,0.02,-2.73,7.81,-3.92,-6.23,-82.68,-30.43,-15.46,-11.95,-29.46,-18.15,Standing
01:48.4,784,463,694.5,784,280,2.65,376.85,1.37,111.18,279,185,13.27,181,175,0,0,1,-0.09,0.05,-5.5,3.69,-3,-5.54,-82.68,-30.92,-15.29,-12.17,-29.9,-17.98,Standing
01:48.5,847,467,700.5,847,280,2.65,376.85,1.37,111.18,279,185,13.27,181,175,4294935985,185,1.01,-0.09,0.06,-3.08,4.55,-1.35,-5.57,-82.35,-31.17,-15.03,-12.22,-30.15,-17.72,Standing
01:48.7,870,474,711,870,280,2.65,376.85,1.37,111.18,279,187,13.27,181,175,4294905418,372,1.01,-0.09,0.05,-2.34,-3.15,-0.66,-5.79,-82.58,-31.35,-15.55,-12.21,-30.33,-18.23,Standing
01:48.7,830,481,721.5,870,281,2.64,378.71,1.37,111.18,279,187,13.27,181,175,4294874851,559,1.02,-0.09,0.03,-1.07,-1.93,-2.2,-5.85,-82.86,-31.4,-15.95,-12.36,-30.38,-18.62,Standing
01:48.8,841,488,732,870,281,2.64,378.71,1.37,111.18,279,188,13.27,181,175,4294844659,747,1,-0.09,0.02,-1.48,-1.4,-2.65,-5.75,-83.11,-31.5,-16.29,-12.54,-30.47,-18.96,Standing
01:49.0,774,493,739.5,870,281,2.64,378.71,1.37,111.18,279,192,13.27,181,175,4294815987,939,1.02,-0.08,0.02,-1.54,0.11,-0.98,-5.17,-83.71,-31.59,-16.48,-12.56,-30.54,-19.17,Standing
01:49.1,672,495,742.5,870,282,2.63,380.57,1.38,111.18,279,194,13.27,181,175,4294788087,1133,1.01,-0.09,0.03,-4.21,-1.66,0.24,-5.52,-83.22,-31.97,-16.85,-12.46,-30.91,-19.51,Standing
01:54.6,999,999,1498.5,999,255,3.01,332.03,1.25,0,0,168,0,0,0,56113,335,1,-0.07,0.02,-3.53,-4.55,-2.98,-4.58,-84.29,-0.59,-0.72,-0.7,-0.75,-4.06,Left Fall while Standing
01:54.7,681,840,1260,999,255,3.01,332.03,1.25,0,0,168,0,0,0,84337,503,1,-0.07,0.01,-0.05,0.31,2.02,-4.71,-84.21,-0.54,-0.88,-0.43,-0.7,-4.22,Left Fall while Standing
01:54.8,482,720,1080,999,256,3,333.77,1.25,0,0,167,0,0,0,112226,670,1.02,-0.09,0.02,-3.03,3.68,2.5,-5.46,-83.38,-0.78,-0.72,-0.11,-0.97,-4.02,Left Fall while Standing
01:54.9,265,606,909,999,256,3,333.77,1.25,0,0,167,0,0,0,140115,837,1.04,-0.09,0.03,-1.43,7.08,-1.65,-5.45,-83.3,-0.86,-0.22,-0.19,-1.05,-3.55,Left Fall while Standing
01:55.0,91,503,754.5,999,256,3,333.77,1.25,0,0,166,0,0,0,167671,1003,1.03,-0.08,0.03,-4.48,-2.04,-5.11,-4.85,-83.9,-1.25,-0.62,-0.62,-1.4,-3.96,Left Fall while Standing
01:55.1,26,424,636,999,257,2.98,335.51,1.26,0,0,165,0,0,0,194896,1168,1.02,-0.07,0.03,-4.01,-2.17,-3.03,-4.5,-84.08,-1.59,-1.03,-0.84,-1.7,-4.35,Left Fall while Standing
01:55.2,215,394,591,999,257,2.98,335.51,1.26,0,0,165,0,0,0,222121,1333,1.01,-0.06,0.04,-1.13,4.27,-1.34,-3.88,-84.28,-1.64,-0.81,-0.89,-1.73,-4.15,Left Fall while Standing
01:55.3,0,344,516,999,257,2.98,335.51,1.26,0,0,165,0,0,0,249346,1498,1.03,-0.07,0.02,-0.95,-3.72,-1.09,-4.6,-84.28,-1.68,-1.37,-0.92,-1.8,-4.68,Left Fall while Standing
01:55.4,0,306,459,999,257,2.98,335.51,1.26,7.14,256,165,166.3,166,27656,0,0,1.02,-0.1,0.02,-3.51,-1.26,-2.1,-6.11,-82.8,-1.97,-1.69,-1.05,-2.14,-4.93,Left Fall while Standing
01:55.5,0,275,412.5,999,257,2.98,335.51,1.26,7.14,256,166,166.3,166,27656,27556,166,1,-0.06,0,-1.18,2.21,-9.05,-3.84,-85.15,-2.03,-1.67,-1.87,-2.1,-5,Left Fall while Standing
01:55.6,0,250,375,999,257,2.98,335.51,1.26,7.14,256,165,166.3,166,27656,54781,331,1.01,-0.07,0.03,-10.14,-2.16,-1.68,-4.39,-84.15,-2.99,-2.08,-1.96,-3.04,-5.36,Left Fall while Standing
01:55.7,0,229,343.5,999,258,2.97,337.25,1.26,7.14,256,164,166.3,166,27656,81677,495,1.05,-0.05,0.01,-1.81,8.12,-5.82,-3.47,-85.43,-3.11,-1.48,-2.46,-3.13,-4.83,Left Fall while Standing
01:55.8,0,212,318,999,259,2.95,339.01,1.27,7.14,256,164,166.3,166,27656,108573,659,1.01,-0.04,0,-2.09,-1.73,-7.88,-2.71,-86.28,-3.26,-1.84,-3.15,-3.24,-5.22,Left Fall while Standing
01:55.9,0,197,295.5,999,259,2.95,339.01,1.27,7.14,256,163,166.3,166,27656,135142,822,1.02,-0.02,0.05,-1.96,3.85,-9.76,-1.66,-85.29,-3.4,-1.66,-4.05,-3.33,-5,Left Fall while Standing
01:56.0,1,184,276,999,259,2.95,339.01,1.27,7.14,256,166,166.3,166,27656,162698,988,1.03,-0.04,0,1.54,-5.21,-20.36,-2.54,-86.46,-3.19,-2.37,-5.98,-3.17,-5.73,Left Fall while Standing
01:56.1,2,172,258,999,260,2.93,340.76,1.27,7.14,256,167,166.3,166,27656,190587,1155,1.04,0.03,0.01,0.63,-7.05,-28.9,1.28,-86.46,-3.08,-3.27,-8.77,-2.9,-6.59,Left Fall while Standing
01:56.2,2,162,243,999,261,2.92,342.52,1.28,7.14,256,164,166.3,166,27656,217483,1319,1.03,0.1,-0.04,-2.83,-10.05,-29.23,4.88,-82.59,-3.3,-4.47,-11.61,-2.98,-7.6,Left Fall while Standing
01:56.3,0,153,229.5,999,260,2.93,340.76,1.27,7.14,256,162,166.3,166,27656,243727,1481,1.01,0.11,-0.03,-9.09,-13.21,-25.28,5.46,-82.06,-4.16,-5.99,-14.06,-3.77,-9.03,Left Fall while Standing
01:56.4,0,145,217.5,999,261,2.92,342.52,1.28,39.97,259,161,164.21,164,26963,0,0,1.02,0.18,-0.06,-5.73,-0.26,-28.39,9.37,-77.93,-4.66,-6.21,-16.76,-4.1,-9.08,Left Fall while Standing
01:56.5,434,159,238.5,999,262,2.9,344.28,1.28,39.97,259,164,164.21,164,26963,26896,164,0.99,0.22,-0.06,-10.4,-3.28,-20.22,11.95,-75.44,-5.64,-6.74,-18.69,-4.93,-9.48,Left Fall while Standing
01:56.6,800,190,285,999,263,2.89,346.05,1.29,39.97,259,165,164.21,164,26963,54121,329,0.97,0.26,-0.05,-9.31,-4.38,-20.63,14.45,-73.06,-6.52,-7.38,-20.69,-5.68,-10.01,Left Fall while Standing
01:56.7,996,227,340.5,999,263,2.89,346.05,1.29,39.97,259,167,164.21,164,26963,82010,496,0.98,0.27,-0.01,-4.36,-8.91,-17.18,14.86,-72.98,-6.9,-8.47,-22.33,-6.03,-11.05,Left Fall while Standing
01:56.8,998,260,390,999,264,2.88,347.83,1.29,39.97,259,162,164.21,164,26963,108254,658,1.01,0.29,-0.07,-0.8,-2.26,-18.73,15.49,-71.85,-6.93,-8.9,-24.14,-6.03,-11.42,Left Fall while Standing
01:56.9,715,279,418.5,999,264,2.88,347.83,1.29,39.97,259,168,164.21,164,26963,136478,826,1,0.31,-0.15,-5.86,-7.59,-21.75,16.24,-69.62,-7.46,-9.86,-26.24,-6.51,-12.25,Left Fall while Standing
01:57.0,989,307,460.5,999,265,2.86,349.6,1.3,39.97,259,166,164.21,164,26963,164034,992,0.92,0.37,-0.06,-0.89,-2.82,-19.4,21.24,-66.35,-7.49,-10.34,-28.1,-6.34,-12.58,Left Fall while Standing
01:57.1,996,334,501,999,265,2.86,349.6,1.3,39.97,259,176,164.21,164,26963,195010,1168,0.9,0.4,-0.08,0.13,-1.26,-13.58,23.54,-63.74,-7.42,-10.67,-29.39,-6.18,-12.79,Left Fall while Standing
01:57.2,994,358,537,999,266,2.85,351.39,1.3,39.97,259,170,164.21,164,26963,223910,1338,0.92,0.4,-0.11,-1.59,0.92,-7.74,22.64,-64.29,-7.52,-10.78,-30.09,-6.32,-12.92,Left Fall while Standing
01:57.3,996,381,571.5,999,266,2.85,351.39,1.3,39.97,259,173,164.21,164,26963,253839,1511,0.9,0.4,-0.1,-4.68,-0.63,-4.16,23.57,-63.47,-7.93,-11.04,-30.42,-6.67,-13.14,Left Fall while Standing
01:57.4,989,402,603,999,266,2.85,351.39,1.3,66.13,264,177,168.87,168,28515,0,0,0.93,0.42,-0.08,-7.93,2.27,1.56,23.84,-63.58,-8.67,-11.02,-30.19,-7.37,-13.12,Left Fall while Standing
01:57.5,666,411,616.5,999,266,2.85,351.39,1.3,66.13,264,172,168.87,168,28515,29584,172,0.94,0.39,-0.08,-4.06,1.3,-1.9,22.12,-65.25,-9.02,-11.09,-30.3,-7.77,-13.25,Left Fall while Standing
01:57.6,645,418,627,999,266,2.85,351.39,1.3,66.13,264,171,168.87,168,28515,58825,343,0.94,0.4,-0.11,-4.44,-0.43,-10.74,22.25,-64.71,-9.41,-11.33,-31.29,-8.14,-13.46,Left Fall while Standing
01:57.7,531,422,633,999,265,2.86,349.6,1.3,66.13,264,169,168.87,168,28515,87386,512,0.91,0.44,-0.08,-8.26,-1.92,-11.63,24.99,-62.45,-10.18,-11.72,-32.39,-8.78,-13.75,Left Fall while Standing
01:57.8,268,417,625.5,999,266,2.85,351.39,1.3,66.13,264,167,168.87,168,28515,115275,679,0.92,0.45,-0.05,-10.08,2.02,-10.36,25.72,-61.95,-11.13,-11.72,-33.35,-9.66,-13.73,Left Fall while Standing
01:57.9,13,405,607.5,999,266,2.85,351.39,1.3,66.13,264,168,168.87,168,28515,143499,847,0.88,0.46,-0.05,-3.83,2.96,-15.01,27.06,-60.6,-11.46,-11.63,-34.77,-9.92,-13.58,Left Fall while Standing
01:58.0,21,394,591,999,266,2.85,351.39,1.3,66.13,264,185,168.87,168,28515,112188,1032,0.85,0.49,-0.06,-3.12,0.04,-16.53,29.18,-58.44,-11.72,-11.82,-36.36,-10.08,-13.69,Left Fall while Standing
01:58.1,22,384,576,999,267,2.83,353.17,1.3,66.13,264,178,168.87,168,28515,143872,1210,0.84,0.53,-0.04,-1.03,-3.68,-10.27,31.62,-56.14,-11.77,-12.4,-37.31,-10.03,-14.15,Left Fall while Standing
01:58.2,21,374,561,999,267,2.83,353.17,1.3,66.13,264,176,168.87,168,28515,174848,1386,0.87,0.52,-0.05,3.94,-1.15,-9.37,30.02,-57.66,-11.32,-12.71,-38.17,-9.66,-14.51,Left Fall while Standing
01:58.3,21,365,547.5,999,267,2.83,353.17,1.3,66.13,264,176,168.87,168,28515,205824,1562,0.85,0.53,-0.07,7.63,-1.31,-16.53,31.36,-56.15,-10.49,-13.05,-39.76,-8.82,-14.77,Left Fall while Standing
01:58.4,16,356,534,999,268,2.82,354.97,1.31,73.71,266,172,153.43,173,23539,0,0,0.83,0.57,-0.14,1.07,-3.5,-10.4,33.61,-53.13,-10.33,-13.59,-40.71,-8.57,-15.17,Left Fall while Standing
01:58.5,94,349,523.5,999,267,2.83,353.17,1.3,73.71,266,169,153.43,173,23539,28561,169,0.79,0.57,-0.09,-6.39,1.33,-3.89,34.98,-52.34,-10.91,-13.66,-41.02,-9.08,-15.2,Left Fall while Standing
01:58.6,315,348,522,999,268,2.82,354.97,1.31,73.71,266,169,153.43,173,23539,57122,338,0.82,0.56,-0.1,-3.34,0.01,-2.74,33.64,-53.6,-11.19,-13.86,-41.22,-9.4,-15.45,Left Fall while Standing
01:58.7,435,350,525,999,269,2.8,356.76,1.31,73.71,266,169,153.43,173,23539,85683,507,0.83,0.57,-0.16,-7.78,-4.36,-5.26,33.61,-52.73,-11.91,-14.49,-41.67,-10.09,-16.02,Left Fall while Standing
01:58.8,484,354,531,999,268,2.82,354.97,1.31,73.71,266,172,153.43,173,23539,115267,679,0.83,0.58,-0.06,-5.27,-4.22,-5.37,34.23,-53.41,-12.39,-15.13,-42.13,-10.53,-16.66,Left Fall while Standing
01:58.9,549,358,537,999,268,2.82,354.97,1.31,73.71,266,170,153.43,173,23539,144167,849,0.78,0.58,-0.08,-2.76,-1.29,5.39,35.85,-51.62,-12.61,-15.46,-41.52,-10.67,-16.9,Left Fall while Standing
01:59.0,893,370,555,999,269,2.8,356.76,1.31,73.71,266,188,153.43,173,23539,113975,1037,0.85,0.57,-0.1,-4.62,-2.98,12.58,33.34,-53.95,-13.02,-15.95,-40.18,-11.16,-17.47,Left Fall while Standing
01:59.1,737,378,567,999,268,2.82,354.97,1.31,73.71,266,163,153.43,173,23539,140544,1200,0.88,0.53,-0.15,-2.39,-5.37,4.17,30.28,-56.24,-13.21,-16.71,-39.67,-11.47,-18.29,Left Fall while Standing
01:59.2,834,388,582,999,267,2.83,353.17,1.3,73.71,266,163,153.43,173,23539,167113,1363,0.87,0.52,-0.11,-4.85,0.4,-8.12,30.38,-56.72,-13.64,-16.87,-40.41,-11.87,-18.46,Left Fall while Standing
01:59.3,711,394,591,999,266,2.85,351.39,1.3,73.71,266,159,153.43,173,23539,192394,1522,0.82,0.59,-0.12,-1.03,18.78,-11.95,35.05,-52.01,-13.68,-15.19,-41.52,-11.73,-16.66,Left Fall while Standing
01:59.4,679,400,600,999,266,2.85,351.39,1.3,77.94,267,167,148.42,168,22027,0,0,0.81,0.53,-0.04,-12.95,0.22,11.33,32.61,-55.11,-14.92,-15.37,-40.31,-13.02,-16.96,Left Fall while Standing
01:59.5,452,401,601.5,999,265,2.86,349.6,1.3,77.94,267,166,148.42,168,22027,27556,166,0.85,0.53,-0.1,-16.82,5.18,21.31,31.47,-55.71,-16.56,-15.04,-38.08,-14.64,-16.67,Left Fall while Standing
01:59.6,522,403,604.5,999,266,2.85,351.39,1.3,77.94,267,164,148.42,168,22027,54452,330,0.84,0.51,-0.02,-8.22,19.76,11.66,30.53,-57.28,-17.33,-13.27,-36.83,-15.42,-15.03,Left Fall while Standing
01:59.7,581,407,610.5,999,265,2.86,349.6,1.3,77.94,267,164,148.42,168,22027,81348,494,0.86,0.51,-0.06,-8.37,-5.65,8.92,29.83,-57.76,-18.12,-14.04,-35.85,-16.2,-15.79,Left Fall while Standing
01:59.8,629,411,616.5,999,266,2.85,351.39,1.3,77.94,267,194,148.42,168,22027,53448,688,0.92,0.39,0,11.68,8.76,-3.65,22.65,-65.19,-16.9,-13.36,-36.14,-15.31,-15.44,Left Fall while Standing
01:59.9,639,415,622.5,999,266,2.85,351.39,1.3,77.94,267,210,148.42,168,22027,32012,898,0.92,0.5,0.04,-13.76,-29.86,11.03,27.71,-60.03,-18.2,-16.52,-34.97,-16.37,-18.26,Left Fall while Standing
02:00.0,612,419,628.5,999,265,2.86,349.6,1.3,77.94,267,208,148.42,168,22027,9740,1106,0.81,0.42,-0.16,-0.99,-6.37,17.5,26.23,-59.62,-18.25,-17.37,-33.1,-16.47,-19.06,Left Fall while Standing
02:00.1,535,421,631.5,999,264,2.88,347.83,1.29,77.94,267,206,148.42,168,22027,4294953936,1312,0.71,0.41,-0.05,1.98,27.91,29.91,29.11,-58.46,-17.99,-14.76,-30,-16.11,-16.5,Left Fall while Standing
02:00.2,619,424,636,999,264,2.88,347.83,1.29,77.94,267,205,148.42,168,22027,4294930425,1517,0.85,0.37,-0.03,-3.07,24.57,36.71,22.66,-65.1,-18.25,-12.45,-26.18,-16.61,-14.56,Left Fall while Standing
02:00.3,639,428,642,999,263,2.89,346.05,1.29,77.94,267,210,148.42,168,22027,4294908989,1727,1.02,0.3,-0.02,-4.75,3.15,31.33,15.91,-71.9,-18.67,-12.34,-22.93,-17.28,-14.72,Left Fall while Standing
02:00.4,578,431,646.5,999,261,2.92,342.52,1.28,66.53,264,211,20724.11,193,429488800,0,0,1.04,0.22,0.04,-0.87,11.16,21.09,11.47,-76.17,-18.7,-11.42,-20.75,-17.49,-14.01,Left Fall while Standing
02:00.5,624,434,651,999,260,2.93,340.76,1.27,66.53,264,207,20724.11,193,429488800,4294944609,207,1.03,0.18,0.06,-3.08,-10.29,15.53,9.28,-78.03,-18.96,-12.69,-19.07,-17.83,-15.3,Left Fall while Standing
02:00.6,526,435,652.5,999,259,2.95,339.01,1.27,66.53,264,209,20724.11,193,429488800,4294922754,416,1.01,0.2,0.03,3.12,-21.74,8.92,10.63,-77.06,-18.59,-15.09,-18.08,-17.42,-17.56,Left Fall while Standing
02:00.7,449,435,652.5,999,257,2.98,335.51,1.26,66.53,264,208,20724.11,193,429488800,4294900482,624,0.97,0.16,-0.02,2.46,-20.87,13.17,8.95,-78.79,-18.28,-17.42,-16.66,-17.19,-19.87,Left Fall while Standing
02:00.8,445,436,654,999,256,3,333.77,1.25,66.53,264,207,20724.11,193,429488800,4294877795,831,0.99,0.14,-0.07,6.27,-4.98,13.96,7.39,-79.4,-17.58,-18.14,-15.14,-16.58,-20.59,Left Fall while Standing
02:00.9,379,435,652.5,999,256,3,333.77,1.25,66.53,264,209,20724.11,193,429488800,4294855940,1040,0.99,0.12,-0.11,6.5,9.68,18.4,6.45,-78.86,-16.85,-17.35,-13.18,-15.92,-19.82,Left Fall while Standing
02:01.0,380,434,651,999,256,3,333.77,1.25,66.53,264,209,20724.11,193,429488800,4294834085,1249,1,0.09,-0.08,3.21,13,23.18,4.34,-81.5,-16.47,-16.23,-10.74,-15.64,-18.84,Left Fall while Standing
02:01.1,458,434,651,999,256,3,333.77,1.25,66.53,264,208,20724.11,193,429488800,4294811813,1457,1.02,0.05,-0.05,-0.38,12.18,18.73,2.14,-84.68,-16.45,-15.19,-8.75,-15.71,-17.97,Left Fall while Standing
02:01.2,764,439,658.5,999,256,3,333.77,1.25,66.53,264,208,20724.11,193,429488800,4294789541,1665,1.04,0.02,-0.01,-3.57,9.96,18.76,0.28,-87.48,-16.76,-14.38,-6.75,-16.08,-17.31,Left Fall while Standing
02:01.3,523,440,660,999,255,3.01,332.03,1.25,66.53,264,209,20724.11,193,429488800,4294767686,1874,1.05,-0.05,0.03,-2.35,5.71,11.56,-3.18,-85.26,-16.94,-14,-5.49,-16.39,-16.85,Left Fall while Standing
02:01.4,575,442,663,999,255,3.01,332.03,1.25,17.61,256,208,20723.77,208,429474528,0,0,1.04,-0.05,0.03,-2.06,1.84,8.58,-3.06,-85.44,-17.09,-14.02,-4.56,-16.53,-16.88,Left Fall while Standing
02:01.5,635,445,667.5,999,256,3,333.77,1.25,17.61,256,208,20723.77,208,429474528,4294945024,208,1.03,-0.05,0.01,-0.65,-1,9.6,-3.47,-85.49,-17.1,-14.33,-3.49,-16.56,-17.18,Left Fall while Standing
02:01.6,736,449,673.5,999,256,3,333.77,1.25,17.61,256,208,20723.77,208,429474528,4294922752,416,1,-0.06,-0.01,2.31,1.5,11.05,-3.93,-85.01,-16.81,-14.38,-2.29,-16.3,-17.21,Left Fall while Standing
02:01.7,817,454,681,999,257,2.98,335.51,1.26,17.61,256,208,20723.77,208,429474528,4294900480,624,0.99,-0.09,-0.01,-2.89,1.74,18.89,-6,-82.97,-17.05,-14.41,-0.28,-16.61,-17.15,Left Fall while Standing
02:01.8,999,462,693,999,258,2.97,337.25,1.26,17.61,256,205,20723.77,208,429474528,4294876969,829,0.98,-0.12,0,-5.93,6.76,21.18,-7.61,-81.39,-17.6,-13.92,1.98,-17.2,-16.62,Left Fall while Standing
02:01.9,999,469,703.5,999,258,2.97,337.25,1.26,17.61,256,207,20723.77,208,429474528,4294854282,1036,1.02,-0.18,-0.02,-3.26,3.08,25.15,-10.75,-78.21,-17.88,-13.81,4.6,-17.59,-16.38,Left Fall while Standing
02:02.0,999,476,714,999,259,2.95,339.01,1.27,17.61,256,207,20723.77,208,429474528,4294831595,1243,1.03,-0.24,0.02,-5.78,-2.63,17.73,-13.63,-75.3,-18.41,-14.28,6.49,-18.22,-16.72,Left Fall while Standing
02:02.1,999,483,724.5,999,259,2.95,339.01,1.27,17.61,256,208,20723.77,208,429474528,4294809323,1451,1.04,-0.25,0.05,-1.47,0.04,6.15,-14.29,-74.49,-18.5,-14.48,7.2,-18.33,-16.88,Left Fall while Standing
02:02.3,999,490,735,999,259,2.95,339.01,1.27,17.61,256,210,20723.77,208,429474528,4294787887,1661,1.06,-0.28,0.01,-1.01,-1.3,-3.63,-15.39,-73.61,-18.55,-14.82,6.91,-18.42,-17.17,Left Fall while Standing
02:02.4,999,496,744,999,260,2.93,340.76,1.27,17.61,256,211,20723.77,208,429474528,4294766872,1872,1.01,-0.25,0,1.96,-4.75,-6.81,-14.38,-74.62,-18.29,-15.51,6.29,-18.13,-17.88,Left Fall while Standing
02:02.5,999,502,753,999,260,2.93,340.76,1.27,33.66,258,213,20723.77,208,429474656,0,0,1,-0.25,0.03,0.57,-7.47,-5.69,-14.51,-74.37,-18.17,-16.46,5.8,-18.03,-18.78,Left Fall while Standing
02:02.6,852,507,760.5,999,261,2.92,342.52,1.28,33.66,258,211,20723.77,208,429474656,4294946281,211,1.01,-0.21,-0.01,0.61,0.82,-8.34,-12.56,-76.42,-18.06,-16.58,5.04,-17.84,-18.97,Left Fall while Standing
02:05.8,1000,1000,1500,1000,269,2.8,356.76,1.31,0,0,206,0,0,0,4294922341,415,1,-0.12,0.01,-1.83,3.65,-6.83,-7.33,-81.63,-0.45,0.19,-1.07,-0.72,-3.08,Right Fall while Standing
02:05.9,999,999,1498.5,1000,269,2.8,356.76,1.31,0,0,207,0,0,0,4294899654,622,0.99,-0.13,0,-0.8,-3.6,-1.15,-7.97,-81.03,-0.47,-0.36,-1.11,-0.77,-3.58,Right Fall while Standing
02:06.0,999,999,1498.5,1000,269,2.8,356.76,1.31,0,0,203,0,0,0,4294875327,825,0.99,-0.16,0,-6.79,-4.98,4.76,-9.95,-79.05,-1.09,-1.05,-0.56,-1.44,-4.17,Right Fall while Standing
02:06.1,958,989,1483.5,1000,269,2.8,356.76,1.31,0,0,205,0,0,0,4294851816,1030,1.01,-0.15,0,-4.73,-2.34,8.57,-9.23,-79.77,-1.51,-1.48,0.38,-1.82,-4.61,Right Fall while Standing
02:06.2,752,941,1411.5,1000,270,2.79,358.57,1.32,0,0,205,0,0,0,4294828305,1235,1.02,-0.14,-0.01,1.35,6.65,12.42,-8.57,-80.39,-1.32,-1.03,1.67,-1.61,-4.2,Right Fall while Standing
02:06.3,995,950,1425,1000,270,2.79,358.57,1.32,0,0,210,0,0,0,4294806869,1445,1,-0.18,0.01,-3.01,17.94,20.69,-10.5,-78.49,-1.56,0.55,3.8,-1.92,-2.61,Right Fall while Standing
02:06.4,1000,957,1435.5,1000,270,2.79,358.57,1.32,0,0,214,0,0,0,4294787129,1659,0.95,-0.25,0,-10.48,25.81,30.26,-15.18,-73.82,-2.54,2.91,6.87,-3.05,-0.16,Right Fall while Standing
02:06.5,999,962,1443,1000,270,2.79,358.57,1.32,0,0,216,0,0,0,4294768249,1875,0.96,-0.3,0.11,-10.89,17.82,29.86,-17.74,-70.18,-3.57,4.48,9.91,-4.13,1.49,Right Fall while Standing
02:06.6,999,966,1449,1000,271,2.77,360.37,1.32,84.86,269,217,20723.78,209,429474976,0,0,0.94,-0.37,0.13,-5.63,5.8,25.49,-22.09,-65.66,-4.07,4.86,12.54,-4.79,2.04,Right Fall while Standing
02:06.7,1000,970,1455,1000,271,2.77,360.37,1.32,84.86,269,215,20723.78,209,429474976,4294947985,215,0.92,-0.39,0.11,-10.44,9.58,23.34,-23.7,-64.35,-5.08,5.63,15,-5.83,2.83,Right Fall while Standing
02:06.8,1000,972,1458,1000,270,2.79,358.57,1.32,84.86,269,215,20723.78,209,429474976,4294928674,430,0.91,-0.44,0.18,-3.07,11.24,20.15,-25.84,-60.95,-5.33,6.56,17.11,-6.16,3.86,Right Fall while Standing
02:06.9,1000,975,1462.5,1000,270,2.79,358.57,1.32,84.86,269,219,20723.78,209,429474976,4294911099,649,0.9,-0.46,0.12,4.54,3.36,17.45,-27.27,-60.79,-4.81,6.7,18.97,-5.71,4,Right Fall while Standing
02:07.0,999,976,1464,1000,270,2.79,358.57,1.32,84.86,269,215,20723.78,209,429474976,4294891788,864,0.9,-0.49,0.13,4.67,4.23,15.7,-29.06,-58.91,-4.28,6.93,20.65,-5.27,4.3,Right Fall while Standing
02:07.1,512,943,1414.5,1000,268,2.82,354.97,1.31,84.86,269,211,20723.78,209,429474976,4294870773,1075,0.88,-0.51,0.12,-0.3,-1.6,18.37,-30.49,-57.65,-4.25,6.57,22.59,-5.3,4,Right Fall while Standing
02:07.2,999,947,1420.5,1000,268,2.82,354.97,1.31,84.86,269,198,20723.78,209,429474976,4294844441,1273,0.85,-0.54,0.1,-7.86,-6.65,20.94,-32.8,-55.64,-4.99,5.69,24.78,-6.1,3.24,Right Fall while Standing
02:07.3,999,950,1425,1000,266,2.85,351.39,1.3,84.86,269,199,20723.78,209,429474976,4294818506,1472,0.84,-0.58,0.15,-11.34,-4.31,17.58,-34.55,-53.14,-6.1,5.04,26.68,-7.24,2.72,Right Fall while Standing
02:07.4,996,953,1429.5,1000,264,2.88,347.83,1.29,84.86,269,183,20723.78,209,429474976,4294786459,1655,0.82,-0.58,0.16,-0.63,-0.03,10.02,-35.65,-51.93,-6.11,4.84,27.77,-7.29,2.57,Right Fall while Standing
02:07.5,509,928,1392,1000,262,2.9,344.28,1.28,84.86,269,187,20723.78,209,429474976,4294755892,1842,0.79,-0.62,0.11,2.86,-2.45,8.69,-38.07,-50.19,-5.76,4.38,28.75,-7.05,2.2,Right Fall while Standing
02:07.6,999,932,1398,1000,260,2.93,340.76,1.27,75.58,266,183,20723.72,202,429472384,0,0,0.81,-0.64,0.07,-4.96,-5.11,10.72,-38.91,-49.85,-6.19,3.68,29.88,-7.5,1.53,Right Fall while Standing
02:07.7,999,935,1402.5,1000,258,2.97,337.25,1.26,75.58,266,178,20723.72,202,429472384,31684,178,0.77,-0.63,0.15,-9.05,-5.03,6.02,-39.26,-48.45,-7.04,2.97,30.57,-8.33,0.92,Right Fall while Standing
02:07.8,999,938,1407,1000,255,3.01,332.03,1.25,75.58,266,166,20723.72,202,429472384,59240,344,0.8,-0.67,0.08,-6.79,-3.9,1.45,-40.61,-48.07,-7.68,2.37,30.79,-9,0.35,Right Fall while Standing
02:07.9,999,941,1411.5,1000,253,3.04,328.57,1.24,75.58,266,164,20723.72,202,429472384,86136,508,0.78,-0.66,0.09,-2.91,-4.63,-2.66,-40.9,-47.63,-7.91,1.71,30.61,-9.23,-0.27,Right Fall while Standing
02:08.0,999,943,1414.5,1000,251,3.08,325.13,1.23,75.58,266,162,20723.72,202,429472384,112380,670,0.78,-0.66,0.06,3.27,-2.49,-2.91,-40.68,-48.14,-7.53,1.25,30.39,-8.85,-0.72,Right Fall while Standing
02:08.1,999,946,1419,1000,250,3.09,323.42,1.22,75.58,266,161,20723.72,202,429472384,138301,831,0.72,-0.64,0.07,-2.59,0.77,1.78,-42.01,-46.72,-7.73,1.13,30.65,-9.1,-0.78,Right Fall while Standing
02:08.2,999,948,1422,1000,250,3.09,323.42,1.22,75.58,266,162,20723.72,202,429472384,164545,993,0.8,-0.66,0.06,-3.43,-3.32,-0.27,-40.06,-48.75,-8.02,0.59,30.7,-9.3,-1.38,Right Fall while Standing
02:08.3,999,950,1425,1000,248,3.13,320,1.21,75.58,266,162,20723.72,202,429472384,190789,1155,0.79,-0.65,0.07,-1.47,-0.66,-6.99,-40.24,-48.5,-8.11,0.32,30.07,-9.4,-1.63,Right Fall while Standing
02:08.4,999,952,1428,1000,248,3.13,320,1.21,75.58,266,162,20723.72,202,429472384,217033,1317,0.78,-0.64,0.03,-2.76,-0.07,-4.13,-39.91,-49.04,-8.33,0.11,29.73,-9.6,-1.85,Right Fall while Standing
02:08.5,999,953,1429.5,1000,248,3.13,320,1.21,75.58,266,162,20723.72,202,429472384,243277,1479,0.82,-0.66,0.02,-6.53,-1.95,-2.35,-39.16,-49.81,-8.94,-0.29,29.58,-10.15,-2.27,Right Fall while Standing
02:08.6,999,955,1432.5,1000,249,3.11,321.71,1.22,20724.24,251,162,164.17,164,26951,0,0,0.83,-0.63,0.06,-5.48,0.04,-8.73,-37.67,-51.12,-9.43,-0.48,28.78,-10.56,-2.51,Right Fall while Standing
02:08.7,999,956,1434,1000,248,3.13,320,1.21,20724.24,251,162,164.17,164,26951,26244,162,0.8,-0.61,0.04,4.12,2.98,-10.92,-37.76,-51.14,-8.96,-0.39,27.77,-10.11,-2.42,Right Fall while Standing
02:08.8,999,958,1437,1000,249,3.11,321.71,1.22,20724.24,251,162,164.17,164,26951,52488,324,0.78,-0.61,0.01,-0.62,0.75,-4.27,-38.3,-50.69,-8.97,-0.51,27.42,-10.14,-2.52,Right Fall while Standing
02:08.9,999,959,1438.5,1000,249,3.11,321.71,1.22,20724.24,251,162,164.17,164,26951,78732,486,0.82,-0.59,0.04,-4.78,1.56,-2.62,-36.51,-52.39,-9.39,-0.56,27.23,-10.48,-2.63,Right Fall while Standing
02:09.0,998,960,1440,1000,249,3.11,321.71,1.22,20724.24,251,162,164.17,164,26951,104976,648,0.82,-0.6,0.06,-1.55,-0.99,-4.11,-36.73,-52.04,-9.49,-0.85,26.9,-10.58,-2.9,Right Fall while Standing
02:09.1,690,952,1428,1000,250,3.09,323.42,1.22,20724.24,251,162,164.17,164,26951,131220,810,0.84,-0.6,0.07,1.47,0.02,-7.42,-35.81,-52.92,-9.29,-1.05,26.23,-10.35,-3.13,Right Fall while Standing
02:09.2,626,943,1414.5,1000,250,3.09,323.42,1.22,20724.24,251,163,164.17,164,26951,157789,973,0.86,-0.59,0.04,6.79,3.66,-11.65,-35.04,-53.86,-8.54,-0.89,25.14,-9.6,-3.01,Right Fall while Standing
02:09.3,908,942,1413,1000,252,3.06,326.85,1.23,20724.24,251,164,164.17,164,26951,184685,1137,0.83,-0.57,0.06,0.2,3.07,-14.68,-35.01,-53.8,-8.47,-0.78,23.73,-9.53,-2.9,Right Fall while Standing
02:09.4,999,943,1414.5,1000,252,3.06,326.85,1.23,20724.24,251,165,164.17,164,26951,211910,1302,0.85,-0.54,0.07,-3.49,1.47,-15.02,-32.82,-55.87,-8.76,-0.83,22.3,-9.73,-3.03,Right Fall while Standing
02:09.5,999,945,1417.5,1000,253,3.04,328.57,1.24,20724.24,251,166,164.17,164,26951,239466,1468,0.86,-0.52,0.08,2.92,2.58,-17.31,-31.83,-56.8,-8.41,-0.77,20.63,-9.35,-3.01,Right Fall while Standing
02:09.6,999,946,1419,1000,254,3.03,330.3,1.24,20724.24,250,166,163.41,163,26701,0,0,0.87,-0.51,0.04,-0.56,0.83,-9.71,-31.06,-57.83,-8.41,-0.89,19.74,-9.32,-3.17,Right Fall while Standing
02:09.7,999,947,1420.5,1000,254,3.03,330.3,1.24,20724.24,250,166,163.41,163,26701,27556,166,0.88,-0.49,0.05,-5.92,1,-5.43,-29.82,-59,-8.95,-0.99,19.28,-9.79,-3.31,Right Fall while Standing
02:09.8,999,949,1423.5,1000,255,3.01,332.03,1.25,20724.24,250,166,163.41,163,26701,55112,332,0.89,-0.48,0.07,-5.84,-0.57,-2.54,-28.88,-59.78,-9.48,-1.25,19.1,-10.26,-3.59,Right Fall while Standing
02:09.9,999,950,1425,1000,255,3.01,332.03,1.25,20724.24,250,166,163.41,163,26701,82668,498,0.91,-0.49,0.07,-2.71,0.98,-4.23,-28.67,-60.02,-9.7,-1.35,18.75,-10.46,-3.7,Right Fall while Standing
02:10.0,999,951,1426.5,1000,256,3,333.77,1.25,20724.24,250,167,163.41,163,26701,110557,665,0.9,-0.47,0.06,-1.53,2.73,-7.66,-28.17,-60.6,-9.8,-1.28,18.06,-10.53,-3.65,Right Fall while Standing
02:10.1,999,952,1428,1000,257,2.98,335.51,1.26,20724.24,250,167,163.41,163,26701,138446,832,0.94,-0.46,0.06,-2.81,1.11,-15.63,-26.64,-62.08,-10.02,-1.37,16.56,-10.69,-3.8,Right Fall while Standing
02:10.2,971,953,1429.5,1000,257,2.98,335.51,1.26,20724.24,250,167,163.41,163,26701,166335,999,0.95,-0.46,0.06,-1.6,1.17,-32.61,-26.3,-62.5,-10.13,-1.45,13.38,-10.78,-3.89,Right Fall while Standing
02:10.3,714,947,1420.5,1000,258,2.97,337.25,1.26,20724.24,250,167,163.41,163,26701,194224,1166,0.96,-0.4,0.11,0.18,-2.47,-49.25,-22.91,-65.27,-10.05,-1.91,8.44,-10.57,-4.44,Right Fall while Standing
02:10.4,588,940,1410,1000,258,2.97,337.25,1.26,20724.24,250,166,163.41,163,26701,221780,1332,0.98,-0.27,0.02,6.01,6.53,-41.63,-16.01,-72.94,-9.39,-1.45,4.31,-9.66,-4.31,Right Fall while Standing
02:10.5,444,929,1393.5,1000,258,2.97,337.25,1.26,20724.24,250,166,163.41,163,26701,249336,1498,0.91,-0.2,0.02,-11.02,-4.89,-33.96,-13.07,-75.84,-10.44,-2.14,0.99,-10.54,-5.09,Right Fall while Standing
02:10.6,368,918,1377,1000,259,2.95,339.01,1.27,19,256,167,166.5,166,27721,0,0,1.02,-0.2,0.08,-13.99,-31.18,-21.31,-11.77,-76.33,-11.79,-5.49,-1.08,-11.79,-8.32,Right Fall while Standing
02:10.7,96,901,1351.5,1000,259,2.95,339.01,1.27,19,256,166,166.5,166,27721,27556,166,1.01,-0.17,-0.01,-3.75,-0.69,-26.15,-9.98,-78.99,-12.11,-5.76,-3.61,-12.03,-8.69,Right Fall while Standing
02:10.8,0,884,1326,1000,259,2.95,339.01,1.27,19,256,165,166.5,166,27721,54781,331,1.04,-0.09,-0.03,-8.56,16.76,-27.8,-5.68,-83,-12.92,-4.27,-6.34,-12.63,-7.42,Right Fall while Standing
02:10.9,0,867,1300.5,1000,259,2.95,339.01,1.27,19,256,165,166.5,166,27721,82006,496,1,-0.05,-0.02,-11.8,10.42,-29.66,-3.38,-85.43,-14.04,-3.42,-9.23,-13.62,-6.7,Right Fall while Standing
02:11.0,0,850,1275,1000,260,2.93,340.76,1.27,19,256,165,166.5,166,27721,109231,661,1.01,0.02,0.03,-14.87,-2.86,-28.1,0.32,-86.64,-15.47,-3.91,-11.96,-14.84,-7.22,Right Fall while Standing
02:11.1,0,835,1252.5,1000,260,2.93,340.76,1.27,19,256,165,166.5,166,27721,136456,826,1.01,0.05,0.03,-19.78,-15.03,-18.47,2.08,-85.29,-17.42,-5.63,-13.75,-16.64,-8.82,Right Fall while Standing
02:11.2,0,819,1228.5,1000,261,2.92,342.52,1.28,19,256,164,166.5,166,27721,163352,990,1.01,0.04,0.03,-12.29,-2.02,-16.64,1.45,-85.85,-18.59,-6.03,-15.33,-17.79,-9.23,Right Fall while Standing
02:11.3,0,805,1207.5,1000,260,2.93,340.76,1.27,19,256,164,166.5,166,27721,190248,1154,0.99,0.11,0.04,-11.56,24.92,-20.63,5.96,-81.45,-19.69,-3.74,-17.32,-18.66,-6.85,Right Fall while Standing
02:11.4,122,793,1189.5,1000,261,2.92,342.52,1.28,19,256,164,166.5,166,27721,217144,1318,0.93,0.16,0.07,-17.7,14.49,-3.69,9.16,-77.83,-21.44,-2.47,-17.61,-20.21,-5.48,Right Fall while Standing
02:11.5,428,787,1180.5,1000,260,2.93,340.76,1.27,19,256,163,166.5,166,27721,243713,1481,1,0.13,0.07,-9.95,-1.95,3.81,6.89,-80.03,-22.38,-2.86,-17.15,-21.21,-5.95,Right Fall while Standing
02:11.6,467,781,1171.5,1000,260,2.93,340.76,1.27,44.86,259,164,164.5,164,27059,0,0,1.01,0.08,0.03,-8.89,-15.68,0.92,4.08,-83.54,-23.2,-4.61,-16.98,-22.11,-7.77,Right Fall while Standing
02:11.7,435,775,1162.5,1000,261,2.92,342.52,1.28,44.86,259,164,164.5,164,27059,26896,164,1.06,0.09,0.08,-5.94,-9.15,-3.22,4.35,-82.03,-23.74,-5.73,-17.23,-22.61,-8.78,Right Fall while Standing
02:11.8,0,763,1144.5,1000,261,2.92,342.52,1.28,44.86,259,164,164.5,164,27059,53792,328,0.99,0.1,0.02,-2.18,-6.15,3.32,5.42,-82.27,-23.9,-6.54,-16.81,-22.73,-9.57,Right Fall while Standing
02:11.9,0,750,1125,1000,261,2.92,342.52,1.28,44.86,259,163,164.5,164,27059,80361,491,0.99,0.08,0.02,-5.15,-8.11,4.91,3.85,-83.9,-24.35,-7.54,-16.25,-23.23,-10.6,Right Fall while Standing
02:12.0,0,738,1107,1000,261,2.92,342.52,1.28,44.86,259,163,164.5,164,27059,106930,654,1.01,0.06,-0.01,-1.83,3.69,3.06,3.07,-84.73,-24.48,-7.37,-15.86,-23.38,-10.47,Right Fall while Standing
02:12.1,0,727,1090.5,1000,261,2.92,342.52,1.28,44.86,259,163,164.5,164,27059,133499,817,1.02,0.07,0.03,-2.18,1.72,5.95,3.59,-83.98,-24.64,-7.4,-15.19,-23.51,-10.46,Right Fall while Standing
02:12.2,0,716,1074,1000,261,2.92,342.52,1.28,44.86,259,163,164.5,164,27059,160068,980,1.04,0.04,0,-0.64,-1.95,5.98,1.82,-86.02,-24.65,-7.8,-14.52,-23.59,-10.92,Right Fall while Standing
02:12.3,0,705,1057.5,1000,261,2.92,342.52,1.28,44.86,259,162,164.5,164,27059,186312,1142,1.05,0.02,0,1.07,4.34,2.38,0.61,-87.23,-24.49,-7.56,-14.2,-23.48,-10.75,Right Fall while Standing
02:12.4,219,698,1047,1000,262,2.9,344.28,1.28,44.86,259,163,164.5,164,27059,212881,1305,1.03,0.03,-0.02,-1.08,4.84,-3.05,0.97,-86.38,-24.54,-7.28,-14.42,-23.52,-10.44,Right Fall while Standing
02:12.5,444,694,1041,1000,262,2.9,344.28,1.28,44.86,259,162,164.5,164,27059,239125,1467,1.01,0.04,0.01,-5.61,0.27,-6.76,1.84,-85.95,-25.05,-7.45,-15.02,-23.97,-10.59,Right Fall while Standing
02:12.6,632,693,1039.5,1000,262,2.9,344.28,1.28,52.35,261,162,162.9,162,26535,0,0,0.99,0.05,0,-3.82,1.31,-1.37,2.39,-85.45,-25.37,-7.52,-15.08,-24.26,-10.64,Right Fall while Standing
02:12.7,708,693,1039.5,1000,263,2.89,346.05,1.29,52.35,261,162,162.9,162,26535,26244,162,1.01,0.06,-0.01,-3.54,-9.32,5.86,2.82,-84.98,-25.67,-8.64,-14.42,-24.53,-11.7,Right Fall while Standing
02:12.8,725,694,1041,1000,263,2.89,346.05,1.29,52.35,261,162,162.9,162,26535,52488,324,1.04,0.04,-0.04,-4.24,-7.45,9.07,1.46,-85.56,-26.04,-9.59,-13.44,-24.94,-12.63,Right Fall while Standing
02:15.3,0,0,0,0,262,2.9,344.28,1.28,0,0,156,0,0,0,49300,314,1.01,-0.04,0.03,-6.06,-14.21,3.24,-2.91,-85.47,-0.58,-2.91,0.92,-0.67,-6.21,Forward Fall while Standing
02:15.4,418,209,313.5,418,262,2.9,344.28,1.28,0,0,156,0,0,0,73636,470,1.04,-0.07,0.01,5.67,6.88,-0.78,-4.41,-84.52,0.03,-2.44,0.92,-0.15,-5.72,Forward Fall while Standing
02:15.5,398,272,408,418,262,2.9,344.28,1.28,0,0,157,0,0,0,98285,627,1.02,-0.05,0.01,-5.78,-5.43,-2.6,-3.52,-85.46,-0.48,-3.16,0.75,-0.6,-6.45,Forward Fall while Standing
02:15.6,569,346,519,569,263,2.89,346.05,1.29,0,0,156,0,0,0,122621,783,1,-0.03,0,-12.22,-28.48,0.01,-2.53,-86.45,-1.62,-6.14,0.83,-1.66,-9.36,Forward Fall while Standing
02:15.7,651,407,610.5,651,264,2.88,347.83,1.29,0,0,157,0,0,0,147270,940,0.98,-0.04,-0.02,-4.53,-43.82,2.3,-2.87,-85.88,-2.01,-10.63,1.13,-2.05,-13.64,Forward Fall while Standing
02:15.8,649,447,670.5,651,264,2.88,347.83,1.29,0,0,157,0,0,0,171919,1097,1,-0.07,-0.16,1.46,-35.36,6.61,-4.61,-78.4,-1.81,-14.29,1.85,-1.93,-16.86,Forward Fall while Standing
02:15.9,661,478,717,661,264,2.88,347.83,1.29,0,0,158,0,0,0,196883,1255,1.02,-0.08,-0.22,-1.4,-30.63,5.6,-5.26,-75.53,-1.9,-17.49,2.48,-2.03,-19.81,Forward Fall while Standing
02:16.0,728,509,763.5,728,265,2.86,349.6,1.3,0,0,158,0,0,0,221847,1413,1,-0.1,-0.17,0.53,-29.69,2.01,-5.98,-77.6,-1.79,-20.66,2.76,-1.95,-22.94,Forward Fall while Standing
02:16.1,806,542,813,806,266,2.85,351.39,1.3,62.43,263,158,157.1,157,24680,0,0,0.98,-0.09,-0.34,7.96,-47.39,1.56,-5.41,-68.81,-0.95,-25.5,2.99,-1.13,-27.23,Forward Fall while Standing
02:16.2,993,587,880.5,993,266,2.85,351.39,1.3,62.43,263,157,157.1,157,24680,24649,157,0.85,-0.15,-0.31,3.5,-42.09,6.37,-10.23,-66.15,-0.55,-29.87,3.7,-0.94,-31.32,Forward Fall while Standing
02:16.3,997,624,936,997,266,2.85,351.39,1.3,62.43,263,160,157.1,157,24680,50249,317,0.92,-0.11,-0.45,2.64,-23.28,5.38,-6.75,-61.7,-0.23,-32.42,4.32,-0.49,-33.59,Forward Fall while Standing
02:16.4,995,655,982.5,997,267,2.83,353.17,1.3,62.43,263,164,157.1,157,24680,77145,481,0.96,-0.14,-0.5,-3.33,-23.79,2.69,-7.71,-60.09,-0.5,-35,4.67,-0.79,-36,Forward Fall while Standing
02:16.5,993,681,1021.5,997,268,2.82,354.97,1.31,62.43,263,167,157.1,157,24680,105034,648,0.91,-0.13,-0.51,-0.82,-23.09,-2.63,-7.97,-58.35,-0.53,-37.48,4.49,-0.83,-38.32,Forward Fall while Standing
02:16.6,992,703,1054.5,997,268,2.82,354.97,1.31,62.43,263,167,157.1,157,24680,132923,815,0.88,-0.14,-0.54,-1.51,-25.38,-0.95,-8.07,-55.95,-0.63,-40.28,4.47,-0.92,-40.9,Forward Fall while Standing
02:16.7,958,720,1080,997,269,2.8,356.76,1.31,62.43,263,168,157.1,157,24680,161147,983,0.8,-0.14,-0.65,2.36,-8.96,0.75,-8.05,-48.77,-0.33,-41.37,4.63,-0.64,-41.67,Forward Fall while Standing
02:16.8,884,730,1095,997,268,2.82,354.97,1.31,62.43,263,165,157.1,157,24680,188372,1148,0.86,-0.14,-0.63,-4.06,-13.79,1.12,-8.08,-51.83,-0.68,-42.93,4.82,-0.98,-43.29,Forward Fall while Standing
02:16.9,794,734,1101,997,268,2.82,354.97,1.31,62.43,263,164,157.1,157,24680,215268,1312,0.85,-0.14,-0.64,-2.71,-14.4,-2.3,-8.14,-50.68,-0.9,-44.61,4.66,-1.19,-44.85,Forward Fall while Standing
02:17.0,687,731,1096.5,997,268,2.82,354.97,1.31,62.43,263,166,157.1,157,24680,242824,1478,0.83,-0.14,-0.63,-2.01,-12.88,-1.41,-8.27,-50.6,-1.04,-46.1,4.6,-1.33,-46.28,Forward Fall while Standing
02:17.1,628,726,1089,997,268,2.82,354.97,1.31,77.94,267,167,164.53,164,27070,0,0,0.81,-0.15,-0.67,0.41,-8.6,-2.86,-8.67,-48.23,-0.95,-47.14,4.4,-1.26,-47.19,Forward Fall while Standing
02:17.2,638,721,1081.5,997,270,2.79,358.57,1.32,77.94,267,167,164.53,164,27070,27889,167,0.82,-0.13,-0.69,-1.21,-7.65,-1.72,-7.67,-47.61,-1.01,-48.11,4.3,-1.28,-48.09,Forward Fall while Standing
02:17.3,558,714,1071,997,269,2.8,356.76,1.31,77.94,267,164,164.53,164,27070,54785,331,0.82,-0.13,-0.77,-4.52,-6.4,-1.76,-7.37,-44.8,-1.41,-48.95,4.21,-1.65,-48.78,Forward Fall while Standing
02:17.4,600,708,1062,997,269,2.8,356.76,1.31,77.94,267,163,164.53,164,27070,81354,494,0.79,-0.14,-0.72,-5.7,-7.22,-1.37,-7.84,-45.57,-1.92,-49.87,4.15,-2.16,-49.7,Forward Fall while Standing
02:17.5,468,698,1047,997,269,2.8,356.76,1.31,77.94,267,167,164.53,164,27070,109243,661,0.78,-0.13,-0.74,-3.86,-5.05,1.07,-7.51,-44.58,-2.26,-50.58,4.34,-2.47,-50.34,Forward Fall while Standing
02:17.6,533,691,1036.5,997,269,2.8,356.76,1.31,77.94,267,169,164.53,164,27070,137804,830,0.79,-0.15,-0.72,-2.72,-5.08,-0.84,-8.33,-45.46,-2.47,-51.29,4.33,-2.71,-51.06,Forward Fall while Standing
02:17.7,457,682,1023,997,267,2.83,353.17,1.3,77.94,267,171,164.53,164,27070,167045,1001,0.75,-0.13,-0.74,-2.08,-7.05,-2.86,-7.61,-43.56,-2.62,-52.2,4.12,-2.82,-51.85,Forward Fall while Standing
02:17.8,485,674,1011,997,265,2.86,349.6,1.3,77.94,267,170,164.53,164,27070,195945,1171,0.77,-0.13,-0.74,-3.56,-5.45,-3.44,-7.39,-43.96,-2.93,-52.95,3.86,-3.11,-52.59,Forward Fall while Standing
02:17.9,439,665,997.5,997,262,2.9,344.28,1.28,77.94,267,171,164.53,164,27070,225186,1342,0.75,-0.13,-0.76,-1.51,-0.22,-4.08,-7.61,-42.88,-3.02,-53.17,3.53,-3.21,-52.76,Forward Fall while Standing
02:18.0,420,657,985.5,997,259,2.95,339.01,1.27,77.94,267,166,164.53,164,27070,252742,1508,0.77,-0.11,-0.79,-3.2,-3.69,-2.52,-6.5,-42.33,-3.29,-53.75,3.35,-3.42,-53.29,Forward Fall while Standing
02:18.1,326,645,967.5,997,255,3.01,332.03,1.25,70.17,265,167,167.52,167,28062,0,0,0.74,-0.12,-0.76,-2.43,-3.4,-2.95,-7.29,-42.16,-3.47,-54.28,3.14,-3.63,-53.79,Forward Fall while Standing
02:18.2,215,631,946.5,997,252,3.06,326.85,1.23,70.17,265,166,167.52,167,28062,27556,166,0.74,-0.12,-0.78,-3.58,-1.95,-1.74,-6.94,-41.57,-3.78,-54.67,3.05,-3.9,-54.15,Forward Fall while Standing
02:18.3,518,627,940.5,997,250,3.09,323.42,1.22,70.17,265,170,167.52,167,28062,56456,336,0.74,-0.12,-0.76,-0.45,0.05,-1.88,-7.07,-42.3,-3.76,-54.87,2.94,-3.9,-54.36,Forward Fall while Standing
02:18.4,318,618,927,997,247,3.14,318.3,1.21,70.17,265,168,167.52,167,28062,84680,504,0.73,-0.11,-0.77,-4.3,-1.87,-2.15,-6.53,-41.55,-4.13,-55.25,2.8,-4.23,-54.7,Forward Fall while Standing
02:18.5,410,611,916.5,997,245,3.18,314.91,1.2,70.17,265,170,167.52,167,28062,113580,674,0.73,-0.11,-0.76,-0.28,-2.31,-0.4,-6.62,-41.92,-4.11,-55.68,2.84,-4.21,-55.13,Forward Fall while Standing
02:18.6,413,605,907.5,997,244,3.19,313.22,1.19,70.17,265,173,167.52,167,28062,143509,847,0.75,-0.13,-0.82,-0.18,1.71,-1.66,-7.15,-40.5,-4.07,-55.71,2.75,-4.19,-55.1,Forward Fall while Standing
02:18.7,521,603,904.5,997,244,3.19,313.22,1.19,70.17,265,173,167.52,167,28062,173438,1020,0.76,-0.13,-0.77,-0.01,9.84,-3.17,-7.41,-42.48,-4.01,-54.94,2.52,-4.15,-54.44,Forward Fall while Standing
02:18.8,569,602,903,997,244,3.19,313.22,1.19,70.17,265,172,167.52,167,28062,203022,1192,0.74,-0.12,-0.79,0.05,16.2,-3.77,-7.01,-41.19,-3.95,-53.52,2.22,-4.07,-53.02,Forward Fall while Standing
02:18.9,561,601,901.5,997,243,3.21,311.54,1.19,70.17,265,173,167.52,167,28062,232951,1365,0.78,-0.11,-0.74,0.54,20.44,-2.27,-6.21,-44.63,-3.84,-51.65,2.07,-3.94,-51.37,Forward Fall while Standing
02:19.0,624,601,901.5,997,244,3.19,313.22,1.19,70.17,265,172,167.52,167,28062,262535,1537,0.81,-0.11,-0.76,-2.11,21.5,-2.78,-6.37,-44.98,-4,-49.7,1.87,-4.09,-49.51,Forward Fall while Standing
02:19.1,569,601,901.5,997,244,3.19,313.22,1.19,20724.18,245,171,170.81,170,29176,0,0,0.83,-0.11,-0.7,-3.56,24.31,-4.69,-6.59,-48.01,-4.29,-47.49,1.48,-4.39,-47.52,Forward Fall while Standing
02:19.2,640,602,903,997,244,3.19,313.22,1.19,20724.18,245,171,170.81,170,29176,29241,171,0.86,-0.11,-0.66,-2.44,26.7,-5.79,-6.44,-50.78,-4.48,-45,0.98,-4.56,-45.23,Forward Fall while Standing
02:19.3,525,600,900,997,244,3.19,313.22,1.19,20724.18,245,167,170.81,170,29176,57130,338,0.88,-0.11,-0.59,-0.11,32.89,-6.68,-6.48,-54.02,-4.44,-41.91,0.39,-4.52,-42.4,Forward Fall while Standing
02:19.4,334,593,889.5,997,245,3.18,314.91,1.2,20724.18,245,165,170.81,170,29176,84355,503,0.9,-0.09,-0.57,-10.66,27.35,-4.93,-5.69,-55.72,-5.45,-39.38,-0.02,-5.46,-40.03,Forward Fall while Standing
02:19.5,344,588,882,997,245,3.18,314.91,1.2,20724.18,245,160,170.81,170,29176,109955,663,0.87,-0.06,-0.43,5.98,25.7,-7.38,-4.23,-62.05,-4.78,-36.96,-0.7,-4.76,-37.96,Forward Fall while Standing
02:19.6,411,584,876,997,247,3.14,318.3,1.21,20724.18,245,158,170.81,170,29176,134919,821,0.91,-0.09,-0.44,7.69,28.89,-1.69,-5.47,-62.19,-3.96,-34.27,-0.79,-4.02,-35.39,Forward Fall while Standing
02:19.7,0,571,856.5,997,247,3.14,318.3,1.21,20724.18,245,157,170.81,170,29176,159568,978,0.9,-0.09,-0.47,4.98,34.92,3.37,-5.69,-60.61,-3.4,-30.98,-0.37,-3.49,-32.16,Forward Fall while Standing
02:19.8,460,568,852,997,248,3.13,320,1.21,20724.18,245,155,170.81,170,29176,183593,1133,0.95,-0.1,-0.41,2.66,38.27,9.86,-6.18,-64.5,-3.08,-27.31,0.71,-3.2,-28.8,Forward Fall while Standing
02:19.9,475,566,849,997,248,3.13,320,1.21,20724.18,245,154,170.81,170,29176,207309,1287,0.97,-0.12,-0.29,-9.01,24.98,4.26,-7.46,-70.15,-3.93,-24.99,1.22,-4.07,-26.8,Forward Fall while Standing
02:20.0,581,566,849,997,249,3.11,321.71,1.22,20724.18,245,153,170.81,170,29176,230718,1440,1,-0.12,-0.27,-9.69,21.2,0.09,-7.35,-71.66,-4.84,-23.07,1.3,-4.94,-25.02,Forward Fall while Standing
02:20.1,539,566,849,997,250,3.09,323.42,1.22,20724.19,246,167,160.81,160,25859,0,0,0.99,-0.14,-0.27,-13.7,22.99,1.6,-8.42,-71.51,-6.16,-20.97,1.54,-6.25,-23,Forward Fall while Standing
02:20.2,530,565,847.5,997,253,3.04,328.57,1.24,20724.19,246,180,160.81,160,25859,32400,180,0.97,-0.13,-0.19,-19.45,30.94,1.85,-8,-75.01,-8.05,-18.08,1.81,-8.04,-20.36,Forward Fall while Standing
02:20.3,465,563,844.5,997,253,3.04,328.57,1.24,20724.19,246,184,160.81,160,25859,720,364,0.81,-0.14,-0.17,-21.53,37.18,4.36,-10.16,-73.14,-10.16,-14.53,2.33,-10.16,-16.87,Forward Fall while Standing
02:20.4,591,564,846,997,253,3.04,328.57,1.24,20724.19,246,185,160.81,160,25859,4294936705,549,0.95,-0.13,-0.06,-25.05,6.89,13.06,-8.17,-79.91,-12.64,-14.03,3.72,-12.46,-16.67,Forward Fall while Standing
02:20.5,607,565,847.5,997,254,3.03,330.3,1.24,20724.19,246,189,160.81,160,25859,4294906890,738,1.02,-0.19,-0.05,-9.63,12.42,8.89,-11.03,-77.67,-13.55,-12.98,4.7,-13.45,-15.57,Forward Fall while Standing
02:20.6,588,565,847.5,997,255,3.01,332.03,1.25,20724.19,246,192,160.81,160,25859,4294878218,930,1.03,-0.19,-0.06,-3.38,34.33,1.13,-11.14,-77.43,-13.84,-9.65,4.9,-13.74,-12.36,Forward Fall while Standing
02:20.7,586,565,847.5,997,254,3.03,330.3,1.24,20724.19,246,192,160.81,160,25859,4294849546,1122,1.02,-0.19,-0.01,-10.33,8.54,0.44,-11.26,-77.73,-14.83,-8.99,5.02,-14.69,-11.74,Forward Fall while Standing
02:20.8,547,565,847.5,997,255,3.01,332.03,1.25,20724.19,246,194,160.81,160,25859,4294821646,1316,1.01,-0.2,0.02,-6.29,-10.7,-3.27,-11.85,-77.06,-15.41,-10.27,4.77,-15.27,-12.94,Forward Fall while Standing
02:20.9,526,564,846,997,255,3.01,332.03,1.25,20724.19,246,193,160.81,160,25859,4294793359,1509,1.02,-0.2,-0.01,6.56,3.52,-4.34,-11.73,-77.27,-14.68,-10.12,4.41,-14.56,-12.8,Forward Fall while Standing
02:21.0,570,564,846,997,255,3.01,332.03,1.25,20724.19,246,195,160.81,160,25859,4294765848,1704,1.01,-0.19,-0.04,6.78,5.9,-2.83,-11.26,-77.44,-13.94,-9.72,4.2,-13.83,-12.43,Forward Fall while Standing
02:21.1,536,564,846,997,257,2.98,335.51,1.26,20724.28,254,194,20723.75,189,429473792,0,0,1.05,-0.17,-0.02,6.05,1.6,-9.38,-9.92,-79.05,-13.27,-9.76,3.33,-13.13,-12.54,Forward Fall while Standing
02:21.2,549,564,846,997,256,3,333.77,1.25,20724.28,254,195,20723.75,189,429473792,4294939785,195,1.02,-0.16,-0.03,3.71,6.33,-8.28,-9.32,-79.47,-12.83,-9.32,2.57,-12.69,-12.13,Forward Fall while Standing
02:21.3,577,564,846,997,257,2.98,335.51,1.26,20724.28,254,194,20723.75,189,429473792,4294911885,389,0.99,-0.15,0,-1.4,8.4,-0.85,-9.14,-79.86,-12.92,-8.67,2.56,-12.77,-11.52,Forward Fall while Standing
02:21.4,572,564,846,997,257,2.98,335.51,1.26,20724.28,254,208,20723.75,189,429473792,4294889613,597,0.99,-0.16,0.01,-1.19,0.19,-6.14,-9.95,-79.05,-12.98,-8.86,2.01,-12.86,-11.66,Forward Fall while Standing
02:21.5,592,564,846,997,258,2.97,337.25,1.26,20724.28,254,206,20723.75,189,429473792,4294866513,803,1,-0.12,-0.02,-5.93,-3.3,0.23,-7.59,-81.3,-13.53,-9.39,2.12,-13.29,-12.27,Forward Fall while Standing
02:21.6,605,565,847.5,997,259,2.95,339.01,1.27,20724.28,254,208,20723.75,189,429473792,4294844241,1011,1.02,-0.15,-0.03,7.63,11.24,3.69,-8.7,-80.1,-12.68,-8.44,2.58,-12.52,-11.31,Forward Fall while Standing
02:21.7,584,565,847.5,997,259,2.95,339.01,1.27,20724.28,254,208,20723.75,189,429473792,4294821969,1219,1.04,-0.18,-0.07,5.25,4.05,8.8,-10.12,-78.17,-12.09,-8.23,3.56,-12.01,-11.03,Forward Fall while Standing
02:21.8,545,565,847.5,997,259,2.95,339.01,1.27,20724.28,254,208,20723.75,189,429473792,4294799697,1427,1.04,-0.17,0.03,4.06,0.3,-0.92,-9.58,-79.28,-11.62,-8.4,3.54,-11.54,-11.24,Forward Fall while Standing
04:47.4,375,514,771,898,400,1.56,642.05,1.96,168.9,399,260,39.96,259,1596,0,0,1.02,-0.1,-0.04,-1.72,1.45,-3.27,-6.19,-82.32,-4.26,-5.97,-2.25,-4.34,-9.02,Sitting
04:47.5,287,507,760.5,898,400,1.56,642.05,1.96,168.9,399,260,39.96,259,1596,2064,260,1,-0.09,-0.03,-2.59,0.92,-1.43,-5.75,-82.96,-4.47,-6.08,-2.31,-4.52,-9.15,Sitting
04:47.6,265,499,748.5,898,400,1.56,642.05,1.96,168.9,399,260,39.96,259,1596,4128,520,1.02,-0.09,-0.03,-2.05,0.21,1.37,-5.9,-82.86,-4.61,-6.25,-2.1,-4.66,-9.32,Sitting
04:47.7,221,490,735,898,400,1.56,642.05,1.96,168.9,399,260,39.96,259,1596,6192,780,1.03,-0.1,-0.04,-1.44,-0.5,-1.17,-6.32,-82.29,-4.7,-6.5,-2.13,-4.76,-9.53,Sitting
04:47.8,69,477,715.5,898,400,1.56,642.05,1.96,168.9,399,260,39.96,259,1596,8256,1040,1.02,-0.1,-0.02,-1.21,0.75,-2.53,-6.01,-82.82,-4.76,-6.62,-2.31,-4.81,-9.67,Sitting
04:47.9,78,466,699,898,400,1.56,642.05,1.96,168.9,399,259,39.96,259,1596,9801,1299,1.01,-0.09,-0.04,-2.18,0.38,-0.02,-5.61,-82.89,-4.92,-6.78,-2.23,-4.95,-9.83,Sitting
04:48.0,186,458,687,898,400,1.56,642.05,1.96,168.9,399,259,39.96,259,1596,11346,1558,1.01,-0.1,-0.04,-1.32,2.49,0.61,-6.48,-82.18,-5,-6.74,-2.09,-5.06,-9.75,Sitting
04:48.1,317,454,681,898,401,1.55,644.69,1.96,168.9,399,260,39.96,259,1596,13410,1818,1.02,-0.11,-0.03,-1.34,1.57,-0.34,-6.77,-82.03,-5.08,-6.78,-2.05,-5.15,-9.79,Sitting
04:48.2,456,454,681,898,401,1.55,644.69,1.96,168.9,399,260,39.96,259,1596,15474,2078,1.03,-0.1,-0.03,-3.08,1.86,-1.62,-6.33,-82.47,-5.33,-6.79,-2.13,-5.37,-9.82,Sitting
04:48.3,589,457,685.5,898,401,1.55,644.69,1.96,168.9,399,260,39.96,259,1596,17538,2338,1.02,-0.11,-0.02,-2.15,0.47,-1.82,-6.58,-82.35,-5.49,-6.95,-2.23,-5.53,-9.96,Sitting
04:48.4,633,462,693,898,402,1.54,647.34,1.96,171.25,400,259,43.68,259,1907,0,0,1.02,-0.1,-0.03,-2.6,-0.32,-1.4,-6.14,-82.59,-5.69,-7.17,-2.29,-5.71,-10.19,Sitting
04:48.5,520,463,694.5,898,402,1.54,647.34,1.96,171.25,400,260,43.68,259,1907,2064,260,1,-0.1,-0.03,-1.5,0.63,-0.92,-6.52,-82.18,-5.78,-7.31,-2.31,-5.81,-10.3,Sitting
04:48.6,702,469,703.5,898,401,1.55,644.69,1.96,171.25,400,260,43.68,259,1907,4128,520,1.01,-0.1,-0.03,-0.95,0.33,0.11,-5.97,-82.71,-5.82,-7.48,-2.22,-5.82,-10.48,Sitting
04:48.7,794,477,715.5,898,402,1.54,647.34,1.96,171.25,400,260,43.68,259,1907,6192,780,1.03,-0.11,-0.04,-2.06,1.74,-0.98,-6.61,-81.91,-5.97,-7.5,-2.24,-5.99,-10.48,Sitting
04:48.8,774,484,726,898,402,1.54,647.34,1.96,171.25,400,259,43.68,259,1907,7737,1039,1.02,-0.1,-0.03,-2.37,3.05,-2.68,-5.98,-82.8,-6.15,-7.4,-2.42,-6.14,-10.41,Sitting
04:48.9,745,490,735,898,402,1.54,647.34,1.96,171.25,400,260,43.68,259,1907,9801,1299,1.01,-0.09,-0.03,-3.44,1.38,-0.76,-5.9,-82.89,-6.44,-7.46,-2.42,-6.41,-10.48,Sitting
04:49.0,745,495,742.5,898,402,1.54,647.34,1.96,171.25,400,260,43.68,259,1907,11865,1559,1.01,-0.1,-0.02,-2.35,1.53,0.53,-6.45,-82.43,-6.61,-7.51,-2.29,-6.61,-10.5,Sitting
04:49.1,651,499,748.5,898,403,1.54,650,1.97,171.25,400,260,43.68,259,1907,13929,1819,1.03,-0.12,-0.02,-1.92,1.56,-1.01,-7.09,-81.79,-6.75,-7.55,-2.31,-6.76,-10.52,Sitting
04:49.2,603,501,751.5,898,402,1.54,647.34,1.96,171.25,400,260,43.68,259,1907,15993,2079,1.02,-0.1,-0.01,-1.92,1.24,-2.98,-6.24,-82.73,-6.88,-7.63,-2.53,-6.86,-10.63,Sitting
04:49.3,631,504,756,898,402,1.54,647.34,1.96,171.25,400,260,43.68,259,1907,18057,2339,1,-0.09,-0.01,-2.5,0.7,-0.83,-5.68,-83.29,-7.08,-7.76,-2.53,-7.02,-10.78,Sitting
04:49.4,583,505,757.5,898,403,1.54,650,1.97,174.96,402,260,44.86,259,2011,0,0,1.02,-0.1,-0.03,-1.31,1.13,1.25,-6.36,-82.47,-7.15,-7.84,-2.33,-7.12,-10.83,Sitting
04:49.5,558,506,759,898,403,1.54,650,1.97,174.96,402,260,44.86,259,2011,2064,260,1.03,-0.13,-0.02,-2.08,0.38,-1.4,-7.58,-81.35,-7.3,-8,-2.39,-7.31,-10.93,Sitting
04:49.6,570,507,760.5,898,402,1.54,647.34,1.96,174.96,402,260,44.86,259,2011,4128,520,1.02,-0.1,-0.02,-1.91,0.21,-4.82,-6.41,-82.45,-7.44,-8.18,-2.8,-7.4,-11.15,Sitting
04:49.7,558,508,762,898,402,1.54,647.34,1.96,174.96,402,260,44.86,259,2011,6192,780,1,-0.08,-0.04,-2.4,1.04,-1.92,-5.34,-83.14,-7.62,-8.28,-2.91,-7.53,-11.27,Sitting
04:49.8,743,513,769.5,898,403,1.54,650,1.97,174.96,402,260,44.86,259,2011,8256,1040,1.01,-0.1,-0.03,-2.81,0.27,2.06,-5.96,-82.82,-7.84,-8.45,-2.63,-7.77,-11.42,Sitting
04:49.9,489,512,768,898,402,1.54,647.34,1.96,174.96,402,259,44.86,259,2011,9801,1299,1.02,-0.11,-0.03,-3.41,3.21,-0.24,-6.95,-81.8,-8.13,-8.33,-2.57,-8.08,-11.26,Sitting
04:50.0,499,512,768,898,402,1.54,647.34,1.96,174.96,402,259,44.86,259,2011,11346,1558,1.02,-0.11,-0.01,-3.35,1.62,-1.88,-6.58,-82.4,-8.41,-8.36,-2.68,-8.33,-11.33,Sitting
04:50.1,400,510,765,898,402,1.54,647.34,1.96,174.96,402,260,44.86,259,2011,13410,1818,1.02,-0.1,-0.02,-2.64,-0.04,-1.79,-6.15,-82.76,-8.61,-8.57,-2.78,-8.51,-11.53,Sitting
04:50.2,378,508,762,898,401,1.55,644.69,1.96,174.96,402,259,44.86,259,2011,14955,2077,1.01,-0.1,-0.02,-0.73,-0.78,-1.58,-6.06,-82.87,-8.63,-8.85,-2.86,-8.53,-11.81,Sitting
04:50.3,311,504,756,898,401,1.55,644.69,1.96,174.96,402,260,44.86,259,2011,17019,2337,1.01,-0.1,-0.03,-1.24,0.42,0.76,-6.41,-82.33,-8.7,-9,-2.71,-8.61,-11.94,Sitting
04:50.4,279,501,751.5,898,402,1.54,647.34,1.96,174.73,402,259,43.08,259,1855,0,0,1.01,-0.12,-0.03,-1.82,1.89,-0.49,-7.08,-81.65,-8.82,-9.01,-2.68,-8.75,-11.92,Sitting
04:50.5,120,494,741,898,401,1.55,644.69,1.96,174.73,402,260,43.08,259,1855,2064,260,1.02,-0.11,-0.03,-2.47,1.99,-2.72,-6.67,-82.13,-9.01,-9.02,-2.87,-8.92,-11.94,Sitting
04:50.6,101,488,732,898,401,1.55,644.69,1.96,174.73,402,260,43.08,259,1855,4128,520,1.01,-0.1,-0.02,-2.14,1.95,-2.54,-6.36,-82.48,-9.17,-9.02,-3.05,-9.06,-11.96,Sitting
04:50.7,112,482,723,898,401,1.55,644.69,1.96,174.73,402,259,43.08,259,1855,5673,779,1.01,-0.1,-0.01,-1.8,2.33,-0.58,-6.14,-82.85,-9.29,-8.99,-3.03,-9.17,-11.94,Sitting
04:50.8,107,476,714,898,402,1.54,647.34,1.96,174.73,402,259,43.08,259,1855,7218,1038,1.02,-0.11,-0.03,-2.73,-2.56,-0.57,-6.61,-82.08,-9.51,-9.44,-3,-9.39,-12.35,Sitting
04:50.9,209,472,708,898,402,1.54,647.34,1.96,174.73,402,260,43.08,259,1855,9282,1298,1.02,-0.1,-0.03,-0.52,2.21,-1.28,-6.21,-82.59,-9.51,-9.42,-3.05,-9.37,-12.35,Sitting
04:51.0,328,469,703.5,898,401,1.55,644.69,1.96,174.73,402,260,43.08,259,1855,11346,1558,1.02,-0.1,-0.02,-2.22,1.25,0.2,-6.09,-82.79,-9.67,-9.5,-2.95,-9.53,-12.43,Sitting
04:51.1,825,475,712.5,898,403,1.54,650,1.97,174.73,402,259,43.08,259,1855,12891,1817,1.02,-0.11,-0.03,-2.49,3.03,-1.72,-6.95,-81.88,-9.86,-9.39,-3.05,-9.75,-12.29,Sitting
04:51.2,641,477,715.5,898,402,1.54,647.34,1.96,174.73,402,260,43.08,259,1855,14955,2077,1.02,-0.11,-0.02,-3,2.09,-2.44,-6.54,-82.39,-10.11,-9.39,-3.21,-9.97,-12.31,Sitting
04:51.3,762,481,721.5,898,402,1.54,647.34,1.96,174.73,402,260,43.08,259,1855,17019,2337,1,-0.1,-0.01,-1.35,2.33,-0.4,-6.36,-82.61,-10.19,-9.35,-3.17,-10.03,-12.28,Sitting
04:51.4,763,485,727.5,898,402,1.54,647.34,1.96,174.04,401,260,43.68,259,1907,0,0,1.02,-0.11,-0.01,-1.56,-0.92,0.27,-6.62,-82.35,-10.29,-9.64,-3.07,-10.14,-12.55,Sitting
04:51.5,846,491,736.5,898,402,1.54,647.34,1.96,174.04,401,260,43.68,259,1907,2064,260,1.02,-0.12,-0.02,-1.92,-0.44,-1.85,-7.01,-81.85,-10.42,-9.89,-3.17,-10.29,-12.76,Sitting
04:51.6,796,495,742.5,898,402,1.54,647.34,1.96,174.04,401,260,43.68,259,1907,4128,520,1.01,-0.1,-0.04,-2.75,0.46,-3.26,-6.39,-82.17,-10.64,-10.04,-3.42,-10.47,-12.92,Sitting
04:51.7,747,498,747,898,402,1.54,647.34,1.96,174.04,401,260,43.68,259,1907,6192,780,1,-0.1,-0.02,-1.55,3.01,-0.56,-6.13,-82.77,-10.74,-9.94,-3.4,-10.56,-12.85,Sitting
04:51.8,588,500,750,898,402,1.54,647.34,1.96,174.04,401,260,43.68,259,1907,8256,1040,1.02,-0.11,-0.02,-3.22,1.23,-0.09,-6.52,-82.37,-11,-10.01,-3.33,-10.83,-12.91,Sitting
04:51.9,684,502,753,898,403,1.54,650,1.97,174.04,401,260,43.68,259,1907,10320,1300,1.02,-0.11,-0.01,-1.88,0.63,-0.95,-6.64,-82.35,-11.14,-10.15,-3.34,-10.96,-13.04,Sitting
04:52.0,691,505,757.5,898,403,1.54,650,1.97,174.04,401,259,43.68,259,1907,11865,1559,1.02,-0.1,-0.01,-1.57,0.75,-1.99,-6.28,-82.67,-11.24,-10.28,-3.46,-11.04,-13.17,Sitting
04:52.1,570,505,757.5,898,403,1.54,650,1.97,174.04,401,259,43.68,259,1907,13410,1818,1.01,-0.11,-0.02,-2.11,1.06,-0.39,-6.75,-82.18,-11.39,-10.37,-3.42,-11.21,-13.24,Sitting
04:52.2,552,506,759,898,403,1.54,650,1.97,174.04,401,260,43.68,259,1907,15474,2078,1.01,-0.1,-0.01,-2.33,1.5,-1.3,-6.51,-82.47,-11.57,-10.42,-3.48,-11.37,-13.3,Sitting
04:52.3,576,507,760.5,898,404,1.53,652.67,1.97,174.04,401,259,43.68,259,1907,17019,2337,1.02,-0.1,-0.01,-1.44,0.71,-1.11,-6.37,-82.57,-11.66,-10.55,-3.51,-11.45,-13.43,Sitting
04:52.4,504,507,760.5,898,403,1.54,650,1.97,176.34,402,259,43.08,259,1855,0,0,1.01,-0.11,-0.01,-2.6,0.09,-1.35,-6.57,-82.38,-11.86,-10.74,-3.56,-11.65,-13.61,Sitting
04:52.5,457,506,759,898,404,1.53,652.67,1.97,176.34,402,259,43.08,259,1855,1545,259,1.02,-0.1,-0.03,-3.1,1.01,-2.02,-6.16,-82.63,-12.11,-10.84,-3.68,-11.87,-13.71,Sitting
04:52.6,486,506,759,898,404,1.53,652.67,1.97,176.34,402,260,43.08,259,1855,3609,519,1.01,-0.1,-0.01,-1.85,1.53,-1.72,-6.03,-82.91,-12.24,-10.89,-3.78,-11.99,-13.77,Sitting
04:52.7,494,506,759,898,404,1.53,652.67,1.97,176.34,402,260,43.08,259,1855,5673,779,1.01,-0.1,-0.02,-2.4,-0.05,-0.62,-6.15,-82.76,-12.43,-11.09,-3.76,-12.18,-13.96,Sitting
04:52.8,462,505,757.5,898,404,1.53,652.67,1.97,176.34,402,259,43.08,259,1855,7218,1038,1.02,-0.1,-0.01,-1.69,1.89,-1.43,-6.27,-82.68,-12.54,-11.1,-3.82,-12.29,-13.97,Sitting
04:52.9,451,505,757.5,898,404,1.53,652.67,1.97,176.34,402,259,43.08,259,1855,8763,1297,1.02,-0.1,0,-1.06,0.97,-1.32,-6.11,-82.89,-12.59,-11.21,-3.88,-12.33,-14.07,Sitting
04:53.0,472,504,756,898,405,1.53,655.34,1.98,176.34,402,259,43.08,259,1855,10308,1556,1.02,-0.1,-0.03,-2.37,-0.31,-0.76,-6.1,-82.67,-12.77,-11.44,-3.88,-12.5,-14.29,Sitting
04:53.1,401,503,754.5,898,404,1.53,652.67,1.97,176.34,402,259,43.08,259,1855,11853,1815,1.02,-0.1,-0.03,-2.18,1.06,-1.03,-6.37,-82.35,-12.93,-11.53,-3.9,-12.67,-14.36,Sitting
04:53.2,342,501,751.5,898,405,1.53,655.34,1.98,176.34,402,259,43.08,259,1855,13398,2074,1.01,-0.1,-0.02,-2.21,2.08,-1.39,-6.12,-82.78,-13.1,-11.52,-3.96,-12.82,-14.37,Sitting
04:53.3,322,499,748.5,898,404,1.53,652.67,1.97,176.34,402,259,43.08,259,1855,14943,2333,1.01,-0.1,-0.02,-2.71,0.53,-0.2,-6.31,-82.6,-13.31,-11.67,-3.9,-13.03,-14.51,Sitting
04:53.4,306,497,745.5,898,405,1.53,655.34,1.98,112.81,404,259,40.6,259,1647,0,0,1.02,-0.1,-0.02,-0.97,1.34,-0.65,-6.23,-82.65,-13.35,-11.74,-3.89,-13.07,-14.57,Sitting
04:53.5,249,494,741,898,405,1.53,655.34,1.98,112.81,404,260,40.6,259,1647,2064,260,1.02,-0.11,-0.01,-1.65,0.3,-0.98,-6.46,-82.51,-13.46,-11.91,-3.91,-13.18,-14.73,Sitting
04:53.6,290,492,738,898,406,1.52,658.02,1.98,112.81,404,262,40.6,259,1647,5172,522,1.02,-0.1,-0.02,-2.27,1.45,-2.41,-6.28,-82.6,-13.63,-11.96,-4.07,-13.34,-14.79,Sitting
04:53.7,102,488,732,898,406,1.52,658.02,1.98,112.81,404,262,40.6,259,1647,8280,784,1.01,-0.1,-0.01,-2.04,1.5,-1.69,-6.2,-82.76,-13.78,-12.01,-4.16,-13.48,-14.84,Sitting
04:53.8,137,484,726,898,406,1.52,658.02,1.98,112.81,404,261,40.6,259,1647,10865,1045,1,-0.09,-0.01,-1.5,2.22,0.32,-5.69,-83.25,-13.88,-11.99,-4.05,-13.55,-14.84,Sitting
04:53.9,150,480,720,898,406,1.52,658.02,1.98,112.81,404,262,40.6,259,1647,13973,1307,1.02,-0.11,-0.01,-1.99,1.98,0.4,-6.52,-82.45,-14.02,-11.99,-3.93,-13.72,-14.81,Sitting
04:54.0,238,478,717,898,406,1.52,658.02,1.98,112.81,404,261,40.6,259,1647,16558,1568,1.02,-0.1,0,-1.6,2.45,-0.29,-6.35,-82.65,-14.12,-11.95,-3.88,-13.81,-14.77,Sitting
04:54.1,339,476,714,898,406,1.52,658.02,1.98,112.81,404,261,40.6,259,1647,19143,1829,1.02,-0.11,-0.01,-2.88,-0.54,-1.22,-6.77,-82.18,-14.36,-12.2,-3.92,-14.05,-15,Sitting
04:54.2,499,477,715.5,898,406,1.52,658.02,1.98,112.81,404,260,40.6,259,1647,21207,2089,1.01,-0.1,-0.03,-2.85,1.39,-2.38,-6.11,-82.71,-14.59,-12.26,-4.08,-14.25,-15.08,Sitting
04:54.3,648,478,717,898,406,1.52,658.02,1.98,112.81,404,260,40.6,259,1647,23271,2349,1.01,-0.1,-0.01,-1.56,1.76,-0.15,-6.44,-82.53,-14.69,-12.29,-4.02,-14.36,-15.1,Sitting
04:54.4,658,480,720,898,406,1.52,658.02,1.98,20723.53,405,261,50.84,261,2584,0,0,1.01,-0.1,-0.01,-2.02,0.8,0.44,-6.48,-82.46,-14.83,-12.41,-3.89,-14.5,-15.21,Sitting
04:54.5,670,482,723,898,406,1.52,658.02,1.98,20723.53,405,259,50.84,261,2584,1545,259,1.02,-0.12,-0.03,-1.63,1.4,-0.98,-7.01,-81.83,-14.94,-12.47,-3.91,-14.62,-15.24,Sitting
04:54.6,753,490,735,753,407,1.51,660.71,1.99,20723.53,405,260,50.84,261,2584,3609,519,1.02,-0.12,-0.01,-1.82,0.9,-2.32,-7.05,-81.91,-15.07,-12.58,-4.07,-14.75,-15.35,Sitting
04:54.7,717,497,745.5,753,406,1.52,658.02,1.98,20723.53,405,259,50.84,261,2584,5154,778,1.01,-0.1,-0.02,-2.97,0.47,-2.18,-6.21,-82.65,-15.31,-12.73,-4.21,-14.94,-15.53,Sitting
04:54.8,780,504,756,780,407,1.51,660.71,1.99,20723.53,405,260,50.84,261,2584,7218,1038,1.02,-0.11,-0.01,-1.1,1.59,-1.07,-6.61,-82.37,-15.36,-12.77,-4.23,-15.01,-15.56,Sitting
04:54.9,785,510,765,785,407,1.51,660.71,1.99,20723.53,405,260,50.84,261,2584,9282,1298,1.01,-0.11,-0.01,-1.47,-0.14,-0.67,-6.53,-82.46,-15.45,-12.99,-4.22,-15.1,-15.77,Sitting
04:55.0,681,513,769.5,785,407,1.51,660.71,1.99,20723.53,405,261,50.84,261,2584,11867,1559,1.02,-0.11,-0.02,-3,-1.04,-0.47,-6.62,-82.31,-15.7,-13.29,-4.19,-15.34,-16.06,Sitting
04:55.1,609,513,769.5,785,407,1.51,660.71,1.99,20723.53,405,261,50.84,261,2584,14452,1820,1.01,-0.1,-0.03,-2.22,1.37,-1.63,-6.26,-82.56,-15.87,-13.36,-4.27,-15.48,-16.13,Sitting
04:55.2,638,510,765,785,407,1.51,660.71,1.99,20723.53,405,261,50.84,261,2584,17037,2081,1.02,-0.11,-0.02,-1.69,1.9,-1.99,-6.65,-82.29,-15.98,-13.37,-4.4,-15.61,-16.12,Sitting
04:55.3,599,509,763.5,785,408,1.51,663.41,1.99,20723.53,405,261,50.84,261,2584,19622,2342,1.01,-0.11,-0.02,-2.21,0.14,-2.82,-6.57,-82.36,-16.15,-13.56,-4.6,-15.76,-16.31,Sitting
04:55.4,552,506,759,785,407,1.51,660.71,1.99,20723.56,406,261,47.12,260,2219,0,0,1,-0.1,-0.02,-1.5,0.02,-0.79,-6.19,-82.72,-16.24,-13.75,-4.6,-15.84,-16.51,Sitting
04:55.5,546,504,756,785,408,1.51,663.41,1.99,20723.56,406,261,47.12,260,2219,2585,261,1.01,-0.1,-0.03,-1.82,0.44,-0.69,-6.34,-82.47,-16.37,-13.91,-4.59,-15.97,-16.65,Sitting
04:55.6,552,502,753,785,407,1.51,660.71,1.99,20723.56,406,261,47.12,260,2219,5170,522,1.01,-0.11,-0.02,-1.88,1.21,-1.46,-6.51,-82.41,-16.5,-13.99,-4.66,-16.1,-16.73,Sitting
04:55.7,556,500,750,785,408,1.51,663.41,1.99,20723.56,406,261,47.12,260,2219,7755,783,1.02,-0.1,-0.03,-2.34,0.16,-1.41,-6.14,-82.65,-16.68,-14.17,-4.72,-16.26,-16.91,Sitting
04:55.8,504,498,747,785,407,1.51,660.71,1.99,20723.56,406,261,47.12,260,2219,10340,1044,1.02,-0.1,-0.03,-2.29,0.64,-1.76,-6.4,-82.42,-16.85,-14.31,-4.82,-16.43,-17.03,Sitting
04:55.9,538,497,745.5,785,408,1.51,663.41,1.99,20723.56,406,261,47.12,260,2219,12925,1305,1.01,-0.11,-0.02,-2.18,0.78,-1.73,-6.56,-82.28,-17.01,-14.43,-4.91,-16.6,-17.15,Sitting
05:02.0,17,17,25.5,17,386,1.65,605.97,1.89,0,0,233,0,0,0,4294945738,468,1,-0.14,0.09,-8.01,-1.21,-6.68,-8.28,-79.08,-1.02,0,-0.94,-1.31,-3.16,Left Fall while Sitting
05:02.1,0,8,12,17,383,1.67,598.44,1.87,0,0,222,0,0,0,4294929486,690,1,-0.12,0.05,-5.53,-2.89,-3.58,-7.39,-81.01,-1.5,-0.47,-1.21,-1.74,-3.69,Left Fall while Sitting
05:02.2,0,5,7.5,17,380,1.69,590.98,1.86,0,0,221,0,0,0,4294912791,911,1.04,-0.13,0.09,-4.08,1.69,-4.69,-7.85,-79.66,-1.84,-0.5,-1.59,-2.08,-3.67,Left Fall while Sitting
05:02.3,0,4,6,17,379,1.7,588.51,1.85,0,0,220,0,0,0,4294895655,1131,1.02,-0.12,0.08,-3.02,0.66,-18.15,-7.43,-80.3,-2.08,-0.63,-3.27,-2.29,-3.82,Left Fall while Sitting
05:02.4,71,17,25.5,71,378,1.71,586.05,1.85,0,0,220,0,0,0,4294878519,1351,1,-0.08,0.07,-3.64,-8.14,-22.12,-5.05,-82.5,-2.39,-1.63,-5.38,-2.49,-4.87,Left Fall while Sitting
05:02.5,441,88,132,441,377,1.71,583.59,1.84,0,0,221,0,0,0,4294861824,1572,0.98,-0.04,0.05,-1.9,-11.44,-14.97,-2.78,-84.67,-2.52,-2.95,-6.77,-2.53,-6.22,Left Fall while Sitting
05:02.6,812,191,286.5,812,376,1.72,581.14,1.84,0,0,224,0,0,0,4294846464,1796,1,-0.03,0.06,-3.93,-2.91,-8.78,-2.07,-84.43,-2.85,-3.44,-7.57,-2.82,-6.68,Left Fall while Sitting
05:02.7,995,292,438,995,375,1.73,578.7,1.83,0,0,225,0,0,0,4294831553,2021,1.02,-0.01,0.03,1.68,-0.26,-11.27,-1.17,-86.54,-2.63,-3.66,-8.6,-2.57,-6.98,Left Fall while Sitting
05:02.8,997,370,555,997,374,1.74,576.27,1.83,114.55,379,225,20723.94,224,429481664,0,0,1.03,0,0.01,-4.8,-7.98,-18.87,-0.31,-87.64,-3.05,-4.66,-10.41,-2.94,-7.98,Left Fall while Sitting
05:02.9,977,431,646.5,997,372,1.75,571.43,1.82,114.55,379,224,20723.94,224,429481664,4294951936,224,1.06,0.03,0.02,-0.58,-3.5,-28.1,1.07,-86.4,-3.06,-5.21,-13.17,-2.89,-8.46,Left Fall while Sitting
05:03.0,953,478,717,997,370,1.76,566.62,1.81,114.55,379,223,20723.94,224,429481664,4294936129,447,1.01,0.07,-0.04,-5.71,-6.09,-36.38,3.52,-83.79,-3.58,-6.04,-16.8,-3.3,-9.15,Left Fall while Sitting
05:03.1,792,504,756,997,369,1.77,564.22,1.8,114.55,379,224,20723.94,224,429481664,4294920769,671,0.98,0.17,0.03,-7.95,5.05,-27.21,8.97,-78.75,-4.33,-5.73,-19.5,-3.8,-8.65,Left Fall while Sitting
05:03.2,726,521,781.5,997,367,1.79,559.45,1.79,114.55,379,223,20723.94,224,429481664,4294904962,894,0.98,0.21,-0.02,-7.79,7.15,-21.69,11.3,-76.5,-5.07,-5.2,-21.63,-4.42,-8.05,Left Fall while Sitting
05:03.3,636,529,793.5,997,366,1.8,557.08,1.79,114.55,379,222,20723.94,224,429481664,4294888710,1116,0.96,0.24,0.02,-0.75,5.82,-18,13.51,-74.27,-5.09,-4.81,-23.38,-4.35,-7.59,Left Fall while Sitting
05:03.4,410,521,781.5,997,364,1.81,552.35,1.78,114.55,379,222,20723.94,224,429481664,4294872458,1338,0.98,0.28,0.03,0.33,2.96,-14.79,15.61,-72.14,-5,-4.72,-24.8,-4.18,-7.41,Left Fall while Sitting
05:03.5,388,513,769.5,997,363,1.82,550,1.77,114.55,379,222,20723.94,224,429481664,4294856206,1560,0.98,0.29,0.03,0.68,2.35,-13.35,15.9,-71.83,-4.88,-4.68,-26.08,-4.04,-7.37,Left Fall while Sitting
05:03.6,332,502,753,997,361,1.83,545.32,1.76,114.55,379,222,20723.94,224,429481664,4294839954,1782,0.97,0.29,0.02,7.51,-5,-18.18,16.36,-71.44,-4.05,-5.39,-27.85,-3.24,-8.04,Left Fall while Sitting
05:03.7,104,480,720,997,359,1.85,540.66,1.75,114.55,379,223,20723.94,224,429481664,4294824147,2005,0.96,0.33,-0.03,5.06,-3.27,-18.27,18.4,-69.37,-3.48,-5.93,-29.62,-2.61,-8.46,Left Fall while Sitting
05:03.8,135,462,693,997,357,1.87,536.04,1.74,45.03,364,222,20723.92,222,429480800,0,0,0.92,0.37,0,0.56,-2.32,-20.33,21.12,-66.72,-3.37,-6.36,-31.59,-2.39,-8.78,Left Fall while Sitting
05:03.9,174,448,672,997,354,1.89,529.15,1.73,45.03,364,222,20723.92,222,429480800,4294951044,222,0.89,0.38,0,4.53,-6.75,-15.07,22.26,-65.58,-2.86,-7.25,-33.03,-1.85,-9.58,Left Fall while Sitting
05:04.0,39,428,642,997,352,1.91,524.59,1.72,45.03,364,222,20723.92,222,429480800,4294934792,444,0.89,0.41,-0.03,4,-1.33,-10.45,24.3,-63.47,-2.39,-7.59,-34.02,-1.32,-9.82,Left Fall while Sitting
05:04.1,140,415,622.5,997,350,1.92,520.06,1.71,45.03,364,223,20723.92,222,429480800,4294918985,667,0.92,0.44,-0.08,-2.79,4.84,-5.05,24.7,-62.69,-2.62,-7.3,-34.45,-1.52,-9.52,Left Fall while Sitting
05:04.2,166,404,606,997,347,1.95,513.31,1.7,45.03,364,223,20723.92,222,429480800,4294903178,890,0.97,0.42,-0.05,-8.77,1.37,-6.36,22.68,-65,-3.45,-7.36,-35.01,-2.4,-9.67,Left Fall while Sitting
05:04.4,169,394,591,997,343,1.98,504.41,1.68,45.03,364,222,20723.92,222,429480800,4294886926,1112,0.88,0.43,0.02,2.5,-10.59,-9.03,25.15,-62.66,-3.13,-8.65,-35.85,-2,-10.81,Left Fall while Sitting
05:04.5,268,389,583.5,997,340,2.01,497.8,1.66,45.03,364,222,20723.92,222,429480800,4294870674,1334,0.91,0.45,-0.05,8.73,-4.69,-7.27,25.96,-61.69,-2.19,-9.33,-36.51,-1.06,-11.42,Left Fall while Sitting
05:04.6,352,388,582,997,337,2.04,491.25,1.65,45.03,364,222,20723.92,222,429480800,4294854422,1556,0.92,0.48,-0.09,-2.44,4.11,-9.3,26.7,-60.64,-2.38,-9.12,-37.37,-1.21,-11.18,Left Fall while Sitting
05:04.7,317,385,577.5,997,335,2.05,486.92,1.64,45.03,364,223,20723.92,222,429480800,4294838615,1779,0.89,0.48,-0.05,-3.83,0.11,-11.56,27.64,-60.06,-2.71,-9.31,-38.48,-1.5,-11.34,Left Fall while Sitting
05:04.8,265,381,571.5,997,333,2.07,482.61,1.63,45.03,364,222,20723.92,222,429480800,4294822363,2001,0.86,0.48,-0.07,-0.19,-1.26,-10.27,28.48,-59.02,-2.68,-9.64,-39.44,-1.43,-11.62,Left Fall while Sitting
05:04.9,354,380,570,997,331,2.09,478.32,1.62,20723.97,342,222,20723.91,222,429480608,0,0,0.85,0.51,-0.06,-1.66,2.27,-5.92,30.22,-57.41,-2.79,-9.61,-39.96,-1.47,-11.52,Left Fall while Sitting
05:05.0,338,378,567,997,329,2.11,474.06,1.61,20723.97,342,223,20723.91,222,429480608,4294951489,223,0.87,0.51,-0.08,-2.44,0.09,-4.6,29.53,-57.94,-2.98,-9.81,-40.35,-1.68,-11.73,Left Fall while Sitting
05:05.1,427,380,570,997,327,2.13,469.83,1.6,20723.97,342,222,20723.91,222,429480608,4294935237,445,0.87,0.52,-0.05,-2.44,0.76,-7.23,30.08,-57.58,-3.17,-9.93,-41,-1.84,-11.84,Left Fall while Sitting
05:05.2,443,382,573,997,325,2.15,465.62,1.59,20723.97,342,223,20723.91,222,429480608,4294919430,668,0.85,0.52,-0.07,-6.11,3.03,-9.21,31.03,-56.5,-3.74,-9.83,-41.87,-2.35,-11.69,Left Fall while Sitting
05:05.3,485,385,577.5,997,325,2.15,465.62,1.59,20723.97,342,224,20723.91,222,429480608,4294904070,892,0.84,0.54,-0.04,-5.31,2.07,-7.28,32.03,-55.69,-4.23,-9.82,-42.53,-2.78,-11.65,Left Fall while Sitting
05:05.4,370,385,577.5,997,324,2.16,463.52,1.58,20723.97,342,224,20723.91,222,429480608,4294888710,1116,0.81,0.55,-0.03,-1.91,3.4,-2.25,33.81,-53.99,-4.37,-9.67,-42.68,-2.84,-11.45,Left Fall while Sitting
05:05.5,540,389,583.5,997,324,2.16,463.52,1.58,20723.97,342,223,20723.91,222,429480608,4294872903,1339,0.84,0.54,-0.04,-0.14,1.5,1.15,32.28,-55.47,-4.32,-9.73,-42.49,-2.86,-11.56,Left Fall while Sitting
05:05.6,560,394,591,997,323,2.17,461.43,1.58,20723.97,342,224,20723.91,222,429480608,4294857543,1563,0.87,0.53,-0.05,0.12,-1.47,-0.91,30.85,-56.85,-4.25,-10.08,-42.5,-2.85,-11.95,Left Fall while Sitting
05:05.7,526,397,595.5,997,323,2.17,461.43,1.58,20723.97,342,223,20723.91,222,429480608,4294841736,1786,0.83,0.55,-0.03,0.65,-0.59,-5.79,32.66,-55.12,-4.13,-10.34,-43.01,-2.66,-12.13,Left Fall while Sitting
05:05.8,571,402,603,997,323,2.17,461.43,1.58,20723.97,342,224,20723.91,222,429480608,4294826376,2010,0.83,0.55,-0.08,0.23,2.27,-1.3,32.88,-54.61,-4.05,-10.32,-43.07,-2.57,-12.09,Left Fall while Sitting
05:05.9,571,406,609,997,323,2.17,461.43,1.58,20723.68,324,223,20723.92,223,429481056,0,0,0.82,0.54,-0.05,-0.83,2.93,5.69,32.93,-54.72,-4.08,-10.22,-42.41,-2.6,-12,Left Fall while Sitting
05:06.0,575,410,615,997,324,2.16,463.52,1.58,20723.68,324,223,20723.92,223,429481056,4294951489,223,0.86,0.54,-0.03,1.99,0.75,4.31,31.29,-56.5,-3.82,-10.35,-41.89,-2.41,-12.19,Left Fall while Sitting
05:06.1,499,413,619.5,997,323,2.17,461.43,1.58,20723.68,324,224,20723.92,223,429481056,4294936129,447,0.86,0.53,-0.07,-1.86,-0.53,5.47,31.29,-56.25,-3.95,-10.61,-41.26,-2.54,-12.43,Left Fall while Sitting
05:06.2,757,421,631.5,997,324,2.16,463.52,1.58,20723.68,324,225,20723.92,223,429481056,4294921218,672,0.86,0.53,-0.06,-5.5,3.82,14.85,30.98,-56.59,-4.46,-10.42,-39.64,-3.04,-12.26,Left Fall while Sitting
05:06.3,991,434,651,997,325,2.15,465.62,1.59,20723.68,324,226,20723.92,223,429481056,4294906758,898,0.86,0.52,-0.04,-8.15,5.4,20.26,30.27,-57.47,-5.23,-10.07,-37.5,-3.81,-11.97,Left Fall while Sitting
05:06.4,1001,447,670.5,1001,326,2.14,467.72,1.59,20723.68,324,227,20723.92,223,429481056,4294892751,1125,0.92,0.45,0.01,3.31,6.33,27.69,25.39,-62.44,-4.84,-9.62,-34.56,-3.63,-11.74,Left Fall while Sitting
05:06.5,1001,459,688.5,1001,326,2.14,467.72,1.59,20723.68,324,227,20723.92,223,429481056,4294878744,1352,0.93,0.4,-0.04,-2.68,8.09,28.99,22.4,-65.33,-5.05,-9,-31.53,-3.95,-11.26,Left Fall while Sitting
05:06.6,1002,471,706.5,1002,326,2.14,467.72,1.59,20723.68,324,226,20723.92,223,429481056,4294864284,1578,0.94,0.34,-0.03,-1.05,5.95,32.2,19.59,-68.17,-5.1,-8.6,-28.16,-4.11,-10.98,Left Fall while Sitting
05:06.7,1001,482,723,1002,327,2.13,469.83,1.6,20723.68,324,227,20723.92,223,429481056,4294850277,1805,0.94,0.28,0.06,1.69,-22.75,38.21,16.16,-71.33,-4.87,-11.17,-24.11,-4.03,-13.58,Left Fall while Sitting
05:06.8,1002,493,739.5,1002,329,2.11,474.06,1.61,20723.68,324,230,20723.92,223,429481056,4294837641,2035,0.89,0.19,0,7.57,-6.68,33.31,11.19,-76.65,-4.04,-12.06,-20.63,-3.43,-14.64,Left Fall while Sitting
05:06.9,1001,503,754.5,1002,331,2.09,478.32,1.62,20723.71,326,268,20724.01,230,429484384,0,0,1.01,0.15,-0.13,-5.96,14.01,29.57,7.72,-77.26,-4.59,-10.83,-17.53,-4.1,-13.49,Left Fall while Sitting
05:07.0,1001,513,769.5,1002,333,2.07,482.61,1.63,20723.71,326,267,20724.01,230,429484384,5753,267,0.99,0.1,-0.08,-11.02,9.19,33.77,4.94,-81.19,-5.65,-10.11,-14.04,-5.22,-12.95,Left Fall while Sitting
05:07.1,1002,523,784.5,1002,334,2.06,484.76,1.63,20723.71,326,264,20724.01,230,429484384,9913,531,1.04,-0.01,-0.05,-11.43,-13.4,36.06,-1.02,-85.83,-6.74,-11.66,-10.32,-6.51,-14.63,Left Fall while Sitting
05:07.2,1001,532,798,1002,334,2.06,484.76,1.63,20723.71,326,264,20724.01,230,429484384,14073,795,1.09,-0.07,-0.05,-4.06,-0.2,20.04,-4.41,-83.77,-7.1,-11.89,-8.17,-7,-14.77,Left Fall while Sitting
05:07.3,909,539,808.5,1002,335,2.05,486.92,1.64,20723.71,326,265,20724.01,230,429484384,18762,1060,1.01,-0.04,-0.06,-2.56,12.73,14.26,-2.9,-84.42,-7.31,-10.8,-6.64,-7.13,-13.74,Left Fall while Sitting
05:07.4,0,529,793.5,1002,335,2.05,486.92,1.64,20723.71,326,265,20724.01,230,429484384,23451,1325,1,-0.08,-0.02,-8.08,13.12,32.08,-5.35,-83.55,-8.07,-9.67,-3.32,-7.96,-12.63,Left Fall while Sitting
05:07.5,0,520,780,1002,335,2.05,486.92,1.64,20723.71,326,265,20724.01,230,429484384,28140,1590,1.02,-0.12,-0.02,-4.48,16.27,33.35,-7.32,-81.55,-8.47,-8.22,0.17,-8.42,-11.15,Left Fall while Sitting
05:07.6,16,511,766.5,1002,337,2.04,491.25,1.65,20723.71,326,270,20724.01,230,429484384,35504,1860,1.08,-0.22,-0.03,-8.57,16.31,10.17,-12.15,-76.73,-9.28,-6.77,1.27,-9.39,-9.57,Left Fall while Sitting
05:07.7,10,502,753,1002,338,2.03,493.43,1.65,20723.71,326,268,20724.01,230,429484384,41792,2128,1.05,-0.23,0.01,-18.29,6.79,-7.76,-12.76,-76.21,-11.08,-6.28,0.56,-11.15,-9.08,Left Fall while Sitting
05:07.8,0,493,739.5,1002,337,2.04,491.25,1.65,20723.71,326,265,20724.01,230,429484384,46481,2393,0.98,-0.21,0.08,0.01,19.23,-21.92,-12.49,-75.71,-11.03,-4.53,-1.59,-11.09,-7.37,Left Fall while Sitting
05:07.9,0,485,727.5,1002,338,2.03,493.43,1.65,20723.86,335,263,70.79,265,5010,0,0,0.9,-0.17,0.03,-6.64,1.44,-11.91,-11.3,-77.56,-11.62,-4.58,-2.68,-11.61,-7.5,Left Fall while Sitting
05:08.0,0,477,715.5,1002,338,2.03,493.43,1.65,20723.86,335,263,70.79,265,5010,3633,263,0.99,-0.14,0.06,-8.27,-15.39,2.78,-8.84,-79.56,-12.4,-6.34,-2.32,-12.26,-9.27,Left Fall while Sitting
05:08.1,0,469,703.5,1002,339,2.02,495.61,1.66,20723.86,335,263,70.79,265,5010,7266,526,1.01,-0.17,0.01,8.95,7.54,1.85,-9.84,-79.12,-11.46,-5.79,-2.06,-11.4,-8.72,Left Fall while Sitting
05:08.2,0,461,691.5,1002,339,2.02,495.61,1.66,20723.86,335,263,70.79,265,5010,10899,789,0.99,-0.2,0.05,2.05,1.18,3.75,-11.82,-76.79,-11.2,-5.87,-1.61,-11.22,-8.71,Left Fall while Sitting
05:08.3,67,455,682.5,1002,339,2.02,495.61,1.66,20723.86,335,261,70.79,265,5010,13484,1050,1.03,-0.16,0.02,1.51,6.34,-0.11,-9.35,-79.56,-10.99,-5.44,-1.54,-10.93,-8.4,Left Fall while Sitting
05:08.4,197,451,676.5,1002,339,2.02,495.61,1.66,20723.86,335,262,70.79,265,5010,16592,1312,1.03,-0.16,0.02,-0.52,2.11,1.79,-9.6,-79.35,-10.99,-5.43,-1.28,-10.93,-8.38,Left Fall while Sitting
05:08.5,219,447,670.5,1002,339,2.02,495.61,1.66,20723.86,335,261,70.79,265,5010,19177,1573,1,-0.16,0.1,1.5,2.75,-4.12,-9.85,-77.65,-10.78,-5.35,-1.61,-10.74,-8.24,Left Fall while Sitting
05:08.6,303,445,667.5,1002,338,2.03,493.43,1.65,20723.86,335,261,70.79,265,5010,21762,1834,0.99,-0.16,0.08,-1.79,0.82,-0.54,-9.93,-77.9,-10.91,-5.47,-1.59,-10.87,-8.37,Left Fall while Sitting
05:08.7,239,442,663,1002,337,2.04,491.25,1.65,20723.86,335,261,70.79,265,5010,24347,2095,0.98,-0.17,0.09,4.4,0.51,0.1,-10.41,-77.4,-10.41,-5.62,-1.5,-10.41,-8.49,Left Fall while Sitting
05:08.8,146,438,657,1002,336,2.04,489.08,1.64,20723.86,335,260,70.79,265,5010,26411,2355,1.01,-0.17,0.08,0.32,-0.55,-0.97,-10.08,-77.94,-10.33,-5.87,-1.52,-10.32,-8.76,Left Fall while Sitting
05:11.4,214,214,321,214,329,2.11,474.06,1.61,0,0,217,0,0,0,4294930402,434,0.98,-0.21,0.07,-1.82,15.78,-0.75,-12.8,-75.54,-0.76,1.56,-0.15,-1.24,-1.53,Right Fall while Sitting
05:11.5,205,209,313.5,214,328,2.12,471.94,1.6,0,0,216,0,0,0,4294911522,650,1.01,-0.22,0.07,-10.02,9.01,-2.9,-12.71,-75.59,-1.69,2.25,-0.36,-2.13,-0.86,Right Fall while Sitting
05:11.6,257,225,337.5,257,327,2.13,469.83,1.6,0,0,216,0,0,0,4294892642,866,1.04,-0.23,0.08,-8.36,-4.26,-0.28,-12.74,-75.44,-2.46,1.64,-0.31,-2.87,-1.45,Right Fall while Sitting
05:11.7,220,224,336,257,327,2.13,469.83,1.6,0,0,217,0,0,0,4294874195,1083,1,-0.21,0.08,0.6,2.7,4.9,-12.37,-75.71,-2.34,1.7,0.25,-2.74,-1.39,Right Fall while Sitting
05:11.8,274,234,351,274,327,2.13,469.83,1.6,0,0,218,0,0,0,4294856183,1301,0.97,-0.21,0.05,-1.87,10.49,11.02,-12.91,-75.8,-2.47,2.54,1.41,-2.89,-0.6,Right Fall while Sitting
05:11.9,355,254,381,355,327,2.13,469.83,1.6,0,0,220,0,0,0,4294839047,1521,0.98,-0.27,0.05,0.77,-3.34,7.36,-15.7,-73.02,-2.34,2.01,2.2,-2.87,-0.99,Right Fall while Sitting
05:12.0,356,268,402,356,326,2.14,467.72,1.59,0,0,220,0,0,0,4294821911,1741,1.01,-0.27,0.1,-8.08,-0.49,-0.68,-15.51,-72.56,-3.08,1.77,2.22,-3.57,-1.2,Right Fall while Sitting
05:12.1,297,272,408,356,326,2.14,467.72,1.59,0,0,218,0,0,0,4294803899,1959,0.97,-0.25,0.08,-0.05,5.75,1.79,-14.99,-73.21,-3.02,2.14,2.47,-3.5,-0.87,Right Fall while Sitting
05:12.2,408,287,430.5,408,326,2.14,467.72,1.59,20723.73,327,219,20723.87,217,429478624,0,0,0.97,-0.26,0.09,0.99,7.26,11.64,-15.63,-72.54,-2.87,2.67,3.7,-3.38,-0.34,Right Fall while Sitting
05:12.3,447,303,454.5,447,325,2.15,465.62,1.59,20723.73,327,218,20723.87,217,429478624,4294949284,218,0.97,-0.29,0.11,-2.31,6.44,12.27,-17.07,-70.74,-3.05,3.11,5.02,-3.61,0.16,Right Fall while Sitting
05:12.4,516,322,483,516,326,2.14,467.72,1.59,20723.73,327,220,20723.87,217,429478624,4294932148,438,0.93,-0.29,0.12,2.85,1.89,18.01,-17.79,-69.73,-2.7,3.1,6.94,-3.3,0.19,Right Fall while Sitting
05:12.5,550,341,511.5,550,326,2.14,467.72,1.59,20723.73,327,219,20723.87,217,429478624,4294914573,657,0.9,-0.31,0.09,6.76,-1.83,27.09,-19.68,-68.48,-1.96,2.71,9.76,-2.67,-0.13,Right Fall while Sitting
05:12.6,675,367,550.5,675,326,2.14,467.72,1.59,20723.73,327,220,20723.87,217,429478624,4294897437,877,0.92,-0.36,0.08,0.2,0.43,28.87,-22.1,-66.42,-1.88,2.55,12.78,-2.69,-0.2,Right Fall while Sitting
05:12.7,1000,412,618,1000,327,2.13,469.83,1.6,20723.73,327,220,20723.87,217,429478624,4294880301,1097,0.91,-0.45,0.13,3.06,3.9,27.31,-26.52,-61.25,-1.51,2.75,15.65,-2.52,0.19,Right Fall while Sitting
05:12.8,1001,451,676.5,1001,328,2.12,471.94,1.6,20723.73,327,221,20723.87,217,429478624,4294863606,1318,0.9,-0.48,0.13,-1.34,-0.65,23.2,-28.4,-59.48,-1.59,2.48,18.09,-2.67,0,Right Fall while Sitting
05:12.9,1001,486,729,1001,328,2.12,471.94,1.6,20723.73,327,221,20723.87,217,429478624,4294846911,1539,0.89,-0.52,0.15,6.94,-1.38,18.69,-30.35,-57.25,-0.82,2.13,20.1,-2,-0.25,Right Fall while Sitting
05:13.0,1001,516,774,1001,328,2.12,471.94,1.6,20723.73,327,221,20723.87,217,429478624,4294830216,1760,0.86,-0.53,0.13,7.95,0.1,15.34,-32.13,-55.86,0.05,1.94,21.75,-1.24,-0.38,Right Fall while Sitting
05:13.1,1002,543,814.5,1002,328,2.12,471.94,1.6,20723.73,327,221,20723.87,217,429478624,4294813521,1981,0.86,-0.56,0.09,4.06,-0.5,14.24,-33.73,-54.82,0.52,1.68,23.28,-0.85,-0.58,Right Fall while Sitting
05:13.2,1001,567,850.5,1002,329,2.11,474.06,1.61,20723.72,327,222,20723.89,220,429479712,0,0,0.84,-0.59,0.13,-1.63,-0.54,14.76,-35.23,-52.88,0.41,1.43,24.83,-1.02,-0.75,Right Fall while Sitting
05:13.3,1001,589,883.5,1002,329,2.11,474.06,1.61,20723.72,327,222,20723.89,220,429479712,4294951044,222,0.83,-0.61,0.13,-4.17,-0.73,12.29,-36.5,-51.63,0.04,1.15,26.17,-1.42,-0.96,Right Fall while Sitting
05:13.4,1001,608,912,1002,329,2.11,474.06,1.61,20723.72,327,222,20723.89,220,429479712,4294934792,444,0.79,-0.6,0.12,-4.32,-2.08,13.4,-37.72,-50.39,-0.35,0.73,27.63,-1.84,-1.32,Right Fall while Sitting
05:13.5,1001,626,939,1002,330,2.1,476.19,1.61,20723.72,327,222,20723.89,220,429479712,4294918540,666,0.78,-0.63,0.09,-5.48,-8.42,17.84,-39.46,-49.05,-0.85,-0.34,29.53,-2.39,-2.28,Right Fall while Sitting
05:13.6,1001,642,963,1002,330,2.1,476.19,1.61,20723.72,327,223,20723.89,220,429479712,4294902733,889,0.77,-0.67,0.09,-8.22,-5.69,16.25,-41.05,-47.49,-1.64,-1.13,31.29,-3.21,-2.98,Right Fall while Sitting
05:13.7,1001,657,985.5,1002,331,2.09,478.32,1.62,20723.72,327,224,20723.89,220,429479712,4294887373,1113,0.77,-0.69,0.1,-1.44,-1.6,8.82,-41.93,-46.58,-1.73,-1.49,32.27,-3.34,-3.3,Right Fall while Sitting
05:13.8,802,663,994.5,1002,330,2.1,476.19,1.61,20723.72,327,222,20723.89,220,429479712,4294871121,1335,0.72,-0.71,0.09,-0.18,0.09,7.54,-44.67,-43.86,-1.69,-1.69,33.12,-3.41,-3.38,Right Fall while Sitting
05:13.9,596,660,990,1002,329,2.11,474.06,1.61,20723.72,327,223,20723.89,220,429479712,4294855314,1558,0.72,-0.71,0.08,-1.21,-0.85,8.15,-44.94,-43.69,-1.76,-1.98,34.04,-3.48,-3.65,Right Fall while Sitting
05:14.0,996,673,1009.5,1002,328,2.12,471.94,1.6,20723.72,327,224,20723.89,220,429479712,4294839954,1782,0.74,-0.72,0.07,-0.98,1.08,5.33,-44.5,-44.24,-1.8,-2.08,34.66,-3.51,-3.76,Right Fall while Sitting
05:14.1,1001,685,1027.5,1002,327,2.13,469.83,1.6,20723.72,327,224,20723.89,220,429479712,4294824594,2006,0.71,-0.74,0.11,5.01,3.99,-0.05,-46.17,-42.22,-1.23,-1.87,34.74,-3.02,-3.48,Right Fall while Sitting
05:14.2,1001,695,1042.5,1002,325,2.15,465.62,1.59,20723.75,328,224,20723.92,223,429480928,0,0,0.7,-0.74,0.08,-1.25,2.08,-1.69,-46.87,-41.74,-1.3,-1.86,34.65,-3.12,-3.46,Right Fall while Sitting
05:14.4,1001,706,1059,1002,324,2.16,463.52,1.58,20723.75,328,224,20723.92,223,429480928,4294951936,224,0.7,-0.73,0.1,-5.34,-3.4,-2.89,-46.68,-41.78,-1.78,-2.41,34.43,-3.58,-3.99,Right Fall while Sitting
05:14.5,826,709,1063.5,1002,321,2.19,457.26,1.57,20723.75,328,223,20723.92,223,429480928,4294936129,447,0.73,-0.73,0.1,-1.94,-7.02,-3.72,-45.43,-43.06,-1.93,-3.34,34.13,-3.67,-4.93,Right Fall while Sitting
05:14.6,999,718,1077,1002,320,2.2,455.19,1.56,20723.75,328,223,20723.92,223,429480928,4294920322,670,0.74,-0.72,0.06,-3.31,-3.1,-2.46,-44.71,-44.11,-2.21,-3.86,33.96,-3.91,-5.47,Right Fall while Sitting
05:14.7,1001,727,1090.5,1002,319,2.21,453.13,1.56,20723.75,328,224,20723.92,223,429480928,4294904962,894,0.73,-0.71,0.06,-1.9,0.76,-2.79,-45.02,-43.77,-2.34,-3.99,33.75,-4.05,-5.58,Right Fall while Sitting
05:14.8,1001,735,1102.5,1002,318,2.22,451.06,1.55,20723.75,328,224,20723.92,223,429480928,4294889602,1118,0.72,-0.72,0.08,-5.06,-0.29,-3.33,-45.31,-43.36,-2.8,-4.22,33.5,-4.5,-5.79,Right Fall while Sitting
05:14.9,1001,743,1114.5,1002,317,2.23,449.01,1.55,20723.75,328,224,20723.92,223,429480928,4294874242,1342,0.73,-0.71,0.07,-2.53,-2.47,-3.72,-44.7,-44,-3.01,-4.68,33.2,-4.67,-6.25,Right Fall while Sitting
05:15.0,1001,750,1125,1002,316,2.24,446.96,1.54,20723.75,328,224,20723.92,223,429480928,4294858882,1566,0.75,-0.72,0.04,2.21,0.08,-3.33,-44.23,-44.69,-2.72,-4.88,32.93,-4.38,-6.47,Right Fall while Sitting
05:15.1,1001,757,1135.5,1002,315,2.25,444.92,1.54,20723.75,328,225,20723.92,223,429480928,4294843971,1791,0.71,-0.7,0.1,-3.42,2.07,-5.64,-45.16,-43.31,-3.01,-4.87,32.44,-4.7,-6.41,Right Fall while Sitting
05:15.2,1001,763,1144.5,1002,315,2.25,444.92,1.54,20723.75,328,224,20723.92,223,429480928,4294828611,2015,0.76,-0.71,0.06,-5.37,1.07,-6.15,-43.84,-44.94,-3.5,-4.97,31.89,-5.12,-6.57,Right Fall while Sitting
05:15.3,1001,769,1153.5,1002,315,2.25,444.92,1.54,20723.58,318,224,20723.93,223,429481312,0,0,0.76,-0.71,0.06,-4.97,3.21,-15.21,-43.31,-45.48,-3.95,-4.85,30.44,-5.52,-6.47,Right Fall while Sitting
05:15.4,1001,775,1162.5,1002,315,2.25,444.92,1.54,20723.58,318,224,20723.93,223,429481312,4294951936,224,0.78,-0.69,0.05,-9.1,3.47,-26.27,-41.88,-46.98,-4.82,-4.7,27.82,-6.31,-6.39,Right Fall while Sitting
05:15.5,1001,780,1170,1002,315,2.25,444.92,1.54,20723.58,318,224,20723.93,223,429481312,4294936576,448,0.8,-0.65,0.06,-6.89,0.95,-30.65,-39.61,-49.16,-5.48,-4.8,24.74,-6.84,-6.58,Right Fall while Sitting
05:15.6,1002,786,1179,1002,315,2.25,444.92,1.54,20723.58,318,225,20723.93,223,429481312,4294921665,673,0.84,-0.61,0.04,-2.47,-2.29,-32.26,-36.28,-52.63,-5.67,-5.24,21.53,-6.89,-7.14,Right Fall while Sitting
05:15.7,1001,791,1186.5,1002,316,2.24,446.96,1.54,20723.58,318,227,20723.93,223,429481312,4294907658,900,0.87,-0.55,0.01,-8.9,-0.97,-31.6,-32.85,-56.15,-6.54,-5.55,18.33,-7.59,-7.57,Right Fall while Sitting
05:15.8,998,795,1192.5,1002,317,2.23,449.01,1.55,20723.58,318,226,20723.93,223,429481312,4294893198,1126,0.91,-0.49,-0.01,-15.83,-0.6,-33.48,-28.84,-60.15,-8.1,-5.81,15,-8.93,-7.99,Right Fall while Sitting
05:15.9,489,789,1183.5,1002,316,2.24,446.96,1.54,20723.58,318,225,20723.93,223,429481312,4294878287,1351,0.99,-0.47,0.02,-13.52,2.87,-33.13,-25.85,-63.13,-9.43,-5.73,11.66,-10.09,-8.02,Right Fall while Sitting
05:16.0,0,771,1156.5,1002,316,2.24,446.96,1.54,20723.58,318,226,20723.93,223,429481312,4294863827,1577,0.98,-0.37,-0.04,-11.07,18.68,-39.1,-21.44,-67.41,-10.51,-4.01,7.72,-10.95,-6.54,Right Fall while Sitting
05:16.1,0,755,1132.5,1002,316,2.24,446.96,1.54,20723.58,318,225,20723.93,223,429481312,4294848916,1802,0.99,-0.35,0.06,-18.84,-1.02,-35.52,-20.02,-68.7,-12.4,-4.32,4.14,-12.7,-6.89,Right Fall while Sitting
05:16.2,0,739,1108.5,1002,317,2.23,449.01,1.55,20723.58,318,225,20723.93,223,429481312,4294834005,2027,0.97,-0.28,0,-23.61,1.3,-31.94,-16.5,-72.5,-14.77,-4.39,0.93,-14.84,-7.12,Right Fall while Sitting
05:16.3,0,724,1086,1002,318,2.22,451.06,1.55,20723.55,316,226,20723.95,225,429481952,0,0,0.98,-0.21,-0.01,-9.62,20.66,-27.68,-12.93,-76.05,-15.68,-2.51,-1.78,-15.57,-5.45,Right Fall while Sitting
05:16.4,0,710,1065,1002,319,2.21,453.13,1.56,20723.55,316,225,20723.95,225,429481952,4294952385,225,0.97,-0.18,0.08,-13.91,4.53,-28.07,-11.15,-76.95,-17.05,-2.25,-4.56,-16.81,-5.24,Right Fall while Sitting
05:16.5,0,696,1044,1002,319,2.21,453.13,1.56,20723.55,316,226,20723.95,225,429481952,4294937925,451,1.01,-0.11,0.1,-12.62,-15.9,-16.58,-6.92,-80.01,-18.29,-4.09,-6.19,-17.83,-7.13,Right Fall while Sitting
05:16.6,0,682,1023,1002,320,2.2,455.19,1.56,20723.55,316,227,20723.95,225,429481952,4294923918,678,1.03,-0.14,0.07,-10.18,-15.21,-13.89,-8.02,-79.96,-19.28,-5.86,-7.54,-18.83,-8.83,Right Fall while Sitting
05:16.7,0,669,1003.5,1002,320,2.2,455.19,1.56,20723.55,316,228,20723.95,225,429481952,4294910366,906,1.07,-0.09,0,-4.17,0.24,-27.31,-5.49,-83.5,-19.65,-6.05,-10.27,-19.08,-9.14,Right Fall while Sitting
05:16.8,0,657,985.5,1002,321,2.19,457.26,1.57,20723.55,316,228,20723.95,225,429481952,4294896814,1134,1.01,-0.02,-0.01,-10.1,5.13,-31.6,-1.46,-87.48,-20.62,-5.73,-13.41,-19.86,-9,Right Fall while Sitting
05:16.9,0,645,967.5,1002,321,2.19,457.26,1.57,20723.55,316,229,20723.95,225,429481952,4294883719,1363,0.89,0.04,0.06,-22.53,16.11,-15.98,2.1,-83.69,-22.89,-4.27,-14.98,-21.89,-7.45,Right Fall while Sitting
05:17.0,0,634,951,1002,322,2.18,459.34,1.57,20723.55,316,229,20723.95,225,429481952,4294870624,1592,0.9,0.05,0.04,-9.28,10.94,-4.11,2.49,-84.33,-23.79,-3.35,-15.32,-22.73,-6.59,Right Fall while Sitting
05:17.1,0,622,933,1002,322,2.18,459.34,1.57,20723.55,316,230,20723.95,225,429481952,4294857988,1822,1.02,0.05,0.05,-23.37,-8.26,13.44,2.1,-84.58,-26.11,-4.4,-13.87,-24.98,-7.61,Right Fall while Sitting
05:17.2,0,612,918,1002,323,2.17,461.43,1.58,20723.55,316,230,20723.95,225,429481952,4294845352,2052,1.09,-0.01,0.05,-11.02,-1.33,0.49,-1.03,-85.78,-27.19,-4.74,-13.74,-26.14,-7.98,Right Fall while Sitting
05:17.3,0,601,901.5,1002,324,2.16,463.52,1.58,20723.63,321,231,20723.98,228,429483328,0,0,1.02,-0.06,0.07,-5.93,2.32,0.49,-3.79,-83.46,-27.73,-4.71,-13.61,-26.77,-7.86,Right Fall while Sitting
05:17.4,0,591,886.5,1002,324,2.16,463.52,1.58,20723.63,321,230,20723.98,228,429483328,4294954660,230,1.02,-0.01,0.07,-3.53,4.38,-1.36,-1.38,-84.37,-28.03,-4.47,-13.67,-26.96,-7.67,Right Fall while Sitting
05:17.5,0,582,873,1002,324,2.16,463.52,1.58,20723.63,321,230,20723.98,228,429483328,4294942024,460,1.01,-0.01,0.04,-1.08,-3.92,0.98,-1.11,-85.98,-28.08,-5.08,-13.49,-27,-8.31,Right Fall while Sitting
05:17.6,21,573,859.5,1002,325,2.15,465.62,1.59,20723.63,321,231,20723.98,228,429483328,4294929849,691,1.02,-0.02,0.05,5.7,-10.37,-1.83,-1.59,-85.24,-27.44,-6.34,-13.59,-26.41,-9.5,Right Fall while Sitting
05:17.7,288,568,852,1002,325,2.15,465.62,1.59,20723.63,321,231,20723.98,228,429483328,4294917674,922,1.02,-0.02,0.02,5.24,-6.61,-1.31,-1.73,-86.69,-26.84,-7.23,-13.65,-25.84,-10.41,Right Fall while Sitting
05:17.8,199,562,843,1002,326,2.14,467.72,1.59,20723.63,321,231,20723.98,228,429483328,4294905499,1153,1.02,-0.02,-0.02,0.95,-9.66,-2.68,-1.61,-86.86,-26.69,-8.43,-13.84,-25.68,-11.57,Right Fall while Sitting
05:17.9,50,554,831,1002,326,2.14,467.72,1.59,20723.63,321,231,20723.98,228,429483328,4294893324,1384,1,0,-0.04,3.47,-0.4,-3.5,-0.8,-86.35,-26.28,-8.67,-14.12,-25.26,-11.78,Right Fall while Sitting
05:18.0,0,546,819,1002,326,2.14,467.72,1.59,20723.63,321,232,20723.98,228,429483328,4294881612,1616,0.99,0,-0.01,3.15,-0.26,3.7,-0.37,-87.58,-25.9,-8.91,-13.65,-24.87,-12.05,Right Fall while Sitting
05:18.1,0,538,807,1002,327,2.13,469.83,1.6,20723.63,321,232,20723.98,228,429483328,4294869900,1848,1.02,-0.04,-0.02,0.6,-0.37,8.33,-2.62,-86.09,-25.78,-9.15,-12.72,-24.85,-12.23,Right Fall while Sitting
05:18.2,0,530,795,1002,327,2.13,469.83,1.6,20723.63,321,232,20723.98,228,429483328,4294858188,2080,1.06,-0.05,-0.03,1.13,-1.85,2.47,-3.34,-85.34,-25.6,-9.55,-12.39,-24.71,-12.58,Right Fall while Sitting
05:22.8,352,352,528,352,334,2.06,484.76,1.63,0,0,237,0,0,0,4294948562,474,1.03,-0.11,0.01,3.32,1.5,4.23,-6.81,-82.16,0.65,-1.03,1.09,0.35,-4.27,Forward Fall while Sitting
05:22.9,528,440,660,528,334,2.06,484.76,1.63,0,0,237,0,0,0,4294939195,711,1.05,-0.15,0.03,-3.55,-0.07,0.06,-8.76,-80.05,0.36,-1.23,1.17,0,-4.38,Forward Fall while Sitting
05:23.0,653,511,766.5,653,335,2.05,486.92,1.64,0,0,238,0,0,0,4294930303,949,1.02,-0.11,-0.01,-7.48,-0.26,-6.95,-6.5,-82.49,-0.32,-1.45,0.57,-0.57,-4.69,Forward Fall while Sitting
05:23.1,995,632,948,995,335,2.05,486.92,1.64,0,0,238,0,0,0,4294921411,1187,0.98,-0.09,0,-0.6,-19.59,-3,-6.01,-82.99,-0.32,-3.56,0.35,-0.55,-6.74,Forward Fall while Sitting
05:23.2,999,705,1057.5,999,334,2.06,484.76,1.63,0,0,239,0,0,0,4294912996,1426,0.99,-0.1,-0.01,0.45,-26.05,5.02,-6.46,-82.51,-0.22,-6.37,0.93,-0.47,-9.42,Forward Fall while Sitting
05:23.3,1001,754,1131,1001,334,2.06,484.76,1.63,0,0,239,0,0,0,4294904581,1665,1.02,-0.14,-0.08,-0.22,-23.25,2.14,-8.39,-79.5,-0.19,-8.87,1.22,-0.52,-11.7,Forward Fall while Sitting
05:23.4,1001,789,1183.5,1001,334,2.06,484.76,1.63,0,0,239,0,0,0,4294896166,1904,1,-0.14,-0.04,3.63,-22.76,-2.19,-8.29,-80.37,0.23,-11.32,1.08,-0.11,-14.08,Forward Fall while Sitting
05:23.5,1001,816,1224,1001,333,2.07,482.61,1.63,0,0,239,0,0,0,4294887751,2143,0.98,-0.12,-0.14,6.5,-35.57,0.96,-7.45,-77.93,0.93,-15.08,1.26,0.6,-17.59,Forward Fall while Sitting
05:23.6,1001,836,1254,1001,333,2.07,482.61,1.63,20723.83,334,239,20724.09,238,429487936,0,0,0.98,-0.13,-0.25,6.73,-35.31,2.05,-7.89,-72.46,1.66,-18.81,1.54,1.28,-20.96,Forward Fall while Sitting
05:23.7,1001,853,1279.5,1001,334,2.06,484.76,1.63,20723.83,334,240,20724.09,238,429487936,4294959360,240,1.02,-0.15,-0.29,2.05,-27.22,0.79,-8.52,-70.58,1.93,-21.82,1.7,1.51,-23.77,Forward Fall while Sitting
05:23.8,1001,866,1299,1001,334,2.06,484.76,1.63,20723.83,334,271,20724.09,238,429487936,4294967265,511,1.18,-0.21,-0.32,-2.5,-24.11,-3.19,-10.11,-70.51,1.73,-24.48,1.46,1.26,-26.32,Forward Fall while Sitting
05:23.9,1001,877,1315.5,1001,329,2.11,474.06,1.61,20723.83,334,210,20724.09,238,429487936,4294945829,721,0.91,-0.13,-0.33,7.31,-34.08,-3.63,-8.25,-67.44,2.54,-28.16,1.17,2.1,-29.73,Forward Fall while Sitting
05:24.0,1001,887,1330.5,1001,325,2.15,465.62,1.59,20723.83,334,201,20724.09,238,429487936,4294920694,922,0.96,-0.14,-0.49,6.94,-23.34,-7.18,-8.03,-60.42,3.32,-30.8,0.5,2.86,-31.98,Forward Fall while Sitting
05:24.1,1000,895,1342.5,1001,323,2.17,461.43,1.58,20723.83,334,200,20724.09,238,429487936,4294895158,1122,0.92,-0.13,-0.51,-1.96,-28.6,-5.44,-7.57,-58.77,3.17,-33.92,0.03,2.74,-34.91,Forward Fall while Sitting
05:24.2,654,879,1318.5,1001,322,2.18,459.34,1.57,20723.83,334,196,20724.09,238,429487936,4294868038,1318,0.89,-0.12,-0.57,4.21,-22.92,-2.35,-7.13,-55.03,3.66,-36.49,-0.13,3.23,-37.23,Forward Fall while Sitting
05:24.3,737,870,1305,1001,321,2.19,457.26,1.57,20723.83,334,196,20724.09,238,429487936,4294840918,1514,0.84,-0.1,-0.63,-4.34,-32.16,-0.44,-6.29,-50.82,3.28,-39.97,-0.1,2.9,-40.4,Forward Fall while Sitting
05:24.4,782,865,1297.5,1001,319,2.21,453.13,1.56,20723.83,334,200,20724.09,238,429487936,4294815382,1714,0.87,-0.14,-0.65,1.54,-27.92,-1.97,-7.86,-51.13,3.5,-43.05,-0.22,3.04,-43.37,Forward Fall while Sitting
05:24.5,1000,872,1308,1001,316,2.24,446.96,1.54,20723.83,334,189,20724.09,238,429487936,4294785567,1903,0.69,-0.14,-0.67,1.67,-16.79,4.16,-8.62,-43.86,3.73,-44.99,0.29,3.23,-44.94,Forward Fall while Sitting
05:24.6,1001,879,1318.5,1001,314,2.26,442.88,1.53,20723.67,323,190,20723.79,209,429475616,0,0,0.84,-0.16,-0.72,-2.98,-9.87,-2.4,-8.9,-47.18,3.48,-46.17,0.13,2.99,-46.21,Forward Fall while Sitting
05:24.7,1001,885,1327.5,1001,312,2.28,438.82,1.52,20723.67,323,193,20723.79,209,429475616,4294939009,193,0.79,-0.14,-0.69,-6.19,-6.18,-2.72,-8,-46.64,2.9,-47.02,-0.07,2.47,-47,Forward Fall while Sitting
05:24.8,1001,891,1336.5,1001,311,2.29,436.8,1.52,20723.67,323,193,20723.79,209,429475616,4294910722,386,0.77,-0.14,-0.73,-0.6,-8.17,0.94,-8.32,-44.29,2.9,-48.06,0.11,2.45,-47.91,Forward Fall while Sitting
05:24.9,1001,896,1344,1001,310,2.3,434.78,1.52,20723.67,323,195,20723.79,209,429475616,4294883211,581,0.78,-0.16,-0.74,-3.38,-9.17,2.34,-8.85,-44.17,2.61,-49.2,0.43,2.15,-49,Forward Fall while Sitting
05:25.0,1001,900,1350,1001,317,2.23,449.01,1.55,20723.67,323,263,20723.79,209,429475616,4294886844,844,0.77,-0.16,-0.74,-5.59,-16.54,-1.07,-8.96,-43.83,2.09,-51.11,0.4,1.65,-50.82,Forward Fall while Sitting
05:25.2,1000,904,1356,1001,319,2.21,453.13,1.56,20723.67,323,262,20723.79,209,429475616,4294889952,1106,0.75,-0.14,-0.76,-3.27,-13.71,-5,-8.21,-42.82,1.82,-52.71,-0.03,1.41,-52.32,Forward Fall while Sitting
05:25.3,890,904,1356,1001,319,2.21,453.13,1.56,20723.67,323,257,20723.79,209,429475616,4294890465,1363,0.73,-0.13,-0.79,-3.49,-12.12,-2.94,-7.6,-40.77,1.51,-54.17,-0.25,1.15,-53.63,Forward Fall while Sitting
05:25.4,681,895,1342.5,1001,319,2.21,453.13,1.56,20723.67,323,260,20723.79,209,429475616,4294892529,1623,0.71,-0.13,-0.83,-3.4,-8.31,-2.69,-7.21,-38.35,1.22,-55.23,-0.45,0.88,-54.56,Forward Fall while Sitting
05:25.5,775,891,1336.5,1001,319,2.21,453.13,1.56,20723.67,323,258,20723.79,209,429475616,4294893557,1881,0.7,-0.12,-0.79,-3.53,-6.88,-2.84,-7.31,-39.56,0.92,-56.14,-0.66,0.59,-55.47,Forward Fall while Sitting
05:25.6,997,894,1341,1001,319,2.21,453.13,1.56,20723.67,323,257,20723.79,209,429475616,4294894070,2138,0.68,-0.13,-0.8,-1.97,-6.63,-2.65,-7.64,-38.5,0.77,-57.03,-0.85,0.44,-56.29,Forward Fall while Sitting
05:25.7,967,897,1345.5,1001,319,2.21,453.13,1.56,20724.03,316,257,20724.13,239,429489472,0,0,0.68,-0.13,-0.85,-1.28,-1.72,-1.94,-7.46,-36.98,0.7,-57.4,-0.96,0.37,-56.59,Forward Fall while Sitting
05:25.8,766,892,1338,1001,318,2.22,451.06,1.55,20724.03,316,255,20724.13,239,429489472,4294966785,255,0.68,-0.13,-0.84,0.42,2.68,-3.1,-7.23,-36.99,0.8,-57.33,-1.2,0.48,-56.52,Forward Fall while Sitting
05:25.9,720,887,1330.5,1001,318,2.22,451.06,1.55,20724.03,316,255,20724.13,239,429489472,4294966274,510,0.66,-0.12,-0.85,-1.94,1.7,0.27,-6.95,-36.23,0.66,-57.36,-1.09,0.36,-56.52,Forward Fall while Sitting
05:26.0,573,877,1315.5,1001,319,2.21,453.13,1.56,20724.03,316,256,20724.13,239,429489472,4294966274,766,0.7,-0.13,-0.84,-0.68,5.75,1.16,-7.32,-37.71,0.65,-56.98,-0.9,0.33,-56.21,Forward Fall while Sitting
05:26.1,405,863,1294.5,1001,319,2.21,453.13,1.56,20724.03,316,255,20724.13,239,429489472,4294965763,1021,0.71,-0.14,-0.82,-3.65,5.62,-0.83,-8.01,-39.02,0.33,-56.61,-0.9,0,-55.91,Forward Fall while Sitting
05:26.2,260,845,1267.5,1001,320,2.2,455.19,1.56,20724.03,316,256,20724.13,239,429489472,4294965763,1277,0.7,-0.13,-0.79,-4.46,3.71,-2.33,-7.6,-39.61,-0.07,-56.43,-1.06,-0.37,-55.76,Forward Fall while Sitting
05:26.3,160,825,1237.5,1001,320,2.2,455.19,1.56,20724.03,316,255,20724.13,239,429489472,4294965252,1532,0.71,-0.13,-0.8,-0.09,9.37,-1.82,-7.57,-39.54,-0.02,-55.68,-1.16,-0.33,-55.03,Forward Fall while Sitting
05:26.4,372,813,1219.5,1001,320,2.2,455.19,1.56,20724.03,316,254,20724.13,239,429489472,4294964232,1786,0.71,-0.13,-0.81,1.27,8.53,-1.87,-7.65,-39.22,0.16,-55.01,-1.27,-0.15,-54.38,Forward Fall while Sitting
05:26.5,0,791,1186.5,1001,320,2.2,455.19,1.56,20724.03,316,253,20724.13,239,429489472,4294962705,2039,0.73,-0.13,-0.79,0.57,14.4,-3.04,-7.34,-40.7,0.28,-53.74,-1.5,-0.03,-53.22,Forward Fall while Sitting
05:26.6,0,770,1155,1001,320,2.2,455.19,1.56,20724.03,316,255,20724.13,239,429489472,4294962194,2294,0.75,-0.14,-0.8,1.36,18.47,-1.48,-7.68,-40.93,0.48,-52.05,-1.58,0.15,-51.6,Forward Fall while Sitting
05:26.7,0,750,1125,1001,321,2.19,457.26,1.57,20723.6,319,255,20724.29,254,429496160,0,0,0.77,-0.15,-0.74,-0.96,24.64,0.01,-8.47,-44.03,0.44,-49.78,-1.5,0.08,-49.55,Forward Fall while Sitting
05:26.8,0,731,1096.5,1001,321,2.19,457.26,1.57,20723.6,319,252,20724.29,254,429496160,4294965264,252,0.78,-0.14,-0.69,-2.99,27.18,2.3,-8.36,-46.26,0.19,-47.19,-1.18,-0.16,-47.15,Forward Fall while Sitting
05:26.9,0,714,1071,1001,316,2.24,446.96,1.54,20723.6,319,208,20724.29,254,429496160,4294942992,460,0.84,-0.16,-0.6,4.3,21.77,0.82,-9.65,-51.86,0.68,-45.19,-1.02,0.26,-45.46,Forward Fall while Sitting
05:27.0,347,705,1057.5,1001,311,2.29,436.8,1.52,20723.6,319,194,20724.29,254,429496160,4294915092,654,0.87,-0.14,-0.65,8.08,26.91,-3.24,-8.13,-51.25,1.56,-42.65,-1.27,1.17,-43,Forward Fall while Sitting
05:27.1,860,708,1062,1001,311,2.29,436.8,1.52,20723.6,319,191,20724.29,254,429496160,4294886037,845,0.89,-0.16,-0.65,0.05,25.45,-4.87,-8.72,-51.78,1.62,-40.24,-1.69,1.21,-40.7,Forward Fall while Sitting
05:27.2,204,697,1045.5,1001,318,2.22,451.06,1.55,20723.6,319,218,20724.29,254,429496160,4294868025,1063,0.9,-0.14,-0.55,0.73,26.21,-5.26,-8.25,-56.32,1.75,-37.77,-2.14,1.35,-38.51,Forward Fall while Sitting
05:27.3,0,682,1023,1001,319,2.21,453.13,1.56,20723.6,319,216,20724.29,254,429496160,4294849145,1279,0.78,-0.15,-0.4,4.5,37.02,-3.43,-10.42,-59.7,2.27,-34.2,-2.41,1.76,-35.22,Forward Fall while Sitting
05:27.4,0,667,1000.5,1001,319,2.21,453.13,1.56,20723.6,319,214,20724.29,254,429496160,4294829405,1493,0.91,-0.16,-0.45,5.24,45.14,-2.05,-9.7,-60.94,2.87,-29.75,-2.54,2.36,-31,Forward Fall while Sitting
05:27.5,0,652,978,1001,319,2.21,453.13,1.56,20723.6,319,214,20724.29,254,429496160,4294809665,1707,0.96,-0.17,-0.38,-9.83,63.14,-1.92,-9.8,-64.87,1.92,-23.52,-2.66,1.45,-25.17,Forward Fall while Sitting
05:27.6,0,639,958.5,1001,319,2.21,453.13,1.56,20723.6,319,217,20724.29,254,429496160,4294791218,1924,0.95,-0.15,-0.25,-11.08,63.87,-6.7,-9.19,-71.53,0.85,-17.21,-3.26,0.45,-19.38,Forward Fall while Sitting
05:27.7,475,636,954,1001,320,2.2,455.19,1.56,20723.89,317,214,20723.83,213,429477152,0,0,0.99,-0.12,-0.09,-9.13,37.21,3.58,-7.57,-79.64,-0.02,-13.65,-2.82,-0.32,-16.29,Forward Fall while Sitting
05:27.8,642,636,954,1001,320,2.2,455.19,1.56,20723.89,317,212,20723.83,213,429477152,4294946704,212,1.04,-0.21,-0.08,-8.98,23.79,9.92,-12.19,-75.96,-0.88,-11.43,-1.72,-1.33,-14.01,Forward Fall while Sitting
05:27.9,768,638,957,1001,320,2.2,455.19,1.56,20723.89,317,212,20723.83,213,429477152,4294926112,424,1,-0.2,-0.03,-2.18,63.15,0.59,-11.68,-77.16,-1.04,-5.13,-1.58,-1.47,-8.01,Forward Fall while Sitting
05:28.0,627,638,957,1001,320,2.2,455.19,1.56,20723.89,317,211,20723.83,213,429477152,4294905097,635,1,-0.18,-0.04,-18.2,57.72,3.08,-10.68,-78.08,-2.84,0.55,-1.19,-3.16,-2.59,Forward Fall while Sitting
05:28.1,443,634,951,1001,320,2.2,455.19,1.56,20723.89,317,211,20723.83,213,429477152,4294884082,846,0.98,-0.22,0.11,-27.36,16.56,-0.05,-13.04,-74.38,-5.6,2.05,-1.11,-5.9,-1,Forward Fall while Sitting
05:28.2,286,628,942,1001,321,2.19,457.26,1.57,20723.89,317,211,20723.83,213,429477152,4294863067,1057,1.02,-0.19,0.17,-25.16,-2.03,-2.69,-10.83,-74.51,-8.11,1.64,-1.31,-8.22,-1.4,Forward Fall while Sitting
05:28.3,286,622,933,1001,321,2.19,457.26,1.57,20723.89,317,212,20723.83,213,429477152,4294842475,1269,1.04,-0.21,0.2,-9.31,13.39,5.3,-11.95,-72.55,-9.01,2.81,-0.68,-9.12,-0.21,Forward Fall while Sitting
05:28.4,299,616,924,1001,321,2.19,457.26,1.57,20723.89,317,212,20723.83,213,429477152,4294821883,1481,1,-0.21,0.13,0.74,14.09,-5.39,-12.12,-74.85,-8.87,4.05,-1.16,-9,0.89,Forward Fall while Sitting
05:28.5,213,609,913.5,1001,321,2.19,457.26,1.57,20723.89,317,212,20723.83,213,429477152,4294801291,1693,0.96,-0.23,0.16,-7.78,-2.56,-12.29,-13.93,-72.18,-9.6,3.59,-2.32,-9.77,0.56,Forward Fall while Sitting
05:28.6,627,598,897,1001,322,2.18,459.34,1.57,20723.89,317,213,20723.83,213,429477152,4294781124,1906,0.92,-0.21,0.11,-0.66,-3.44,-10.5,-13.22,-74.19,-9.61,3.03,-3.32,-9.76,-0.06,Forward Fall while Sitting
05:28.7,443,588,882,1001,322,2.18,459.34,1.57,20723.62,320,213,20723.81,211,429476096,0,0,0.97,-0.2,0.11,-10.43,-17.09,-2.55,-12.08,-75.35,-10.6,1.12,-3.5,-10.66,-1.94,Forward Fall while Sitting
05:28.8,286,578,867,1001,323,2.17,461.43,1.58,20723.62,320,213,20723.81,211,429476096,4294947129,213,0.99,-0.17,0.03,5.71,-6.73,0.47,-10.37,-78.45,-9.96,0.23,-3.37,-9.98,-2.92,Forward Fall while Sitting
05:28.9,286,569,853.5,1001,323,2.17,461.43,1.58,20723.62,320,213,20723.81,211,429476096,4294926962,426,0.98,-0.17,0.02,1.19,-9.53,3.33,-10.2,-78.72,-9.78,-0.95,-2.95,-9.8,-4.06,Forward Fall while Sitting
05:29.0,299,560,840,1001,322,2.18,459.34,1.57,20723.62,320,213,20723.81,211,429476096,4294906795,639,1.02,-0.18,0.02,5.9,-4.76,7.15,-10.59,-78.36,-9.13,-1.63,-2.15,-9.19,-4.7,Forward Fall while Sitting
05:29.1,213,551,826.5,1001,323,2.17,461.43,1.58,20723.62,320,213,20723.81,211,429476096,4294886628,852,1.02,-0.23,0,5.73,1.6,0.3,-13.29,-75.7,-8.48,-1.67,-2.03,-8.67,-4.63,Forward Fall while Sitting
05:29.2,108,544,816,1001,323,2.17,461.43,1.58,20723.62,320,214,20723.81,211,429476096,4294866888,1066,1.03,-0.2,0.04,-3.62,1.34,-5.4,-11.8,-76.98,-8.79,-1.74,-2.5,-8.91,-4.75,Forward Fall while Sitting
05:29.3,315,540,810,1001,323,2.17,461.43,1.58,20723.62,320,213,20723.81,211,429476096,4294846721,1279,0.97,-0.18,0.11,-1.71,4.99,-5.28,-10.94,-76.25,-8.91,-1.43,-2.96,-8.99,-4.42,Forward Fall while Sitting
05:29.4,146,534,801,1001,323,2.17,461.43,1.58,20723.62,320,213,20723.81,211,429476096,4294826554,1492,0.98,-0.18,0.07,-3.41,-0.5,0.04,-10.85,-77.3,-9.2,-1.69,-2.87,-9.27,-4.71,Forward Fall while Sitting
05:29.5,178,529,793.5,1001,323,2.17,461.43,1.58,20723.62,320,214,20723.81,211,429476096,4294806814,1706,1,-0.2,0.08,-2.55,-1.92,0.91,-11.8,-76.21,-9.4,-2.09,-2.7,-9.5,-5.05,Forward Fall while Sitting
05:29.7,308,526,789,1001,324,2.16,463.52,1.58,20723.62,320,214,20723.81,211,429476096,4294787074,1920,1.01,-0.19,0.02,-3.63,-3.12,-0.43,-11.47,-77.45,-9.72,-2.62,-2.66,-9.79,-5.61,Forward Fall while Sitting
05:45.3,541,541,811.5,541,271,2.77,360.37,1.32,0,0,230,0,0,0,4294941565,459,1.03,-0.13,0.05,34.15,-14.1,-3.66,-7.65,-80.89,6.94,-2.53,-0.65,6.36,-5.67,Walking
05:45.4,990,765,1147.5,990,272,2.76,362.18,1.33,0,0,230,0,0,0,4294928929,689,1.02,-0.11,-0.1,27.82,-14.5,-3.74,-6.49,-80.26,9.72,-4.15,-0.93,9.07,-7.2,Walking
05:45.5,956,829,1243.5,990,272,2.76,362.18,1.33,0,0,231,0,0,0,4294916754,920,0.99,-0.12,-0.07,20.23,-8.06,-6.69,-7.5,-80.32,11.78,-5.15,-1.52,11.01,-8.15,Walking
05:45.6,895,845,1267.5,990,272,2.76,362.18,1.33,0,0,231,0,0,0,4294904579,1151,0.99,-0.09,-0.12,10.42,-6.19,-6.15,-5.82,-79.79,12.88,-5.97,-2.06,12.13,-8.92,Walking
05:45.7,853,847,1270.5,990,272,2.76,362.18,1.33,0,0,232,0,0,0,4294892867,1383,1.02,-0.08,-0.15,0.31,-11.39,-2.64,-5.07,-78.87,12.96,-7.28,-2.24,12.24,-10.14,Walking
05:45.8,817,842,1263,990,273,2.75,364,1.33,0,0,233,0,0,0,4294881620,1616,1.04,-0.07,-0.16,-0.08,-7.88,-4.02,-4.32,-78.72,13.01,-8.26,-2.56,12.32,-11.07,Walking
05:45.9,778,832,1248,990,274,2.73,365.82,1.34,0,0,232,0,0,0,4294869908,1848,1,-0.07,-0.15,1.3,-1.39,-2.18,-4.41,-79.36,13.2,-8.59,-2.69,12.49,-11.43,Walking
05:46.0,770,825,1237.5,990,274,2.73,365.82,1.34,0,0,232,0,0,0,4294858196,2080,0.99,-0.03,-0.11,3.32,2.6,1.88,-2.43,-81.58,13.58,-8.54,-2.43,12.94,-11.46,Walking
