Datetime, ECGRaw , AvgECG , ampECG , MAX , GSRRaw , Resistance , GSR(kohm) , SCL , GSRRMS , GSRMAV , EMGRaw , EMGRMS , EMGMAV , EMGVAR , EMGSSI , IEMG , AccX , AccY, AccZ , GyroX , GyroY , GyroZ , Aroll , Apitch , Groll , Gpitch, Gyaw , Combroll , Combpitch,Features
18:15.3,443,443,664.5,443,427,1.4,716.44,2.09,0,0,147,0,0,0,43218,294,0.95,-0.04,0.31,-1.76,1.6,-0.66,-3.02,-69.94,-0.21,-0.09,0,-0.33,-2.88,Sitting
18:15.4,515,479,718.5,515,428,1.39,719.33,2.09,0,0,147,0,0,0,64827,441,0.95,-0.04,0.31,-1.92,1.34,-0.9,-3.13,-70.08,-0.32,-0.14,-0.01,-0.43,-2.94,Sitting
18:15.4,456,471,706.5,515,428,1.39,719.33,2.09,0,0,148,0,0,0,86731,589,0.96,-0.05,0.32,-1.99,1.04,-0.99,-3.58,-69.76,-0.42,-0.21,-0.02,-0.54,-2.99,Sitting
18:15.5,433,461,691.5,515,428,1.39,719.33,2.09,0,0,147,0,0,0,108340,736,0.95,-0.05,0.33,-1.4,0.85,-1.07,-3.44,-69.28,-0.48,-0.29,-0.04,-0.6,-3.05,Sitting
18:15.6,519,473,709.5,519,428,1.39,719.33,2.09,0,0,149,0,0,0,130541,885,0.94,-0.06,0.32,-2.25,1.4,-1.02,-3.76,-69.14,-0.61,-0.34,-0.06,-0.73,-3.09,Sitting
18:15.6,474,473,709.5,519,427,1.4,716.44,2.09,0,0,146,0,0,0,151857,1031,0.95,-0.04,0.32,-2.11,1.36,-1.24,-3.16,-69.62,-0.72,-0.38,-0.09,-0.82,-3.15,Sitting
18:15.7,459,471,706.5,519,428,1.39,719.33,2.09,0,0,147,0,0,0,173466,1178,0.95,-0.05,0.32,-1.94,1.01,-1.28,-3.66,-69.28,-0.82,-0.46,-0.13,-0.93,-3.21,Sitting
18:15.8,520,477,715.5,520,427,1.4,716.44,2.09,0,0,146,0,0,0,194782,1324,0.94,-0.05,0.32,-1.49,1.4,-1.09,-3.33,-69.44,-0.89,-0.5,-0.15,-0.99,-3.26,Sitting
18:15.9,511,481,721.5,520,428,1.39,719.33,2.09,20723.97,427,145,146.9,146,21579,0,0,0.94,-0.05,0.31,-1.94,0.83,-0.48,-3.24,-70.12,-0.99,-0.59,-0.13,-1.08,-3.37,Sitting
18:15.9,445,477,715.5,520,427,1.4,716.44,2.09,20723.97,427,146,146.9,146,21579,21316,146,0.95,-0.05,0.33,-2.08,0.75,-0.56,-3.35,-69.05,-1.11,-0.68,-0.11,-1.2,-3.42,Sitting
18:16.0,493,478,717,520,428,1.39,719.33,2.09,20723.97,427,147,146.9,146,21579,42925,293,0.94,-0.05,0.31,-1.79,1.37,-0.87,-3.22,-69.95,-1.2,-0.73,-0.12,-1.28,-3.5,Sitting
18:16.1,553,485,727.5,553,428,1.39,719.33,2.09,20723.97,427,146,146.9,146,21579,64241,439,0.95,-0.05,0.32,-2.32,0.97,-0.66,-3.22,-69.33,-1.33,-0.81,-0.11,-1.41,-3.55,Sitting
18:16.2,551,490,735,553,428,1.39,719.33,2.09,20723.97,427,148,146.9,146,21579,86145,587,0.95,-0.05,0.33,-1.7,1.27,-1.14,-3.69,-69.09,-1.42,-0.87,-0.13,-1.51,-3.59,Sitting
18:16.2,507,491,736.5,553,428,1.39,719.33,2.09,20723.97,427,146,146.9,146,21579,107461,733,0.94,-0.06,0.33,-1.49,0.72,-1.13,-3.85,-68.82,-1.49,-0.96,-0.16,-1.59,-3.68,Sitting
18:16.3,470,489,733.5,553,427,1.4,716.44,2.09,20723.97,427,150,146.9,146,21579,129961,883,0.94,-0.06,0.32,-2.91,1.08,-1.05,-3.87,-69.56,-1.67,-1.03,-0.18,-1.76,-3.77,Sitting
18:16.4,482,489,733.5,553,427,1.4,716.44,2.09,20723.97,427,149,146.9,146,21579,152162,1032,0.94,-0.05,0.32,-1.43,1.38,-1.5,-3.41,-69.24,-1.73,-1.08,-0.23,-1.8,-3.81,Sitting
18:16.5,520,491,736.5,553,427,1.4,716.44,2.09,20723.97,427,149,146.9,146,21579,174363,1181,0.95,-0.05,0.31,-1.64,1.14,-1.4,-3.29,-69.98,-1.82,-1.15,-0.28,-1.88,-3.9,Sitting
18:16.5,565,495,742.5,565,427,1.4,716.44,2.09,20723.97,427,150,146.9,146,21579,196863,1331,0.94,-0.05,0.32,-1.73,1.17,-1.12,-3.53,-69.22,-1.91,-1.21,-0.3,-1.97,-3.93,Sitting
18:16.6,456,493,739.5,565,428,1.39,719.33,2.09,20723.97,427,149,148.01,148,21905,0,0,0.94,-0.05,0.32,-1.78,1,-0.72,-3.43,-69.55,-2,-1.29,-0.3,-2.06,-4.02,Sitting
18:16.7,401,488,732,565,427,1.4,716.44,2.09,20723.97,427,150,148.01,148,21905,22500,150,0.94,-0.06,0.32,-1.86,1.02,-0.8,-3.79,-69.17,-2.1,-1.36,-0.3,-2.16,-4.07,Sitting
18:16.8,442,486,729,565,428,1.39,719.33,2.09,20723.97,427,147,148.01,148,21905,44109,297,0.94,-0.05,0.32,-1.49,1.14,-1.11,-3.27,-69.48,-2.17,-1.42,-0.32,-2.21,-4.15,Sitting
18:16.8,506,487,730.5,565,428,1.39,719.33,2.09,20723.97,427,149,148.01,148,21905,66310,446,0.95,-0.06,0.31,-1.85,0.81,-1.08,-3.92,-69.94,-2.26,-1.51,-0.34,-2.33,-4.25,Sitting
18:16.9,510,488,732,565,427,1.4,716.44,2.09,20723.97,427,147,148.01,148,21905,87919,593,0.95,-0.06,0.32,-2.22,0.75,-0.85,-3.75,-69.54,-2.39,-1.61,-0.35,-2.45,-4.33,Sitting
18:17.0,457,487,730.5,565,427,1.4,716.44,2.09,20723.97,427,149,148.01,148,21905,110120,742,0.95,-0.05,0.32,-1.65,1.06,-1.36,-3.37,-69.39,-2.47,-1.68,-0.39,-2.51,-4.39,Sitting
18:17.1,440,485,727.5,565,427,1.4,716.44,2.09,20723.97,427,148,148.01,148,21905,132024,890,0.95,-0.05,0.31,-1.91,0.98,-1.57,-3.41,-69.87,-2.58,-1.76,-0.45,-2.61,-4.48,Sitting
18:17.1,486,485,727.5,565,428,1.39,719.33,2.09,20723.97,427,148,148.01,148,21905,153928,1038,0.93,-0.05,0.33,-1.97,0.88,-1.18,-3.59,-69,-2.68,-1.84,-0.48,-2.72,-4.53,Sitting
18:17.2,531,486,729,565,428,1.39,719.33,2.09,20723.97,427,147,148.01,148,21905,175537,1185,0.95,-0.05,0.32,-1.37,1.63,-1.43,-3.18,-69.51,-2.75,-1.87,-0.53,-2.76,-4.58,Sitting
18:17.3,543,488,732,565,428,1.39,719.33,2.09,20723.97,427,147,148.01,148,21905,197146,1332,0.94,-0.05,0.32,-2.22,0.73,-1.61,-3.2,-69.24,-2.87,-1.97,-0.59,-2.89,-4.66,Sitting
18:17.4,537,490,735,565,427,1.4,716.44,2.09,20723.97,427,148,148,148,21904,0,0,0.95,-0.05,0.33,-1.76,1.18,-0.52,-3.3,-69.13,-2.96,-2.03,-0.57,-2.98,-4.71,Sitting
18:17.4,454,489,733.5,565,428,1.39,719.33,2.09,20723.97,427,148,148,148,21904,21904,148,0.94,-0.06,0.32,-2.92,1.19,-0.35,-3.91,-69.59,-3.14,-2.09,-0.54,-3.17,-4.79,Sitting
18:17.5,512,490,735,565,428,1.39,719.33,2.09,20723.97,427,148,148,148,21904,43808,296,0.95,-0.04,0.32,-1.18,0.99,-0.79,-3.13,-69.6,-3.19,-2.17,-0.54,-3.19,-4.87,Sitting
18:17.6,542,491,736.5,565,427,1.4,716.44,2.09,20723.97,427,148,148,148,21904,65712,444,0.94,-0.05,0.31,-1.38,1.61,-1.18,-3.59,-69.78,-3.25,-2.2,-0.57,-3.26,-4.9,Sitting
18:17.7,541,493,739.5,565,427,1.4,716.44,2.09,20723.97,427,149,148,148,21904,87913,593,0.95,-0.05,0.32,-2.31,1.5,-0.69,-3.35,-69.29,-3.38,-2.24,-0.56,-3.38,-4.92,Sitting
18:17.7,494,493,739.5,565,427,1.4,716.44,2.09,20723.97,427,148,148,148,21904,109817,741,0.95,-0.05,0.32,-1.68,1.2,-0.92,-3.2,-69.44,-3.47,-2.3,-0.57,-3.46,-4.98,Sitting
18:17.8,486,492,738,565,428,1.39,719.33,2.09,20723.97,427,151,148,148,21904,132618,892,0.96,-0.05,0.32,-1.55,0.67,-1.57,-3.56,-69.84,-3.54,-2.4,-0.63,-3.54,-5.09,Sitting
18:17.9,550,494,741,565,427,1.4,716.44,2.09,20723.97,427,150,148,148,21904,155118,1042,0.94,-0.06,0.32,-2.38,0.99,-1.35,-3.77,-69.51,-3.68,-2.47,-0.68,-3.69,-5.16,Sitting
18:18.0,578,496,744,578,428,1.39,719.33,2.09,20723.97,427,149,148,148,21904,177319,1191,0.94,-0.05,0.33,-1.63,0.98,-1.02,-3.46,-69.11,-3.76,-2.55,-0.69,-3.75,-5.21,Sitting
18:18.0,536,497,745.5,578,427,1.4,716.44,2.09,20723.97,427,150,148,148,21904,199819,1341,0.95,-0.04,0.32,-2.79,1.05,-1.84,-3.03,-69.44,-3.93,-2.62,-0.77,-3.9,-5.3,Sitting
18:18.1,489,497,745.5,578,427,1.4,716.44,2.09,20723.97,427,150,149.1,149,22230,0,0,0.93,-0.05,0.33,-2.05,0.82,-1.35,-3.37,-68.92,-4.04,-2.71,-0.81,-4.02,-5.36,Sitting
18:18.2,421,495,742.5,578,427,1.4,716.44,2.09,20723.97,427,150,149.1,149,22230,22500,150,0.94,-0.05,0.32,-1.98,0.77,-1.26,-3.24,-69.32,-4.15,-2.81,-0.85,-4.11,-5.47,Sitting
18:18.3,516,496,744,578,427,1.4,716.44,2.09,20723.97,427,148,149.1,149,22230,44404,298,0.93,-0.04,0.33,-1.58,1.21,-0.63,-3.12,-68.76,-4.23,-2.87,-0.84,-4.18,-5.5,Sitting
18:18.4,525,496,744,578,427,1.4,716.44,2.09,20723.97,427,150,149.1,149,22230,66904,448,0.95,-0.05,0.32,-1.6,1.16,-0.53,-3.44,-69.41,-4.31,-2.93,-0.82,-4.27,-5.59,Sitting
18:18.4,472,496,744,578,427,1.4,716.44,2.09,20723.97,427,149,149.1,149,22230,89105,597,0.94,-0.05,0.33,-1.86,0.76,-0.84,-3.55,-69.11,-4.41,-3.02,-0.82,-4.37,-5.67,Sitting
18:18.5,434,494,741,578,427,1.4,716.44,2.09,20723.97,427,150,149.1,149,22230,111605,747,0.94,-0.05,0.32,-1.98,1.39,-1.11,-3.68,-69.47,-4.51,-3.07,-0.85,-4.48,-5.73,Sitting
18:18.6,477,494,741,578,427,1.4,716.44,2.09,20723.97,427,148,149.1,149,22230,133509,895,0.95,-0.05,0.32,-1.31,1.13,-0.99,-3.32,-69.57,-4.57,-3.14,-0.86,-4.52,-5.79,Sitting
18:18.7,512,494,741,578,427,1.4,716.44,2.09,20723.97,427,149,149.1,149,22230,155710,1044,0.94,-0.05,0.33,-2.13,1.07,-1.91,-3.48,-68.54,-4.69,-3.21,-0.95,-4.64,-5.82,Sitting
18:18.7,518,495,742.5,578,428,1.39,719.33,2.09,20723.97,427,148,149.1,149,22230,177614,1192,0.94,-0.05,0.33,-1.8,1.14,-1.47,-3.41,-69.18,-4.78,-3.27,-1,-4.73,-5.91,Sitting
18:18.8,497,495,742.5,578,428,1.39,719.33,2.09,20723.97,427,148,149.1,149,22230,199518,1340,0.94,-0.05,0.32,-1.66,1.1,-1.56,-3.33,-69.32,-4.87,-3.34,-1.06,-4.81,-5.98,Sitting
18:18.9,457,494,741,578,427,1.4,716.44,2.09,20723.96,427,149,148.9,148,22170,0,0,0.94,-0.05,0.33,-1.95,0.97,-1.23,-3.46,-68.89,-4.97,-3.42,-1.09,-4.91,-6.04,Sitting
18:19.0,511,494,741,578,428,1.39,719.33,2.09,20723.96,427,148,148.9,148,22170,21904,148,0.94,-0.05,0.33,-2.42,0.86,-1.18,-3.3,-68.82,-5.11,-3.5,-1.12,-5.04,-6.12,Sitting
18:19.0,548,495,742.5,578,427,1.4,716.44,2.09,20723.96,427,150,148.9,148,22170,44404,298,0.93,-0.05,0.33,-1.79,1.14,-0.95,-3.25,-69,-5.21,-3.57,-1.13,-5.13,-6.19,Sitting
18:19.1,541,496,744,578,427,1.4,716.44,2.09,20723.96,427,150,148.9,148,22170,66904,448,0.95,-0.05,0.32,-1.77,1.24,-0.74,-3.57,-69.65,-5.3,-3.63,-1.13,-5.23,-6.27,Sitting
18:19.2,459,496,744,578,428,1.39,719.33,2.09,20723.96,427,151,148.9,148,22170,89705,599,0.94,-0.06,0.32,-2.29,0.37,-0.85,-3.78,-69.19,-5.43,-3.75,-1.13,-5.37,-6.37,Sitting
18:19.3,437,495,742.5,578,427,1.4,716.44,2.09,20723.96,427,150,148.9,148,22170,112205,749,0.93,-0.05,0.33,-2.4,0.67,-0.63,-3.33,-68.95,-5.57,-3.85,-1.12,-5.48,-6.46,Sitting
18:19.3,477,494,741,578,427,1.4,716.44,2.09,20723.96,427,153,148.9,148,22170,135614,902,0.95,-0.05,0.33,-2.49,0.6,-0.55,-3.49,-68.92,-5.72,-3.96,-1.1,-5.63,-6.56,Sitting
18:19.4,550,495,742.5,578,427,1.4,716.44,2.09,20723.96,427,151,148.9,148,22170,158415,1053,0.94,-0.05,0.32,-1.98,0.77,-1.02,-3.59,-69.15,-5.82,-4.05,-1.12,-5.74,-6.66,Sitting
18:19.5,535,496,744,578,427,1.4,716.44,2.09,20723.96,427,152,148.9,148,22170,181519,1205,0.94,-0.05,0.32,-2.48,1.31,-1.05,-3.35,-69.42,-5.97,-4.11,-1.14,-5.87,-6.72,Sitting
18:19.6,485,496,744,578,427,1.4,716.44,2.09,20723.96,427,152,148.9,148,22170,204623,1357,0.94,-0.05,0.32,-1.96,0.89,-0.74,-3.46,-69.74,-6.08,-4.19,-1.14,-5.97,-6.81,Sitting
18:19.6,443,495,742.5,578,427,1.4,716.44,2.09,20723.96,427,152,150.9,150,22771,0,0,0.94,-0.05,0.32,-2.07,1.15,-0.63,-3.33,-69.72,-6.19,-4.25,-1.12,-6.08,-6.87,Sitting
18:19.8,491,495,742.5,578,427,1.4,716.44,2.09,20723.96,427,152,150.9,150,22771,23104,152,0.95,-0.06,0.33,-2.21,0.84,-0.56,-3.78,-69.08,-6.32,-4.34,-1.11,-6.22,-6.93,Sitting
18:19.9,517,495,742.5,578,427,1.4,716.44,2.09,20723.96,427,151,150.9,150,22771,45905,303,0.94,-0.06,0.34,-1.84,1.02,-0.44,-4.07,-68.5,-6.41,-4.42,-1.08,-6.32,-6.98,Sitting
18:20.0,477,495,742.5,578,427,1.4,716.44,2.09,20723.96,427,153,150.9,150,22771,69314,456,0.94,-0.06,0.33,-1.86,1.68,-0.92,-3.97,-68.93,-6.51,-4.44,-1.09,-6.41,-7.02,Sitting
18:20.0,435,494,741,578,428,1.39,719.33,2.09,20723.96,427,151,150.9,150,22771,92115,607,0.95,-0.05,0.32,-1.83,1.25,-0.67,-3.65,-69.51,-6.61,-4.5,-1.08,-6.49,-7.1,Sitting
18:20.1,423,493,739.5,578,427,1.4,716.44,2.09,20723.96,427,152,150.9,150,22771,115219,759,0.94,-0.06,0.33,-2.15,1.44,-1.23,-4.06,-68.9,-6.73,-4.54,-1.11,-6.62,-7.11,Sitting
18:20.1,482,493,739.5,578,427,1.4,716.44,2.09,20723.96,427,150,150.9,150,22771,137719,909,0.95,-0.05,0.31,-1.96,1.01,-1.27,-3.7,-69.9,-6.84,-4.62,-1.15,-6.71,-7.23,Sitting
18:20.2,506,493,739.5,578,428,1.39,719.33,2.09,20723.96,427,150,150.9,150,22771,160219,1059,0.93,-0.06,0.32,-2.34,1.23,-1.39,-3.79,-69.11,-6.97,-4.67,-1.2,-6.84,-7.25,Sitting
18:20.3,506,493,739.5,578,428,1.39,719.33,2.09,20723.96,427,150,150.9,150,22771,182719,1209,0.94,-0.05,0.33,-1.35,1.76,-1.7,-3.39,-68.7,-7.03,-4.69,-1.27,-6.89,-7.25,Sitting
18:20.3,469,493,739.5,578,427,1.4,716.44,2.09,20723.96,427,150,150.9,150,22771,205219,1359,0.95,-0.05,0.32,-0.93,0.89,-1.95,-3.47,-69.64,-7.06,-4.78,-1.35,-6.92,-7.37,Sitting
18:20.4,460,492,738,578,427,1.4,716.44,2.09,20723.97,427,150,150.9,150,22770,0,0,0.94,-0.05,0.33,-1.92,0.84,-1.55,-3.24,-68.87,-7.16,-4.86,-1.41,-7,-7.42,Sitting
18:20.5,553,493,739.5,578,428,1.39,719.33,2.09,20723.97,427,150,150.9,150,22770,22500,150,0.95,-0.05,0.33,-2.26,1.29,-0.98,-3.53,-69.2,-7.29,-4.92,-1.42,-7.14,-7.49,Sitting
18:20.6,575,494,741,578,427,1.4,716.44,2.09,20723.97,427,152,150.9,150,22770,45604,302,0.94,-0.05,0.32,-2.35,0.79,-0.82,-3.66,-69.39,-7.43,-5.01,-1.43,-7.28,-7.58,Sitting
18:20.6,541,495,742.5,578,428,1.39,719.33,2.09,20723.97,427,153,150.9,150,22770,69013,455,0.94,-0.05,0.32,-1.83,1.15,-0.99,-3.31,-69.27,-7.52,-5.07,-1.44,-7.35,-7.64,Sitting
18:20.7,481,495,742.5,578,427,1.4,716.44,2.09,20723.97,427,153,150.9,150,22770,92422,608,0.94,-0.06,0.31,-1.92,1.08,-0.82,-3.76,-69.81,-7.63,-5.14,-1.45,-7.47,-7.73,Sitting
18:20.8,502,495,742.5,578,427,1.4,716.44,2.09,20723.97,427,149,150.9,150,22770,114623,757,0.94,-0.05,0.32,-4.13,1.92,-0.52,-3.6,-69.67,-7.89,-5.15,-1.43,-7.72,-7.73,Sitting
18:20.9,542,495,742.5,578,428,1.39,719.33,2.09,20723.97,427,152,150.9,150,22770,137727,909,0.94,-0.06,0.34,-2.15,0.59,-1.02,-3.78,-68.57,-8.01,-5.26,-1.44,-7.85,-7.79,Sitting
18:20.9,546,496,744,578,428,1.39,719.33,2.09,20723.97,427,152,150.9,150,22770,160831,1061,0.94,-0.05,0.32,-0.93,1.32,-1.62,-3.7,-69.53,-8.04,-5.31,-1.51,-7.87,-7.88,Sitting
18:21.0,496,496,744,578,428,1.39,719.33,2.09,20723.97,427,152,150.9,150,22770,183935,1213,0.94,-0.05,0.31,-1.85,1.07,-1.58,-3.37,-69.8,-8.14,-5.38,-1.57,-7.95,-7.96,Sitting
18:21.1,479,496,744,578,427,1.4,716.44,2.09,20723.97,427,153,150.9,150,22770,207344,1366,0.94,-0.05,0.33,-2.29,1.18,-1.06,-3.42,-68.91,-8.28,-5.44,-1.59,-8.08,-7.98,Sitting
18:21.2,492,496,744,578,428,1.39,719.33,2.09,20723.97,427,152,151.8,151,23043,0,0,0.94,-0.05,0.31,-2.34,0.77,-0.98,-3.29,-69.71,-8.41,-5.53,-1.6,-8.2,-8.1,Sitting
18:21.2,549,496,744,578,428,1.39,719.33,2.09,20723.97,427,151,151.8,151,23043,22801,151,0.94,-0.05,0.32,-5.15,1.15,-0.5,-3.53,-69.65,-8.76,-5.6,-1.58,-8.55,-8.16,Sitting
18:21.3,546,497,745.5,578,428,1.39,719.33,2.09,20723.97,427,150,151.8,151,23043,45301,301,0.93,-0.05,0.35,-2.68,1.46,-0.21,-3.45,-67.54,-8.92,-5.64,-1.54,-8.7,-8.12,Sitting
18:21.4,492,497,745.5,578,427,1.4,716.44,2.09,20723.97,427,152,151.8,151,23043,68405,453,0.95,-0.06,0.33,-1.3,0.92,-1.09,-4,-68.72,-8.97,-5.72,-1.56,-8.77,-8.24,Sitting
18:21.5,452,496,744,578,427,1.4,716.44,2.09,20723.97,427,151,151.8,151,23043,91206,604,0.94,-0.05,0.32,-1.85,0.82,-1.72,-3.49,-69.29,-9.07,-5.81,-1.63,-8.85,-8.35,Sitting
18:21.5,498,496,744,578,427,1.4,716.44,2.09,20723.97,427,153,151.8,151,23043,114615,757,0.94,-0.06,0.32,-2.01,0.63,-1.04,-3.93,-69.12,-9.18,-5.91,-1.65,-8.97,-8.44,Sitting
18:21.6,704,499,748.5,704,427,1.4,716.44,2.09,20723.97,427,152,151.8,151,23043,137719,909,0.94,-0.05,0.32,-2.46,0.53,-1.15,-3.68,-69.44,-9.32,-6.03,-1.67,-9.1,-8.56,Sitting
18:21.7,521,499,748.5,704,427,1.4,716.44,2.09,20723.97,427,151,151.8,151,23043,160520,1060,0.94,-0.05,0.34,-2.05,1.06,-1.18,-3.55,-68.52,-9.44,-6.1,-1.7,-9.2,-8.59,Sitting
18:21.8,471,499,748.5,704,428,1.39,719.33,2.09,20723.97,427,150,151.8,151,23043,183020,1210,0.94,-0.05,0.33,-2.44,1.4,-1.2,-3.59,-69.12,-9.58,-6.14,-1.73,-9.34,-8.66,Sitting
18:21.8,436,498,747,704,427,1.4,716.44,2.09,20723.97,427,152,151.8,151,23043,206124,1362,0.94,-0.06,0.33,-1.21,1.15,-0.46,-4.13,-68.49,-9.63,-6.21,-1.71,-9.41,-8.7,Sitting
18:21.9,485,498,747,704,427,1.4,716.44,2.09,20723.97,427,150,151.2,151,22861,0,0,0.94,-0.05,0.31,-2.85,0.83,-0.18,-3.74,-69.96,-9.8,-6.29,-1.66,-9.56,-8.84,Sitting
18:22.0,556,498,747,704,427,1.4,716.44,2.09,20723.97,427,150,151.2,151,22861,22500,150,0.94,-0.06,0.34,-2.45,0.79,-0.34,-4.25,-68.36,-9.95,-6.39,-1.63,-9.72,-8.86,Sitting
18:22.1,522,499,748.5,704,427,1.4,716.44,2.09,20723.97,427,154,151.2,151,22861,46216,304,0.95,-0.07,0.33,-1.54,1.15,-0.89,-4.29,-68.95,-10.02,-6.45,-1.64,-9.79,-8.95,Sitting
18:22.2,459,498,747,704,428,1.39,719.33,2.09,20723.97,427,153,151.2,151,22861,69625,457,0.93,-0.06,0.32,-1.76,0.94,-0.38,-4.23,-69.11,-10.11,-6.53,-1.61,-9.88,-9.03,Sitting
18:22.3,442,498,747,704,428,1.39,719.33,2.09,20723.97,427,150,151.2,151,22861,92125,607,0.95,-0.05,0.32,-2.08,0.91,-0.33,-3.58,-69.44,-10.23,-6.61,-1.57,-9.96,-9.13,Sitting
18:22.3,482,497,745.5,704,427,1.4,716.44,2.09,20723.97,427,154,151.2,151,22861,115841,761,0.95,-0.07,0.33,-2.18,1.25,-0.82,-4.3,-68.83,-10.35,-6.67,-1.57,-10.11,-9.16,Sitting
18:22.4,536,498,747,704,428,1.39,719.33,2.09,20723.97,427,151,151.2,151,22861,138642,912,0.94,-0.06,0.33,-1.81,1.43,-1.62,-4.02,-68.96,-10.45,-6.72,-1.64,-10.19,-9.21,Sitting
18:22.5,518,498,747,704,428,1.39,719.33,2.09,20723.97,427,153,151.2,151,22861,162051,1065,0.94,-0.07,0.33,-1.46,1.35,-1.25,-4.63,-68.93,-10.52,-6.77,-1.67,-10.28,-9.25,Sitting
18:22.5,482,498,747,704,428,1.39,719.33,2.09,20723.97,427,155,151.2,151,22861,186076,1220,0.94,-0.06,0.33,-1.88,1.51,-1.58,-3.99,-68.89,-10.61,-6.8,-1.73,-10.35,-9.29,Sitting
18:22.6,432,497,745.5,704,427,1.4,716.44,2.09,20723.97,427,153,151.2,151,22861,209485,1373,0.94,-0.05,0.32,-1.9,0.97,-1.36,-3.64,-69.48,-10.72,-6.88,-1.78,-10.43,-9.39,Sitting
18:22.7,455,497,745.5,704,427,1.4,716.44,2.09,20723.97,427,151,152.41,152,23227,0,0,0.93,-0.06,0.32,-3.98,0.92,-0.6,-3.87,-69.15,-10.97,-6.96,-1.76,-10.69,-9.45,Sitting
18:22.7,523,497,745.5,704,427,1.4,716.44,2.09,20723.97,427,153,152.41,152,23227,23409,153,0.94,-0.06,0.34,-4.65,0.86,0.08,-4.06,-68.46,-11.29,-7.05,-1.69,-11,-9.51,Sitting
18:22.8,541,498,747,704,428,1.39,719.33,2.09,20723.97,427,150,152.41,152,23227,45909,303,0.94,-0.07,0.35,-3.16,0.9,-0.66,-4.3,-67.55,-11.48,-7.13,-1.68,-11.2,-9.55,Sitting
18:22.9,504,498,747,704,428,1.39,719.33,2.09,20723.97,427,152,152.41,152,23227,69013,455,0.95,-0.06,0.34,-0.31,1.26,-1.72,-4.17,-68.53,-11.46,-7.19,-1.76,-11.17,-9.64,Sitting
18:23.0,464,498,747,704,427,1.4,716.44,2.09,20723.97,427,152,152.41,152,23227,92117,607,0.94,-0.06,0.32,-0.82,0.79,-1.82,-4.33,-69.49,-11.49,-7.28,-1.83,-11.2,-9.77,Sitting
18:23.1,507,499,748.5,704,427,1.4,716.44,2.09,20723.97,427,151,152.41,152,23227,114918,758,0.93,-0.05,0.32,-2.2,1.32,-1.31,-3.76,-69.15,-11.61,-7.33,-1.87,-11.3,-9.81,Sitting
18:23.1,571,499,748.5,704,427,1.4,716.44,2.09,20723.97,427,152,152.41,152,23227,138022,910,0.94,-0.05,0.33,-1.76,0.84,-0.95,-3.63,-68.87,-11.7,-7.42,-1.89,-11.38,-9.88,Sitting
18:23.2,572,500,750,704,427,1.4,716.44,2.09,20723.97,427,154,152.41,152,23227,161738,1064,0.94,-0.06,0.32,-1.41,1.44,-1.52,-3.92,-69.46,-11.77,-7.46,-1.94,-11.45,-9.94,Sitting
18:23.3,540,501,751.5,704,427,1.4,716.44,2.09,20723.97,427,151,152.41,152,23227,184539,1215,0.94,-0.05,0.31,-1.94,1.44,-1.21,-3.72,-69.74,-11.87,-7.51,-1.97,-11.55,-10,Sitting
18:23.4,517,501,751.5,704,427,1.4,716.44,2.09,20723.97,427,155,152.41,152,23227,208564,1370,0.94,-0.06,0.32,-1.79,1.44,-0.92,-3.93,-69.13,-11.97,-7.55,-1.98,-11.65,-10.01,Sitting
18:23.4,441,500,750,704,428,1.39,719.33,2.09,20723.97,427,152,152.2,152,23165,0,0,0.94,-0.06,0.33,-2.07,0.65,-1.34,-4.02,-69.02,-12.08,-7.65,-2.03,-11.76,-10.11,Sitting
18:23.5,485,501,751.5,704,427,1.4,716.44,2.09,20723.97,427,152,152.2,152,23165,23104,152,0.94,-0.06,0.34,-1.36,0.66,-1.02,-4.09,-68.48,-12.14,-7.76,-2.04,-11.82,-10.18,Sitting
18:23.6,517,501,751.5,704,427,1.4,716.44,2.09,20723.97,427,154,152.2,152,23165,46820,306,0.94,-0.06,0.33,-2.18,0.98,-1.1,-4,-68.76,-12.26,-7.83,-2.07,-11.93,-10.27,Sitting
18:23.7,519,501,751.5,704,427,1.4,716.44,2.09,20723.97,427,155,152.2,152,23165,70845,461,0.94,-0.06,0.34,-2.11,0.95,-1.12,-3.82,-68.45,-12.38,-7.91,-2.09,-12.04,-10.33,Sitting
18:23.8,476,500,750,704,427,1.4,716.44,2.09,20723.97,427,152,152.2,152,23165,93949,613,0.94,-0.06,0.33,-1.61,0.73,-1.45,-4.05,-68.73,-12.46,-8.01,-2.14,-12.13,-10.44,Sitting
18:23.8,429,499,748.5,704,427,1.4,716.44,2.09,20723.97,427,153,152.2,152,23165,117358,766,0.94,-0.06,0.34,-1.46,1.15,-1.36,-3.94,-68.47,-12.53,-8.08,-2.19,-12.19,-10.49,Sitting
18:23.9,449,499,748.5,704,427,1.4,716.44,2.09,20723.97,427,154,152.2,152,23165,141074,920,0.94,-0.06,0.33,-1.75,1.19,-1.57,-3.97,-69.09,-12.62,-8.14,-2.25,-12.28,-10.58,Sitting
18:24.0,499,499,748.5,704,428,1.39,719.33,2.09,20723.97,427,152,152.2,152,23165,164178,1072,0.94,-0.06,0.32,-1.56,1.2,-1.63,-3.96,-69.23,-12.7,-8.2,-2.31,-12.35,-10.64,Sitting
18:24.1,518,499,748.5,704,428,1.39,719.33,2.09,20723.97,427,151,152.2,152,23165,186979,1223,0.93,-0.05,0.32,-1.72,1.36,-1.23,-3.59,-69.26,-12.79,-8.25,-2.34,-12.42,-10.69,Sitting
18:24.1,511,499,748.5,704,428,1.39,719.33,2.09,20723.97,427,155,152.2,152,23165,211004,1378,0.94,-0.06,0.32,-2.16,0.99,-0.82,-3.91,-69.1,-12.91,-8.33,-2.35,-12.55,-10.76,Sitting
18:24.2,508,499,748.5,704,428,1.39,719.33,2.09,20723.97,427,153,153.1,153,23440,0,0,0.94,-0.06,0.32,-2.09,0.71,-1.25,-3.84,-69.53,-13.03,-8.42,-2.38,-12.66,-10.87,Sitting
18:24.3,466,500,750,704,428,1.39,719.33,2.09,20723.97,427,152,153.1,153,23440,23104,152,0.93,-0.07,0.33,-2.54,0.56,-1.05,-4.4,-68.37,-13.18,-8.53,-2.4,-12.83,-10.93,Sitting
18:24.4,526,501,751.5,704,427,1.4,716.44,2.09,20723.97,427,152,153.1,153,23440,46208,304,0.94,-0.05,0.33,-2.8,0.61,-0.31,-3.73,-68.91,-13.35,-8.64,-2.36,-12.96,-11.05,Sitting
18:24.4,562,501,751.5,704,428,1.39,719.33,2.09,20723.97,427,149,153.1,153,23440,68409,453,0.94,-0.06,0.33,-1.64,0.86,-0.79,-4.02,-68.93,-13.43,-8.72,-2.36,-13.05,-11.13,Sitting
18:24.5,578,502,753,704,427,1.4,716.44,2.09,20723.97,427,151,153.1,153,23440,91210,604,0.93,-0.07,0.32,-1.93,0.8,-0.66,-4.45,-69.33,-13.54,-8.82,-2.35,-13.17,-11.24,Sitting
18:24.6,529,502,753,704,428,1.39,719.33,2.09,20723.97,427,151,153.1,153,23440,114011,755,0.94,-0.06,0.34,-2.41,1.41,-0.72,-4.11,-68.07,-13.68,-8.86,-2.35,-13.3,-11.23,Sitting
18:24.7,484,503,754.5,704,428,1.39,719.33,2.09,20723.97,427,150,153.1,153,23440,136511,905,0.94,-0.06,0.33,-2.4,1.16,-0.76,-4.23,-68.97,-13.82,-8.93,-2.35,-13.43,-11.33,Sitting
18:29.8,305,305,457.5,305,428,1.39,719.33,2.09,0,0,152,0,0,0,47129,307,1.03,-0.02,0.34,9.7,5.05,-25.08,-1.76,-70.01,1.22,1.2,-3.41,1.1,-1.65,Left Fall while Sitting
18:29.9,414,359,538.5,414,428,1.39,719.33,2.09,0,0,153,0,0,0,70538,460,0.94,0.02,0.26,7.63,7.18,-23.01,0.55,-72.98,1.82,1.58,-5.03,1.77,-1.4,Left Fall while Sitting
18:29.9,324,347,520.5,414,427,1.4,716.44,2.09,0,0,154,0,0,0,94254,614,0.86,0.02,0.25,-4.34,0.11,-17.03,0.99,-72,1.55,1.45,-6.2,1.53,-1.49,Left Fall while Sitting
18:30.0,336,344,516,414,428,1.39,719.33,2.09,0,0,154,0,0,0,117970,768,0.87,0.04,0.29,-5.4,1.43,-8.28,2.08,-69.44,1.2,1.4,-6.75,1.23,-1.43,Left Fall while Sitting
18:30.1,389,353,529.5,414,428,1.39,719.33,2.09,0,0,154,0,0,0,141686,922,0.88,0.07,0.26,-7.46,5.1,-0.25,3.52,-71.24,0.69,1.63,-6.71,0.81,-1.28,Left Fall while Sitting
18:30.1,351,353,529.5,414,427,1.4,716.44,2.09,0,0,154,0,0,0,165402,1076,0.92,0.06,0.35,-9.37,-0.08,6.61,3.17,-67.31,0.05,1.48,-6.17,0.17,-1.27,Left Fall while Sitting
18:30.2,413,361,541.5,414,427,1.4,716.44,2.09,0,0,155,0,0,0,189427,1231,0.95,0.07,0.31,-7.08,0.31,6.77,3.26,-70.02,-0.43,1.35,-5.61,-0.28,-1.5,Left Fall while Sitting
18:30.3,516,381,571.5,516,428,1.39,719.33,2.09,0,0,154,0,0,0,213143,1385,1,0.05,0.35,-0.2,4.74,1.23,1.87,-69.04,-0.4,1.55,-5.47,-0.31,-1.27,Left Fall while Sitting
18:30.4,455,389,583.5,516,428,1.39,719.33,2.09,20723.97,427,153,153.8,153,23654,0,0,1.03,0.03,0.39,5.02,6.55,-6.92,0.91,-67.59,0.01,1.89,-5.92,0.05,-0.89,Left Fall while Sitting
18:30.4,583,408,612,583,428,1.39,719.33,2.09,20723.97,427,155,153.8,153,23654,24025,155,1.01,0.03,0.33,19.34,8.09,-21.11,1.26,-70.09,1.49,2.34,-7.42,1.48,-0.56,Left Fall while Sitting
18:30.5,706,435,652.5,706,428,1.39,719.33,2.09,20723.97,427,155,153.8,153,23654,48050,310,0.95,0.07,0.34,17.73,8.85,-32.53,3.15,-68.49,2.87,2.86,-9.84,2.89,0.01,Left Fall while Sitting
18:30.6,699,457,685.5,706,428,1.39,719.33,2.09,20723.97,427,156,153.8,153,23654,72386,466,0.91,0.11,0.32,22.75,15.27,-34.77,6.04,-68,4.62,3.86,-12.39,4.68,0.98,Left Fall while Sitting
18:30.7,628,470,705,706,428,1.39,719.33,2.09,20723.97,427,155,153.8,153,23654,96411,621,0.89,0.19,0.25,9.01,6.97,-27.1,11.07,-69.03,5.35,4.24,-14.39,5.58,1.31,Left Fall while Sitting
18:30.7,760,491,736.5,760,428,1.39,719.33,2.09,20723.97,427,156,153.8,153,23654,120747,777,0.9,0.21,0.32,1.21,4.57,-20.17,11.94,-65.28,5.48,4.43,-15.82,5.74,1.64,Left Fall while Sitting
18:30.8,887,517,775.5,887,677,0.51,1956.65,3.31,20723.97,427,163,153.8,153,23654,147316,940,0.89,0.26,0.34,5.01,16.12,-24.14,14.95,-62.35,5.9,5.5,-17.59,6.27,2.79,Left Fall while Sitting
18:30.9,809,535,802.5,887,744,0.37,2666.67,3.64,20723.97,427,166,153.8,153,23654,174872,1106,0.84,0.29,0.41,3.37,14.82,-24.8,16.75,-57.61,6.2,6.47,-19.42,6.62,3.91,Left Fall while Sitting
18:31.0,589,539,808.5,887,647,0.58,1720.74,3.16,20723.97,427,163,153.8,153,23654,201441,1269,0.81,0.32,0.41,7.84,11.09,-19.36,18.51,-55.92,6.84,7.17,-20.83,7.31,4.64,Left Fall while Sitting
18:31.0,458,534,801,887,518,0.97,1025.74,2.53,20723.97,427,160,153.8,153,23654,227041,1429,0.8,0.35,0.33,5.56,5.31,-11.56,21.64,-57.29,7.31,7.42,-21.65,7.88,4.83,Left Fall while Sitting
18:31.1,308,522,783,887,399,1.56,639.42,1.95,46.26,512,153,158.26,158,25044,0,0,0.8,0.34,0.38,-0.42,5.63,-6.1,20.57,-55.79,7.32,7.68,-22.04,7.85,5.14,Left Fall while Sitting
18:31.2,518,522,783,887,475,1.15,866.79,2.32,46.26,512,158,158.26,158,25044,24964,158,0.81,0.34,0.39,-3.1,6.1,-3.82,20.03,-56.03,7.13,7.99,-22.26,7.64,5.43,Left Fall while Sitting
18:31.3,557,524,786,887,528,0.94,1066.67,2.58,46.26,512,160,158.26,158,25044,50564,318,0.83,0.35,0.41,0.5,8.31,-3.64,20.31,-55.41,7.21,8.46,-22.48,7.73,5.91,Left Fall while Sitting
18:31.3,609,527,790.5,887,554,0.85,1181.24,2.71,46.26,512,159,158.26,158,25044,75845,477,0.84,0.37,0.4,3.63,8.94,-7.85,20.95,-55.55,7.52,8.98,-23.01,8.06,6.4,Left Fall while Sitting
18:31.4,666,533,799.5,887,609,0.68,1471.01,2.98,46.26,512,165,158.26,158,25044,103070,642,0.84,0.36,0.42,0.17,6.23,-15.94,20.31,-54.87,7.57,9.3,-24.13,8.08,6.73,Left Fall while Sitting
18:31.5,587,536,804,887,598,0.71,1407.06,2.92,46.26,512,160,158.26,158,25044,128670,802,0.84,0.39,0.42,8.06,15.45,-22.39,21.77,-54.25,8.22,10.3,-25.75,8.76,7.72,Left Fall while Sitting
18:31.6,557,536,804,887,582,0.76,1319.73,2.84,46.26,512,164,158.26,158,25044,155566,966,0.81,0.4,0.46,10.11,18.53,-31.2,22.98,-51.12,9.02,11.54,-28.03,9.58,9.04,Left Fall while Sitting
18:31.6,618,540,810,887,590,0.73,1362.59,2.88,46.26,512,165,158.26,158,25044,182791,1131,0.75,0.46,0.38,6.16,14.72,-35.31,27.94,-49.94,9.53,12.51,-30.65,10.27,10.01,Left Fall while Sitting
18:31.7,734,547,820.5,887,656,0.56,1787.47,3.21,46.26,512,165,158.26,158,25044,210016,1296,0.67,0.47,0.43,-0.5,11.15,-28.69,29.75,-45.26,9.54,13.2,-32.74,10.34,10.86,Left Fall while Sitting
18:31.8,680,552,828,887,657,0.56,1795.08,3.21,46.26,512,163,158.26,158,25044,236585,1459,0.66,0.5,0.5,2.68,13.8,-26.02,30.78,-41.29,9.78,14.09,-34.66,10.62,11.88,Left Fall while Sitting
18:31.9,601,553,829.5,887,621,0.65,1544.78,3.04,9.22,587,163,162.22,162,26314,0,0,0.64,0.55,0.45,9.63,11.76,-22.98,34.66,-40.38,10.55,14.83,-36.33,11.51,12.62,Left Fall while Sitting
18:31.9,527,552,828,887,558,0.83,1200,2.73,9.22,587,163,162.22,162,26314,26569,163,0.59,0.59,0.42,7.81,15.63,-19.83,38.51,-37.55,11.18,15.86,-37.77,12.28,13.73,Left Fall while Sitting
18:32.0,488,550,825,887,515,0.99,1013.78,2.52,9.22,587,162,162.22,162,26314,52813,325,0.56,0.62,0.47,8.92,17.85,-13.5,39.43,-34.27,11.88,17.04,-38.71,12.99,14.98,Left Fall while Sitting
18:32.1,477,548,822,887,492,1.08,926.55,2.4,9.22,587,160,162.22,162,26314,78413,485,0.57,0.62,0.47,4.12,10.08,-7.21,39.13,-34.76,12.24,17.65,-39.2,13.32,15.55,Left Fall while Sitting
18:32.2,311,541,811.5,887,390,1.62,616.11,1.91,9.22,587,154,162.22,162,26314,102129,639,0.6,0.61,0.48,7.08,10.44,-9.63,37.75,-36.12,12.82,18.29,-39.87,13.82,16.11,Left Fall while Sitting
18:32.2,280,533,799.5,887,335,2.05,486.92,1.64,9.22,587,148,162.22,162,26314,124033,787,0.6,0.6,0.46,9.36,16.89,-16.67,38.19,-36.63,13.56,19.41,-41.06,14.55,17.17,Left Fall while Sitting
18:32.3,350,528,792,887,345,1.97,508.85,1.69,9.22,587,151,162.22,162,26314,146834,938,0.57,0.63,0.48,7.86,16.04,-23.01,39.7,-34.18,14.2,20.47,-42.75,15.22,18.29,Left Fall while Sitting
18:32.4,346,523,784.5,887,334,2.06,484.76,1.63,9.22,587,149,162.22,162,26314,169035,1087,0.52,0.67,0.39,3.21,14.2,-26.22,45.65,-31.99,14.49,21.39,-44.66,15.73,19.25,Left Fall while Sitting
18:32.5,438,520,780,887,381,1.69,593.46,1.86,9.22,587,149,162.22,162,26314,191236,1236,0.45,0.69,0.46,-1.06,8.44,-23.61,46.28,-27.1,14.45,21.88,-46.39,15.72,19.92,Left Fall while Sitting
18:32.5,529,521,781.5,887,460,1.22,817.05,2.25,9.22,587,153,162.22,162,26314,214645,1389,0.44,0.71,0.48,8.71,14.7,-24.98,46.73,-25.64,15.14,22.83,-48.21,16.41,20.89,Left Fall while Sitting
18:32.6,428,518,777,887,456,1.24,804.23,2.23,20724.25,426,154,154.39,154,23835,0,0,0.4,0.72,0.49,5.14,12.5,-27.18,48.37,-23.15,15.58,23.63,-50.21,16.89,21.76,Left Fall while Sitting
18:32.7,326,513,769.5,887,374,1.74,576.27,1.83,20724.25,426,148,154.39,154,23835,21904,148,0.37,0.75,0.49,6.61,12.13,-26.89,50.01,-21.04,16.12,24.39,-52.17,17.47,22.57,Left Fall while Sitting
18:32.8,397,511,766.5,887,372,1.75,571.43,1.82,20724.25,426,148,154.39,154,23835,43808,296,0.32,0.77,0.45,5.37,14.56,-25.65,53.49,-18.3,16.57,25.34,-54.06,18.04,23.6,Left Fall while Sitting
18:32.8,536,511,766.5,887,470,1.18,849.91,2.3,20724.25,426,154,154.39,154,23835,67524,450,0.29,0.77,0.45,5.63,13.27,-28.4,54.79,-16.4,17.04,26.2,-56.16,18.55,24.5,Left Fall while Sitting
18:32.9,480,510,765,887,478,1.14,877.06,2.34,20724.25,426,151,154.39,154,23835,90325,601,0.16,0.8,0.44,3.34,9.94,-29.9,59.29,-8.34,17.34,26.81,-58.4,19.01,25.41,Left Fall while Sitting
18:33.0,404,508,762,887,440,1.33,754.72,2.15,20724.25,426,149,154.39,154,23835,112526,750,0.18,0.8,0.44,-0.17,13.69,-24.5,58.75,-9.7,17.37,27.69,-60.18,19.02,26.19,Left Fall while Sitting
18:33.1,426,506,759,887,429,1.38,722.22,2.1,20724.25,426,147,154.39,154,23835,134135,897,0.16,0.82,0.44,-1.91,12.21,-16.17,59.57,-7.94,17.26,28.47,-61.35,18.96,27.01,Left Fall while Sitting
18:33.1,501,506,759,887,448,1.28,779.13,2.19,20724.25,426,147,154.39,154,23835,155744,1044,0.14,0.82,0.46,-0.91,8.62,-8.74,59.19,-6.76,17.24,28.97,-61.95,18.91,27.54,Left Fall while Sitting
18:33.2,582,508,762,887,510,1.01,994.15,2.49,20724.25,426,147,154.39,154,23835,177353,1191,0.16,0.8,0.47,-2.58,4.43,-6.36,57.73,-7.89,17.08,29.16,-62.38,18.71,27.67,Left Fall while Sitting
18:33.3,575,509,763.5,887,543,0.88,1131.25,2.65,20724.25,426,148,154.39,154,23835,199257,1339,0.16,0.82,0.44,-1.72,9.66,-10.46,59.91,-8.19,16.99,29.74,-63.12,18.71,28.22,Left Fall while Sitting
18:33.4,493,509,763.5,887,522,0.96,1041.92,2.55,100.9,458,149,148.81,148,22144,0,0,0.14,0.82,0.46,-4.91,6.91,-11.59,58.79,-6.97,16.67,30.1,-63.91,18.36,28.62,Left Fall while Sitting
18:33.5,475,508,762,887,481,1.13,887.45,2.35,100.9,458,146,148.81,148,22144,21316,146,0.12,0.82,0.49,-1.78,6.31,-12.71,58.07,-5.66,16.58,30.43,-64.82,18.24,28.99,Left Fall while Sitting
18:33.5,531,508,762,887,492,1.08,926.55,2.4,100.9,458,146,148.81,148,22144,42632,292,0.11,0.83,0.48,1.63,6.2,-13.46,58.75,-5.02,16.74,30.74,-65.77,18.42,29.31,Left Fall while Sitting
18:33.6,620,511,766.5,887,557,0.84,1195.28,2.72,100.9,458,148,148.81,148,22144,64536,440,0.08,0.83,0.44,0.57,3.57,-12.37,61.13,-3.47,16.83,30.86,-66.65,18.6,29.49,Left Fall while Sitting
18:33.7,503,510,765,887,533,0.92,1087.76,2.61,100.9,458,147,148.81,148,22144,86145,587,0.06,0.81,0.46,2.11,6.35,-12.61,59.54,-1.95,17.03,31.19,-67.54,18.73,29.86,Left Fall while Sitting
18:33.8,438,509,763.5,887,481,1.13,887.45,2.35,100.9,458,143,148.81,148,22144,106594,730,0.04,0.8,0.48,-2.74,3.32,-9.53,58.44,-1.06,16.86,31.29,-68.2,18.53,30,Left Fall while Sitting
18:33.8,502,509,763.5,887,471,1.17,853.26,2.3,100.9,458,143,148.81,148,22144,127043,873,-0.01,0.83,0.43,-5.08,2.76,-7.02,61.79,1.95,16.52,31.35,-68.67,18.34,30.17,Left Fall while Sitting
18:33.9,596,511,766.5,887,525,0.95,1054.22,2.57,100.9,458,146,148.81,148,22144,148359,1019,0.01,0.84,0.45,-2.34,7.29,-3.49,61.42,0.83,16.39,31.75,-68.87,18.19,30.51,Left Fall while Sitting
18:34.0,990,519,778.5,990,781,0.31,3227.27,3.82,100.9,458,152,148.81,148,22144,171463,1171,0.02,0.83,0.47,-3.45,4.75,-0.34,59.8,0.64,16.17,31.96,-68.84,17.92,30.7,Left Fall while Sitting
18:34.1,990,527,790.5,990,869,0.18,5642.86,4.25,100.9,458,148,148.81,148,22144,193367,1319,0.03,0.83,0.47,-0.39,2.8,-1.62,59.95,-0.3,16.18,32.02,-68.9,17.93,30.72,Left Fall while Sitting
18:34.1,990,535,802.5,990,916,0.12,8560.75,4.48,20724.15,610,143,146.22,146,21380,0,0,0.04,0.84,0.46,-0.29,4.49,-1.24,60.98,-0.69,16.2,32.2,-68.93,17.99,30.89,Left Fall while Sitting
18:34.2,990,542,813,990,428,1.39,719.33,2.09,20724.15,610,141,146.22,146,21380,19881,141,0.02,0.82,0.48,-0.1,6.62,-4,58.98,0.17,16.24,32.56,-69.18,17.95,31.26,Left Fall while Sitting
18:34.3,990,550,825,990,428,1.39,719.33,2.09,20724.15,610,141,146.22,146,21380,39762,282,0.01,0.82,0.48,0.38,2.64,-3.95,58.8,0.74,16.31,32.6,-69.42,18.01,31.33,Left Fall while Sitting
18:34.4,526,549,823.5,990,427,1.4,716.44,2.09,20724.15,610,140,146.22,146,21380,59362,422,0.03,0.82,0.42,0.06,1.96,-5.56,62.16,-0.11,16.36,32.6,-69.77,18.19,31.29,Left Fall while Sitting
18:34.4,991,556,834,991,427,1.4,716.44,2.09,20724.15,610,140,146.22,146,21380,78962,562,0,0.83,0.46,-1.81,5.23,-4.02,60.52,1.55,16.26,32.85,-70.02,18.03,31.59,Left Fall while Sitting
18:34.5,615,557,835.5,991,428,1.39,719.33,2.09,20724.15,610,139,146.22,146,21380,98283,701,-0.01,0.83,0.45,-0.62,4.47,-4.85,61.11,1.95,16.26,33.03,-70.33,18.05,31.79,Left Fall while Sitting
18:34.6,510,557,835.5,991,427,1.4,716.44,2.09,20724.15,610,141,146.22,146,21380,118164,842,0,0.84,0.46,-2.66,2.73,-2.53,60.72,1.46,16.1,33.09,-70.46,17.88,31.82,Left Fall while Sitting
18:34.7,510,556,834,991,427,1.4,716.44,2.09,20724.15,610,142,146.22,146,21380,138328,984,0,0.83,0.47,-0.63,4.27,-4.88,60.13,1.7,16.09,33.26,-70.77,17.85,32,Left Fall while Sitting
18:34.7,992,562,843,992,428,1.39,719.33,2.09,20724.15,610,138,146.22,146,21380,157372,1122,-0.01,0.83,0.45,-1.58,2.68,-6.52,61.04,2.2,16.01,33.31,-71.2,17.81,32.07,Left Fall while Sitting
18:34.8,988,569,853.5,992,429,1.38,722.22,2.1,20724.15,610,139,146.22,146,21380,176693,1261,-0.03,0.82,0.45,-1.01,3.83,-7.47,60.69,3.34,15.98,33.45,-71.71,17.77,32.25,Left Fall while Sitting
18:34.9,508,568,852,992,427,1.4,716.44,2.09,20723.97,427,143,140.41,140,19713,0,0,-0.03,0.82,0.48,-0.85,5.05,-7.76,58.98,3.14,15.96,33.68,-72.23,17.68,32.46,Left Fall while Sitting
18:35.0,991,574,861,992,427,1.4,716.44,2.09,20723.97,427,150,140.41,140,19713,22500,150,-0.04,0.82,0.46,-1.02,4.08,-8.76,60.18,3.82,15.92,33.84,-72.84,17.69,32.64,Left Fall while Sitting
18:35.1,990,580,870,992,428,1.39,719.33,2.09,20723.97,427,156,140.41,140,19713,46836,306,-0.07,0.83,0.43,-2.85,3.02,-5.27,61.83,5.71,15.75,33.91,-73.17,17.59,32.79,Left Fall while Sitting
18:35.2,990,585,877.5,992,428,1.39,719.33,2.09,20723.97,427,156,140.41,140,19713,71172,462,-0.08,0.82,0.45,-1.76,3.68,-3.58,60.31,6.23,15.66,34.04,-73.38,17.45,32.93,Left Fall while Sitting
18:35.3,991,591,886.5,992,429,1.38,722.22,2.1,20723.97,427,160,140.41,140,19713,96772,622,-0.08,0.82,0.45,-2.68,-0.6,-0.95,60.31,6.73,15.5,33.84,-73.39,17.29,32.76,Left Fall while Sitting
18:35.3,990,596,894,992,428,1.39,719.33,2.09,20723.97,427,165,140.41,140,19713,123997,787,-0.07,0.83,0.45,-1.19,1.14,0.69,60.76,5.75,15.45,33.78,-73.28,17.26,32.66,Left Fall while Sitting
18:35.4,991,601,901.5,992,429,1.38,722.22,2.1,20723.97,427,163,140.41,140,19713,150566,950,-0.07,0.83,0.44,-0.22,1.49,1.17,61.17,5.98,15.48,33.74,-73.14,17.3,32.63,Left Fall while Sitting
18:35.4,990,607,910.5,992,428,1.39,719.33,2.09,20723.97,427,164,140.41,140,19713,177462,1114,-0.06,0.83,0.43,-1.32,-0.05,0.84,61.99,4.97,15.42,33.58,-73.01,17.28,32.44,Left Fall while Sitting
18:35.5,990,612,918,992,429,1.38,722.22,2.1,20723.97,427,163,140.41,140,19713,204031,1277,-0.04,0.83,0.47,0.98,2.01,-2.31,59.56,3.97,15.54,33.58,-73.13,17.3,32.4,Left Fall while Sitting
18:35.6,991,616,924,992,428,1.39,719.33,2.09,20723.97,427,165,140.41,140,19713,231256,1442,-0.06,0.83,0.44,-2.52,1.14,-1.15,61.11,5.43,15.39,33.52,-73.16,17.22,32.39,Left Fall while Sitting
18:35.7,991,621,931.5,992,428,1.39,719.33,2.09,20723.99,428,163,160.57,160,25781,0,0,-0.05,0.82,0.44,-0.95,-0.08,1.71,61.2,4.56,15.36,33.36,-72.97,17.19,32.21,Left Fall while Sitting
18:35.7,991,626,939,992,428,1.39,719.33,2.09,20723.99,428,164,160.57,160,25781,26896,164,-0.06,0.83,0.47,-1.77,-1.37,3.19,59.67,5.26,15.27,33.11,-72.67,17.05,32,Left Fall while Sitting
18:35.8,991,630,945,992,428,1.39,719.33,2.09,20723.99,428,165,160.57,160,25781,54121,329,-0.03,0.84,0.43,-3.77,-1.53,1.8,62.37,3.52,15.03,32.84,-72.48,16.92,31.67,Left Fall while Sitting
18:35.9,992,635,952.5,992,428,1.39,719.33,2.09,20723.99,428,168,160.57,160,25781,82345,497,-0.07,0.82,0.46,-4.06,-0.76,0.05,59.81,5.66,14.76,32.63,-72.41,16.56,31.55,Left Fall while Sitting
18:36.0,517,633,949.5,992,428,1.39,719.33,2.09,20723.99,428,169,160.57,160,25781,110906,666,-0.06,0.83,0.45,-2.06,-0.62,0.19,60.75,4.99,14.64,32.43,-72.34,16.49,31.34,Left Fall while Sitting
18:36.0,992,638,957,992,428,1.39,719.33,2.09,20723.99,428,171,160.57,160,25781,140147,837,-0.06,0.83,0.42,-7.03,-3.21,4.89,62.24,5.05,14.16,32.04,-71.91,16.08,30.96,Left Fall while Sitting
18:36.1,991,642,963,992,428,1.39,719.33,2.09,20723.99,428,169,160.57,160,25781,168708,1006,-0.04,0.82,0.45,-3.36,-3.79,10.34,60.3,3.87,13.94,31.6,-71.05,15.8,30.49,Left Fall while Sitting
18:36.2,992,646,969,992,427,1.4,716.44,2.09,20723.99,428,172,160.57,160,25781,198292,1178,-0.03,0.82,0.48,-6.05,-6.11,12.96,58.74,3.29,13.53,30.98,-70.01,15.34,29.87,Left Fall while Sitting
18:36.3,992,650,975,992,429,1.38,722.22,2.1,20723.99,428,172,160.57,160,25781,227876,1350,0.03,0.82,0.48,-5.21,-5.15,9.55,59.03,-0.47,13.17,30.44,-69.22,15.01,29.2,Left Fall while Sitting
18:36.3,992,654,981,992,428,1.39,719.33,2.09,20723.99,428,200,160.57,160,25781,202340,1550,0.03,0.83,0.47,-2.46,-2.66,3.56,59.55,-0.46,13.03,30.09,-68.9,14.89,28.87,Left Fall while Sitting
18:36.4,559,653,979.5,992,427,1.4,716.44,2.09,20723.98,427,184,130.64,173,17065,0,0,0.02,0.82,0.48,-4,-5.94,4.42,59.19,0.17,12.77,29.49,-68.51,14.63,28.32,Left Fall while Sitting
18:36.5,522,651,976.5,992,428,1.39,719.33,2.09,20723.98,427,201,130.64,173,17065,4294942161,201,0.06,0.81,0.47,-5.52,-8.9,6.13,59.02,-1.95,12.39,28.65,-67.97,14.26,27.43,Left Fall while Sitting
18:36.6,686,651,976.5,992,428,1.39,719.33,2.09,20723.98,427,185,130.64,173,17065,4294910850,386,0.07,0.81,0.45,-4.32,-9.73,8.3,60.1,-2.94,12.1,27.75,-67.27,14.02,26.52,Left Fall while Sitting
18:36.6,512,650,975,992,428,1.39,719.33,2.09,20723.98,427,184,130.64,173,17065,4294879170,570,0.1,0.8,0.46,-1.66,-13.08,11.18,58.84,-4.64,12.02,26.61,-66.36,13.89,25.36,Left Fall while Sitting
18:36.7,991,654,981,992,428,1.39,719.33,2.09,20723.98,427,224,130.64,173,17065,4294863810,794,0.13,0.81,0.48,-2.27,-8.58,6.97,58.04,-6.06,11.89,25.8,-65.77,13.73,24.53,Left Fall while Sitting
18:36.8,464,652,978,992,428,1.39,719.33,2.09,20723.98,427,224,130.64,173,17065,4294848450,1018,0.12,0.82,0.48,-2.01,-8.64,5.76,58.45,-5.49,11.78,24.98,-65.27,13.64,23.76,Left Fall while Sitting
18:36.9,509,650,975,992,427,1.4,716.44,2.09,20723.98,427,215,130.64,173,17065,4294829139,1233,0.15,0.8,0.48,-4.5,-10.45,5.68,57.44,-7.3,11.47,24.02,-64.77,13.31,22.77,Left Fall while Sitting
18:36.9,992,654,981,992,427,1.4,716.44,2.09,20723.98,427,260,130.64,173,17065,4294831203,1493,0.15,0.81,0.44,-5.86,-10.69,6.54,59.47,-7.39,11.06,23.05,-64.21,13,21.83,Left Fall while Sitting
18:37.0,991,657,985.5,992,428,1.39,719.33,2.09,20723.98,427,201,130.64,173,17065,4294806068,1694,0.12,0.8,0.48,-6.98,-7.4,14.16,57.79,-5.6,10.57,22.32,-63.06,12.46,21.2,Left Fall while Sitting
18:37.1,992,661,991.5,992,428,1.39,719.33,2.09,20723.98,427,208,130.64,173,17065,4294783796,1902,0.16,0.77,0.48,-9.9,-10.7,22.77,56.41,-8.53,9.86,21.36,-61.27,11.72,20.16,Left Fall while Sitting
18:37.2,511,659,988.5,992,428,1.39,719.33,2.09,20723.98,427,207,20723.81,210,429476096,0,0,0.26,0.78,0.51,-9.22,-10.9,22.32,52.9,-14.06,9.2,20.38,-59.51,10.95,19,Left Fall while Sitting
18:37.2,501,657,985.5,992,427,1.4,716.44,2.09,20723.98,427,285,20723.81,210,429476096,15689,285,0.3,0.77,0.48,-8.88,-12.04,18.68,53.04,-16.56,8.56,19.3,-58.01,10.34,17.86,Left Fall while Sitting
18:37.3,991,664,996,991,427,1.4,716.44,2.09,20723.98,427,210,20723.81,210,429476096,4294961549,495,0.3,0.75,0.44,-13.81,-12.73,21.65,54.02,-17.31,7.51,18.13,-56.24,9.37,16.71,Left Fall while Sitting
18:37.4,992,670,1005,992,428,1.39,719.33,2.09,20723.98,427,209,20723.81,210,429476096,4294939694,704,0.35,0.7,0.53,-18.42,-14.92,25.2,47.36,-20.07,6.12,16.81,-54.21,7.77,15.34,Left Fall while Sitting
18:37.5,992,677,1015.5,992,428,1.39,719.33,2.09,20723.98,427,215,20723.81,210,429476096,4294920383,919,0.39,0.68,0.54,-10.69,-14.3,19.98,44.87,-22.61,5.34,15.56,-52.61,6.92,14.03,Left Fall while Sitting
18:37.6,992,683,1024.5,992,428,1.39,719.33,2.09,20723.98,427,218,20723.81,210,429476096,4294902371,1137,0.4,0.69,0.5,-15.15,-12.42,22.79,46.51,-23.85,4.2,14.43,-50.77,5.9,12.9,Left Fall while Sitting
18:37.6,992,689,1033.5,992,428,1.39,719.33,2.09,20723.98,427,218,20723.81,210,429476096,4294884359,1355,0.45,0.65,0.55,-9.33,-11.12,27.56,42.09,-25.97,3.51,13.4,-48.53,5.05,11.82,Left Fall while Sitting
18:37.7,991,696,1044,992,428,1.39,719.33,2.09,20723.98,427,218,20723.81,210,429476096,4294866347,1573,0.48,0.64,0.53,-10.53,-14.31,22.11,41.11,-28.39,2.73,12.12,-46.75,4.27,10.5,Left Fall while Sitting
18:37.8,992,702,1053,992,428,1.39,719.33,2.09,20723.98,427,218,20723.81,210,429476096,4294848335,1791,0.51,0.63,0.48,-8.21,-14.71,23.56,41.52,-30.95,2.14,10.82,-44.85,3.71,9.15,Left Fall while Sitting
18:37.9,993,706,1059,993,428,1.39,719.33,2.09,20723.98,427,220,20723.81,210,429476096,4294831199,2011,0.53,0.6,0.5,-3.27,-12.46,24.56,38.71,-32.53,1.92,9.69,-42.87,3.4,8,Left Fall while Sitting
18:38.0,992,712,1068,993,428,1.39,719.33,2.09,20723.98,427,220,20723.93,223,429481408,0,0,0.57,0.58,0.51,-6.34,-15.27,28.63,36.43,-35.01,1.49,8.4,-40.66,2.89,6.66,Left Fall while Sitting
18:38.0,994,716,1074,994,428,1.39,719.33,2.09,20723.98,427,220,20723.93,223,429481408,4294950160,220,0.62,0.55,0.48,-4.08,-16.18,28.64,34.6,-38.8,1.22,6.98,-38.37,2.55,5.15,Left Fall while Sitting
18:38.1,994,719,1078.5,994,429,1.38,722.22,2.1,20723.98,427,223,20723.93,223,429481408,4294934353,443,0.66,0.52,0.47,-7.35,-20.93,30.42,31.9,-41.67,0.69,5.21,-35.96,1.94,3.34,Left Fall while Sitting
18:38.2,993,722,1083,994,428,1.39,719.33,2.09,20723.98,427,236,20723.93,223,429481408,4294924513,679,0.69,0.48,0.48,-6.08,-20.98,29.54,29.11,-43.72,0.26,3.42,-33.6,1.42,1.53,Left Fall while Sitting
18:38.3,992,725,1087.5,994,428,1.39,719.33,2.09,20723.98,427,232,20723.93,223,429481408,4294912801,911,0.76,0.44,0.44,-9.15,-14.32,25.61,25.94,-49.03,-0.41,2.15,-31.54,0.65,0.1,Left Fall while Sitting
18:38.3,993,728,1092,994,428,1.39,719.33,2.09,20723.98,427,223,20723.93,223,429481408,4294896994,1134,0.77,0.42,0.44,-7.85,-11.94,22.44,24.58,-50.25,-0.98,1.06,-29.73,0.05,-0.99,Left Fall while Sitting
18:38.4,993,729,1093.5,994,428,1.39,719.33,2.09,20723.98,427,245,20723.93,223,429481408,4294891483,1379,0.82,0.4,0.45,-1.69,-12.79,20.37,22.28,-52.18,-1.06,-0.08,-28.1,-0.13,-2.16,Left Fall while Sitting
18:38.5,994,730,1095,994,428,1.39,719.33,2.09,20723.98,427,244,20723.93,223,429481408,4294885483,1623,0.83,0.39,0.41,1.15,-12.62,13.45,22.11,-54.25,-0.93,-1.23,-26.97,-0.01,-3.35,Left Fall while Sitting
18:38.6,993,735,1102.5,994,429,1.38,722.22,2.1,20723.98,427,212,20723.93,223,429481408,4294864891,1835,0.8,0.36,0.37,1.07,-11.99,13.69,21.99,-55.4,-0.8,-2.32,-25.84,0.11,-4.45,Left Fall while Sitting
18:38.6,993,740,1110,994,428,1.39,719.33,2.09,20723.98,427,196,20723.93,223,429481408,4294837771,2031,0.81,0.34,0.36,-6.24,-15.16,16.27,20.3,-57.12,-1.24,-3.66,-24.51,-0.38,-5.8,Left Fall while Sitting
18:38.7,992,747,1120.5,994,428,1.39,719.33,2.09,20723.99,428,189,20723.92,222,429480800,0,0,0.83,0.33,0.34,-10.34,-7.96,16.36,19.5,-58.7,-2,-4.43,-23.19,-1.14,-6.6,Left Fall while Sitting
18:38.8,993,751,1126.5,994,428,1.39,719.33,2.09,20723.99,428,185,20723.92,222,429480800,4294935985,185,0.87,0.3,0.37,-9.99,-7.86,16.11,16.88,-59.76,-2.72,-5.19,-21.89,-1.94,-7.37,Left Fall while Sitting
18:38.9,993,756,1134,994,428,1.39,719.33,2.09,20723.99,428,181,20723.92,222,429480800,1450,366,0.9,0.28,0.32,-13.45,-10.08,15.11,15.9,-62.97,-3.72,-6.12,-20.67,-2.93,-8.39,Left Fall while Sitting
18:39.0,994,760,1140,994,428,1.39,719.33,2.09,20723.99,428,179,20723.92,222,429480800,33491,545,0.91,0.25,0.36,-9.4,-10.05,19.71,13.75,-62.79,-4.41,-7.06,-19.07,-3.68,-9.29,Left Fall while Sitting
18:39.0,994,763,1144.5,994,428,1.39,719.33,2.09,20723.99,428,179,20723.92,222,429480800,65532,724,0.91,0.21,0.38,-7.25,-9.68,16.37,11.3,-62.97,-4.93,-7.97,-17.73,-4.28,-10.17,Left Fall while Sitting
18:39.1,994,767,1150.5,994,428,1.39,719.33,2.09,20723.99,428,177,20723.92,222,429480800,96861,901,0.94,0.2,0.35,-4.39,-2.06,7.69,10.71,-65.36,-5.22,-8.28,-17.08,-4.59,-10.57,Left Fall while Sitting
18:39.2,994,771,1156.5,994,428,1.39,719.33,2.09,20723.99,428,175,20723.92,222,429480800,127486,1076,0.94,0.19,0.36,-1.02,3.01,1.56,10.09,-65.05,-5.26,-8.21,-16.89,-4.65,-10.48,Left Fall while Sitting
18:39.3,994,775,1162.5,994,428,1.39,719.33,2.09,20723.99,428,174,20723.92,222,429480800,157762,1250,0.93,0.17,0.32,-0.76,2.16,0.29,9.4,-66.97,-5.27,-8.19,-16.81,-4.69,-10.54,Left Fall while Sitting
18:39.3,995,778,1167,995,428,1.39,719.33,2.09,20723.99,428,173,20723.92,222,429480800,187691,1423,0.91,0.19,0.35,-3.99,-6.21,2.92,10.2,-65.02,-5.54,-8.83,-16.52,-4.91,-11.08,Left Fall while Sitting
18:39.4,993,781,1171.5,995,428,1.39,719.33,2.09,20723.99,428,172,20723.92,222,429480800,217275,1595,0.91,0.2,0.29,-8.21,-11.34,4.4,11.02,-67.55,-6.13,-9.86,-16.12,-5.45,-12.17,Left Fall while Sitting
18:39.5,548,780,1170,995,428,1.39,719.33,2.09,20723.98,428,176,157.56,177,24824,0,0,0.92,0.18,0.29,-5.44,-4.37,7.57,9.96,-68.04,-6.5,-10.34,-15.49,-5.84,-12.65,Left Fall while Sitting
18:39.6,528,780,1170,995,427,1.4,716.44,2.09,20723.98,428,175,157.56,177,24824,30625,175,0.94,0.16,0.32,-3.6,-1.37,7.35,8.79,-67.33,-6.73,-10.6,-14.87,-6.11,-12.87,Left Fall while Sitting
18:39.7,521,781,1171.5,995,427,1.4,716.44,2.09,20723.98,428,174,157.56,177,24824,60901,349,0.95,0.15,0.31,-4.33,-3.29,6.97,8.13,-68.52,-7.02,-11,-14.28,-6.41,-13.3,Left Fall while Sitting
18:39.7,516,781,1171.5,995,428,1.39,719.33,2.09,20723.98,428,173,157.56,177,24824,90830,522,0.94,0.15,0.3,0.16,1.37,2.76,7.8,-69.1,-6.97,-11.05,-14.01,-6.37,-13.37,Left Fall while Sitting
18:39.8,987,788,1182,995,428,1.39,719.33,2.09,20723.98,428,173,157.56,177,24824,120759,695,0.94,0.13,0.3,1.69,1.65,1.06,6.95,-69.49,-6.79,-11.08,-13.87,-6.24,-13.41,Left Fall while Sitting
18:39.9,512,790,1185,995,427,1.4,716.44,2.09,20723.98,428,172,157.56,177,24824,150343,867,0.95,0.14,0.27,2.76,2.33,-0.37,7.32,-70.66,-6.54,-11.05,-13.83,-5.98,-13.44,Left Fall while Sitting
18:40.0,992,797,1195.5,995,428,1.39,719.33,2.09,20723.98,428,184,157.56,177,24824,118663,1051,0.95,0.12,0.31,0.2,-0.83,0.11,6.28,-68.95,-6.48,-11.26,-13.77,-5.97,-13.57,Left Fall while Sitting
18:43.5,51,51,76.5,51,427,1.4,716.44,2.09,0,0,171,0,0,0,59170,344,0.97,-0.37,0.23,-2.34,1.82,35.26,-20.97,-64.11,-1.73,-0.48,7.67,-2.5,-3.02,Right Fall while Sitting
18:43.6,135,93,139.5,135,427,1.4,716.44,2.09,0,0,168,0,0,0,87394,512,0.91,-0.4,0.26,-0.85,1.2,35.01,-23.71,-60.58,-1.75,-0.54,10.29,-2.63,-2.94,Right Fall while Sitting
18:43.7,46,77,115.5,135,427,1.4,716.44,2.09,0,0,171,0,0,0,116635,683,0.85,-0.41,0.26,-3.76,5.48,36.78,-25.3,-58.85,-1.98,-0.28,13.03,-2.92,-2.63,Right Fall while Sitting
18:43.7,0,58,87,135,427,1.4,716.44,2.09,0,0,169,0,0,0,145196,852,0.84,-0.45,0.26,-12.89,-8.88,36.35,-27.73,-56.72,-2.88,-1.08,15.74,-3.88,-3.3,Right Fall while Sitting
18:43.8,0,46,69,135,427,1.4,716.44,2.09,0,0,174,0,0,0,175472,1026,0.84,-0.51,0.22,-5.89,-2.72,33.84,-30.89,-55.11,-3.28,-1.43,18.3,-4.38,-3.57,Right Fall while Sitting
18:43.9,84,52,78,135,427,1.4,716.44,2.09,0,0,174,0,0,0,205748,1200,0.91,-0.57,0.22,-7.11,1.4,22.63,-31.88,-54.58,-3.76,-1.47,20.04,-4.89,-3.59,Right Fall while Sitting
18:44.0,0,45,67.5,135,428,1.39,719.33,2.09,0,0,173,0,0,0,235677,1373,0.9,-0.59,0.2,-3.45,5.56,10.24,-33.41,-53.49,-3.97,-1.21,20.84,-5.15,-3.3,Right Fall while Sitting
18:44.0,42,44,66,135,427,1.4,716.44,2.09,0,0,204,0,0,0,211757,1577,0.77,-0.56,0.24,-5.85,-4.39,15.85,-35.29,-50.1,-4.36,-1.68,22.06,-5.6,-3.61,Right Fall while Sitting
18:44.1,0,39,58.5,135,427,1.4,716.44,2.09,20723.96,427,224,140.14,180,19638,0,0,0.79,-0.58,0.23,-6.4,-9.58,20.75,-35.89,-50,-4.8,-2.55,23.67,-6.04,-4.44,Right Fall while Sitting
18:44.2,0,35,52.5,135,427,1.4,716.44,2.09,20723.96,427,275,140.14,180,19638,10089,275,0.77,-0.62,0.21,-1.98,-3.77,19.34,-38.16,-48.4,-4.91,-2.98,25.2,-6.24,-4.8,Right Fall while Sitting
18:44.3,0,32,48,135,427,1.4,716.44,2.09,20723.96,427,274,140.14,180,19638,19629,549,0.77,-0.64,0.19,-3.74,-4.31,14.78,-39.54,-47.53,-5.14,-3.46,26.37,-6.52,-5.22,Right Fall while Sitting
18:44.3,0,29,43.5,135,427,1.4,716.44,2.09,20723.96,427,278,140.14,180,19638,31377,827,0.71,-0.68,0.17,-3.69,-6.98,18.07,-43.43,-43.98,-5.38,-4.13,27.78,-6.9,-5.72,Right Fall while Sitting
18:44.4,0,27,40.5,135,427,1.4,716.44,2.09,20723.96,427,225,140.14,180,19638,16466,1052,0.76,-0.68,0.13,-9.63,-1.4,16.42,-41.83,-46.19,-6.07,-4.39,29.09,-7.5,-6.06,Right Fall while Sitting
18:44.5,0,25,37.5,135,428,1.39,719.33,2.09,20723.96,427,228,140.14,180,19638,2914,1280,0.73,-0.71,0.2,-10.45,0.85,11.51,-44,-42.78,-6.82,-4.48,30.03,-8.31,-6.01,Right Fall while Sitting
18:44.6,0,23,34.5,135,427,1.4,716.44,2.09,20723.96,427,229,140.14,180,19638,4294957115,1509,0.7,-0.7,0.15,-9.31,-2.44,12.99,-44.8,-42.94,-7.48,-4.81,31.07,-8.98,-6.34,Right Fall while Sitting
18:44.6,286,40,60,286,427,1.4,716.44,2.09,20723.96,427,233,140.14,180,19638,4294945868,1742,0.71,-0.7,0.2,-5.6,-2.36,12.98,-44.4,-42.45,-7.87,-5.15,32.14,-9.33,-6.64,Right Fall while Sitting
18:44.7,621,74,111,621,427,1.4,716.44,2.09,20723.96,427,236,140.14,180,19638,4294936028,1978,0.75,-0.72,0.14,-6.93,-2.76,9.66,-44.16,-43.79,-8.36,-5.52,32.94,-9.79,-7.05,Right Fall while Sitting
18:44.8,698,109,163.5,698,428,1.39,719.33,2.09,20723.96,427,236,140.14,180,19638,4294926188,2214,0.67,-0.76,0.12,-7,-7.37,12.52,-48.47,-39.72,-8.86,-6.24,33.96,-10.44,-7.58,Right Fall while Sitting
18:44.9,660,138,207,698,428,1.39,719.33,2.09,20723.97,427,237,20724.18,245,429491680,0,0,0.64,-0.77,0.09,-8.62,-3.96,8.76,-50.52,-38.06,-9.48,-6.7,34.7,-11.12,-7.95,Right Fall while Sitting
18:45.0,457,154,231,698,428,1.39,719.33,2.09,20723.97,427,235,20724.18,245,429491680,4294956985,235,0.65,-0.78,0.08,-10,-6.02,10.92,-50.73,-37.93,-10.21,-7.31,35.6,-11.83,-8.54,Right Fall while Sitting
18:45.0,986,193,289.5,986,428,1.39,719.33,2.09,20723.97,427,216,20724.18,245,429491680,4294938105,451,0.65,-0.77,0.08,-11.31,-1.26,8.05,-50.05,-38.57,-11.04,-7.57,36.29,-12.6,-8.81,Right Fall while Sitting
18:45.1,992,229,343.5,992,428,1.39,719.33,2.09,20723.97,427,258,20724.18,245,429491680,4294939133,709,0.67,-0.8,0.11,-8.25,-2.89,5.9,-50.05,-38.28,-11.65,-7.95,36.82,-13.19,-9.17,Right Fall while Sitting
18:45.2,427,238,357,992,428,1.39,719.33,2.09,20723.97,427,266,20724.18,245,429491680,4294944353,975,0.63,-0.8,0.1,-2.92,-2.12,1.56,-51.69,-36.69,-11.83,-8.28,37,-13.43,-9.41,Right Fall while Sitting
18:45.3,521,250,375,992,427,1.4,716.44,2.09,20723.97,427,235,20724.18,245,429491680,4294934042,1210,0.61,-0.79,0.05,-5.59,-5.28,4.08,-52.64,-36.19,-12.23,-8.85,37.39,-13.85,-9.95,Right Fall while Sitting
18:45.3,909,276,414,992,428,1.39,719.33,2.09,20723.97,427,249,20724.18,245,429491680,4294930507,1459,0.65,-0.8,0.06,-5.83,-3.94,4.46,-51.2,-37.62,-12.64,-9.31,37.8,-14.19,-10.45,Right Fall while Sitting
18:45.4,922,301,451.5,992,428,1.39,719.33,2.09,20723.97,427,257,20724.18,245,429491680,4294931020,1716,0.64,-0.81,0.04,-3.06,-2.14,3.07,-52.25,-36.66,-12.84,-9.64,38.1,-14.41,-10.72,Right Fall while Sitting
18:45.5,718,316,474,992,428,1.39,719.33,2.09,20723.97,427,274,20724.18,245,429491680,4294940560,1990,0.62,-0.82,0.04,-4.12,-0.44,1.73,-53.33,-35.6,-13.12,-9.83,38.3,-14.73,-10.86,Right Fall while Sitting
18:45.6,723,331,496.5,992,428,1.39,719.33,2.09,20723.97,427,271,20724.18,245,429491680,4294948465,2261,0.62,-0.82,0.03,-2.05,-0.7,-0.14,-53.78,-35.18,-13.24,-10.04,38.35,-14.86,-11.05,Right Fall while Sitting
18:45.7,429,334,501,992,427,1.4,716.44,2.09,20723.98,427,275,20724.28,253,429495840,0,0,0.61,-0.82,0.04,-3.51,2.13,0.15,-53.75,-35.15,-13.46,-10.03,38.42,-15.08,-11.04,Right Fall while Sitting
18:45.7,435,338,507,992,428,1.39,719.33,2.09,20723.98,427,236,20724.28,253,429495840,4294957456,236,0.61,-0.81,0.04,-1.44,-1.21,-0.73,-53.39,-35.52,-13.53,-10.28,38.43,-15.13,-11.29,Right Fall while Sitting
18:45.8,664,348,522,992,428,1.39,719.33,2.09,20723.98,427,231,20724.28,253,429495840,4294945281,467,0.62,-0.82,0.03,-1.69,1.79,-0.11,-53.56,-35.4,-13.62,-10.3,38.48,-15.22,-11.3,Right Fall while Sitting
18:45.9,523,354,531,992,428,1.39,719.33,2.09,20723.98,427,272,20724.28,253,429495840,4294953729,739,0.62,-0.82,0.05,-2.17,-0.45,-0.93,-53.31,-35.57,-13.75,-10.49,38.47,-15.33,-11.49,Right Fall while Sitting
18:46.0,68,345,517.5,992,428,1.39,719.33,2.09,20723.98,427,275,20724.28,253,429495840,4294963818,1014,0.61,-0.82,0.04,-2.47,1.44,-0.73,-53.51,-35.41,-13.9,-10.53,38.47,-15.48,-11.53,Right Fall while Sitting
18:46.0,0,335,502.5,992,428,1.39,719.33,2.09,20723.98,427,279,20724.28,253,429495840,8827,1293,0.62,-0.81,0.02,-2.22,0.21,-0.29,-53.26,-35.71,-14.03,-10.67,38.51,-15.6,-11.67,Right Fall while Sitting
18:46.1,20,326,489,992,427,1.4,716.44,2.09,20723.98,427,282,20724.28,253,429495840,22815,1575,0.62,-0.82,0.02,-2.41,-0.02,-0.44,-53.52,-35.45,-14.17,-10.83,38.54,-15.75,-11.81,Right Fall while Sitting
18:46.2,258,324,486,992,427,1.4,716.44,2.09,20723.98,427,281,20724.28,253,429495840,36240,1856,0.62,-0.83,0.03,-2.71,1.31,-0.39,-53.67,-35.28,-14.34,-10.88,38.57,-15.91,-11.86,Right Fall while Sitting
18:46.3,462,328,492,992,428,1.39,719.33,2.09,20723.98,427,282,20724.28,253,429495840,50228,2138,0.62,-0.83,0.04,-1.9,1.4,-1.47,-53.53,-35.37,-14.44,-10.93,38.52,-16.01,-11.91,Right Fall while Sitting
18:46.4,598,335,502.5,992,427,1.4,716.44,2.09,20723.98,427,283,20724.28,253,429495840,64781,2421,0.61,-0.82,0.05,-3.22,-0.46,0.57,-53.53,-35.35,-14.65,-11.12,38.62,-16.2,-12.09,Right Fall while Sitting
18:46.4,593,341,511.5,992,428,1.39,719.33,2.09,20723.97,427,282,88.75,270,7875,0,0,0.62,-0.83,0.02,-3.1,-2.63,0.34,-53.91,-35.06,-14.84,-11.47,38.71,-16.4,-12.41,Right Fall while Sitting
18:46.5,228,338,507,992,428,1.39,719.33,2.09,20723.97,427,286,88.75,270,7875,16260,286,0.6,-0.82,0.04,-2.98,1.98,-0.16,-54.47,-34.45,-15.03,-11.47,38.76,-16.6,-12.39,Right Fall while Sitting
18:46.6,0,330,495,992,428,1.39,719.33,2.09,20723.97,427,286,88.75,270,7875,32520,572,0.6,-0.83,0.04,-2.1,-0.51,-0.78,-54.53,-34.4,-15.14,-11.67,38.76,-16.72,-12.58,Right Fall while Sitting
18:46.7,205,327,490.5,992,427,1.4,716.44,2.09,20723.97,427,285,88.75,270,7875,48209,857,0.61,-0.82,0.03,-3.01,0.16,0.24,-53.81,-35.15,-15.33,-11.81,38.84,-16.87,-12.74,Right Fall while Sitting
18:46.7,627,334,501,992,427,1.4,716.44,2.09,20723.97,427,261,88.75,270,7875,50794,1118,0.61,-0.83,0.03,-2.94,-0.87,0.24,-54.37,-34.57,-15.51,-12.02,38.91,-17.07,-12.93,Right Fall while Sitting
18:46.8,755,344,516,992,428,1.39,719.33,2.09,20723.97,427,257,88.75,270,7875,51307,1375,0.61,-0.82,0.01,-2.9,-0.37,-0.16,-54.11,-34.88,-15.69,-12.2,38.96,-17.23,-13.11,Right Fall while Sitting
18:46.9,548,348,522,992,428,1.39,719.33,2.09,20723.97,427,259,88.75,270,7875,52852,1634,0.61,-0.82,0.02,-2.29,1.98,-0.95,-54.1,-34.88,-15.82,-12.21,38.95,-17.35,-13.11,Right Fall while Sitting
18:47.0,218,345,517.5,992,428,1.39,719.33,2.09,20723.97,427,269,88.75,270,7875,59677,1903,0.6,-0.83,0.01,-3.12,1.85,-0.65,-54.44,-34.55,-16.02,-12.22,38.96,-17.56,-13.11,Right Fall while Sitting
18:47.0,104,340,510,992,427,1.4,716.44,2.09,20723.97,427,280,88.75,270,7875,72541,2183,0.61,-0.83,0.02,-2.08,0.42,-1.37,-54.22,-34.77,-16.14,-12.34,38.92,-17.66,-13.24,Right Fall while Sitting
18:47.1,405,342,513,992,428,1.39,719.33,2.09,20723.97,427,283,88.75,270,7875,87094,2466,0.6,-0.83,0.03,-0.9,0.69,-2.74,-54.66,-34.3,-16.16,-12.44,38.77,-17.7,-13.31,Right Fall while Sitting
18:47.2,571,346,519,992,428,1.39,719.33,2.09,20723.97,427,281,100.25,274,10050,0,0,0.62,-0.83,0.02,-0.53,3.05,-3.88,-53.67,-35.3,-16.16,-12.36,38.53,-17.66,-13.28,Right Fall while Sitting
18:47.3,656,352,528,992,427,1.4,716.44,2.09,20723.97,427,283,100.25,274,10050,14553,283,0.63,-0.82,0.03,-2.02,3.23,-2.93,-53.28,-35.67,-16.27,-12.26,38.37,-17.75,-13.2,Right Fall while Sitting
18:47.4,351,352,528,992,428,1.39,719.33,2.09,20723.97,427,285,100.25,274,10050,30242,568,0.61,-0.81,0.03,-1.51,1.6,-2.55,-53.54,-35.42,-16.35,-12.29,38.23,-17.83,-13.22,Right Fall while Sitting
18:47.5,50,347,520.5,992,427,1.4,716.44,2.09,20723.97,427,263,100.25,274,10050,33875,831,0.59,-0.83,0.05,-1.5,1.82,-3.36,-54.94,-33.92,-16.42,-12.31,38.04,-17.96,-13.17,Right Fall while Sitting
18:47.5,203,344,516,992,427,1.4,716.44,2.09,20723.97,427,285,100.25,274,10050,49564,1116,0.64,-0.81,0.02,-0.89,2.52,-3.83,-52.61,-36.37,-16.44,-12.27,37.8,-17.89,-13.23,Right Fall while Sitting
18:47.6,534,347,520.5,992,428,1.39,719.33,2.09,20723.97,427,284,100.25,274,10050,64684,1400,0.63,-0.82,0.03,-1.38,3.82,-3.47,-53.02,-35.91,-16.51,-12.13,37.6,-17.97,-13.08,Right Fall while Sitting
18:47.7,729,354,531,992,428,1.39,719.33,2.09,20723.97,427,285,100.25,274,10050,80373,1685,0.6,-0.81,0.06,-2.23,0.84,-3.48,-53.67,-35.1,-16.63,-12.22,37.39,-18.12,-13.13,Right Fall while Sitting
18:47.7,684,360,540,992,427,1.4,716.44,2.09,20723.97,427,287,100.25,274,10050,97206,1972,0.64,-0.81,0.04,-2.25,2.04,-3.5,-52.33,-36.59,-16.76,-12.21,37.18,-18.19,-13.19,Right Fall while Sitting
18:47.8,439,362,543,992,428,1.39,719.33,2.09,20723.97,427,286,100.25,274,10050,113466,2258,0.65,-0.81,0.02,-0.91,2.31,-6,-51.67,-37.31,-16.79,-12.19,36.79,-18.19,-13.2,Right Fall while Sitting
18:47.9,164,358,537,992,428,1.39,719.33,2.09,20723.97,427,288,100.25,274,10050,130874,2546,0.64,-0.82,0.07,2.2,9.8,-15.74,-52.55,-36.15,-16.58,-11.59,35.64,-18.02,-12.57,Right Fall while Sitting
18:48.0,191,355,532.5,992,427,1.4,716.44,2.09,20723.97,427,283,120.59,282,14541,0,0,0.67,-0.79,0.08,7.49,14.23,-22.74,-50.03,-38.63,-15.97,-10.66,33.97,-17.33,-11.78,Right Fall while Sitting
18:48.1,514,358,537,992,428,1.39,719.33,2.09,20723.97,427,244,120.59,282,14541,4294961296,244,0.69,-0.77,0.14,16.37,15.34,-29.48,-48.3,-39.72,-14.65,-9.62,31.73,-15.99,-10.82,Right Fall while Sitting
18:48.1,942,367,550.5,992,428,1.39,719.33,2.09,20723.97,427,246,120.59,282,14541,4294956276,490,0.7,-0.73,0.16,15.69,16.16,-38.76,-45.92,-41.65,-13.38,-8.52,28.77,-14.68,-9.84,Right Fall while Sitting
18:48.2,981,377,565.5,992,428,1.39,719.33,2.09,20723.97,427,279,120.59,282,14541,1285,769,0.7,-0.7,0.16,31.63,23.85,-36.45,-44.88,-42.6,-10.9,-6.83,26.02,-12.26,-8.27,Right Fall while Sitting
18:48.3,823,384,576,992,428,1.39,719.33,2.09,20723.97,427,263,120.59,282,14541,4918,1032,0.76,-0.64,0.2,19.17,16.85,-31.91,-39.92,-46.91,-9.4,-5.71,23.66,-10.62,-7.35,Right Fall while Sitting
18:48.4,532,387,580.5,992,428,1.39,719.33,2.09,20723.97,427,279,120.59,282,14541,17223,1311,0.82,-0.61,0.23,19.17,19.03,-42.84,-36.3,-49.84,-7.9,-4.41,20.46,-9.04,-6.23,Right Fall while Sitting
18:48.4,433,387,580.5,992,427,1.4,716.44,2.09,20723.97,427,282,120.59,282,14541,31211,1593,0.78,-0.58,0.31,25.45,23.27,-52.45,-35.31,-48.27,-5.9,-2.77,16.48,-7.07,-4.59,Right Fall while Sitting
18:48.5,775,393,589.5,992,428,1.39,719.33,2.09,20723.97,427,283,120.59,282,14541,45764,1876,0.83,-0.47,0.32,4.32,-1.85,-44.79,-28.49,-53.98,-5.52,-3.07,13.1,-6.44,-5.11,Right Fall while Sitting
18:48.6,886,401,601.5,992,427,1.4,716.44,2.09,20723.97,427,282,120.59,282,14541,59752,2158,0.9,-0.44,0.28,16.67,7.41,-47.5,-25.56,-58.36,-4.23,-2.66,9.59,-5.08,-4.89,Right Fall while Sitting
18:48.7,836,407,610.5,992,429,1.38,722.22,2.1,20723.97,427,283,120.59,282,14541,74305,2441,0.82,-0.41,0.36,10.05,-2.1,-43.5,-25.26,-54.6,-3.41,-2.98,6.3,-4.29,-5.04,Right Fall while Sitting
18:48.7,696,411,616.5,992,428,1.39,719.33,2.09,20723.98,427,286,95.16,272,9055,0,0,0.87,-0.31,0.25,3.52,2.19,-29.4,-19.47,-63.8,-3.11,-2.97,4.16,-3.76,-5.4,Right Fall while Sitting
18:48.8,521,413,619.5,992,428,1.39,719.33,2.09,20723.98,427,264,95.16,272,9055,4160,264,0.94,-0.29,0.34,6.97,6.31,-30.82,-17.09,-62.91,-2.54,-2.64,1.91,-3.12,-5.05,Right Fall while Sitting
18:48.9,504,414,621,992,427,1.4,716.44,2.09,20723.98,427,261,95.16,272,9055,6745,525,0.89,-0.25,0.37,3.6,9.8,-36.11,-15.13,-61.72,-2.23,-2.05,-0.78,-2.74,-4.44,Right Fall while Sitting
18:49.0,506,415,622.5,992,428,1.39,719.33,2.09,20723.98,427,250,95.16,272,9055,3709,775,0.9,-0.19,0.32,-0.27,8.8,-31.49,-11.99,-66.08,-2.2,-1.54,-3.08,-2.6,-4.12,Right Fall while Sitting
18:52.2,588,588,882,588,428,1.39,719.33,2.09,0,0,288,0,0,0,34816,576,0.9,0.22,0.32,-2.02,2.11,-3.27,12.26,-65.26,-0.23,0.07,-0.63,0.27,-2.54,Forward Fall while Sitting
18:52.2,509,548,822,588,428,1.39,719.33,2.09,0,0,287,0,0,0,51649,863,0.91,0.23,0.3,-0.95,0.07,-0.32,12.95,-65.73,-0.26,-0.07,-0.59,0.27,-2.69,Forward Fall while Sitting
18:52.3,668,588,882,668,428,1.39,719.33,2.09,0,0,289,0,0,0,69634,1152,0.92,0.22,0.3,-0.79,-1.31,-0.24,11.97,-66.5,-0.28,-0.31,-0.55,0.21,-2.95,Forward Fall while Sitting
18:52.4,611,594,891,668,428,1.39,719.33,2.09,0,0,252,0,0,0,67602,1404,0.92,0.22,0.28,-1.71,-0.1,-0.56,12.22,-67.14,-0.36,-0.46,-0.54,0.14,-3.13,Forward Fall while Sitting
18:52.5,643,603,904.5,668,428,1.39,719.33,2.09,0,0,252,0,0,0,65570,1656,0.92,0.21,0.31,-2.37,1.66,-0.21,11.71,-66.36,-0.5,-0.49,-0.49,-0.01,-3.12,Forward Fall while Sitting
18:52.5,806,637,955.5,806,428,1.39,719.33,2.09,0,0,251,0,0,0,63035,1907,0.92,0.22,0.32,-1.23,0.68,-2.03,11.97,-65.6,-0.55,-0.58,-0.58,-0.05,-3.18,Forward Fall while Sitting
18:52.6,836,665,997.5,836,429,1.38,722.22,2.1,0,0,253,0,0,0,61508,2160,0.92,0.22,0.32,-0.36,-1.5,-1.84,11.95,-65.81,-0.53,-0.84,-0.66,-0.03,-3.44,Forward Fall while Sitting
18:52.7,696,669,1003.5,836,428,1.39,719.33,2.09,0,0,250,0,0,0,58472,2410,0.91,0.22,0.29,-1.21,0.08,-0.9,12.51,-66.34,-0.58,-0.98,-0.67,-0.06,-3.59,Forward Fall while Sitting
18:52.8,742,677,1015.5,836,428,1.39,719.33,2.09,20723.98,428,283,85.45,269,7301,0,0,0.92,0.22,0.32,-3.27,0.18,1.23,12.22,-65.64,-0.78,-1.12,-0.52,-0.26,-3.7,Forward Fall while Sitting
18:52.8,608,670,1005,836,427,1.4,716.44,2.09,20723.98,428,277,85.45,269,7301,11193,277,0.92,0.22,0.3,-2.99,-0.24,2.49,12.08,-66.28,-0.97,-1.29,-0.27,-0.45,-3.89,Forward Fall while Sitting
18:52.9,422,648,972,836,428,1.39,719.33,2.09,20723.98,428,279,85.45,269,7301,23498,556,0.93,0.2,0.3,-2.03,-0.53,1.49,11.14,-67.34,-1.08,-1.47,-0.1,-0.59,-4.11,Forward Fall while Sitting
18:53.0,291,618,927,836,428,1.39,719.33,2.09,20723.98,428,285,85.45,269,7301,39187,841,0.94,0.2,0.28,-2.05,-0.78,-0.57,10.9,-68.38,-1.19,-1.68,-0.08,-0.71,-4.35,Forward Fall while Sitting
18:53.0,360,598,897,836,427,1.4,716.44,2.09,20723.98,428,283,85.45,269,7301,53740,1124,0.95,0.21,0.27,-4.07,1.13,-5.37,11.22,-68.92,-1.46,-1.75,-0.43,-0.95,-4.44,Forward Fall while Sitting
18:53.1,569,596,894,836,428,1.39,719.33,2.09,20723.98,428,286,85.45,269,7301,70000,1410,0.93,0.21,0.26,-3.16,3.45,-8.95,11.71,-68.74,-1.65,-1.64,-1.04,-1.12,-4.33,Forward Fall while Sitting
18:53.2,332,578,867,836,428,1.39,719.33,2.09,20723.98,428,288,85.45,269,7301,87408,1698,0.9,0.22,0.31,-7.59,1.76,-8.27,12.69,-65.26,-2.18,-1.66,-1.6,-1.59,-4.2,Forward Fall while Sitting
18:53.3,172,553,829.5,836,428,1.39,719.33,2.09,20723.98,428,288,85.45,269,7301,104816,1986,0.87,0.26,0.32,-10.82,-8.79,-5.83,14.8,-63.12,-2.96,-2.48,-1.99,-2.25,-4.91,Forward Fall while Sitting
18:53.3,247,535,802.5,836,427,1.4,716.44,2.09,20723.98,428,288,85.45,269,7301,122224,2274,0.86,0.26,0.29,-14.14,-16.38,3.81,15.16,-64.18,-3.99,-3.88,-1.64,-3.23,-6.29,Forward Fall while Sitting
18:53.4,379,526,789,836,427,1.4,716.44,2.09,20723.98,428,288,85.45,269,7301,139632,2562,0.9,0.22,0.36,1.29,-12.66,14.27,12.51,-63.3,-3.85,-4.99,-0.49,-3.2,-7.32,Forward Fall while Sitting
18:53.5,481,524,786,836,428,1.39,719.33,2.09,20723.97,427,260,119.03,282,14168,0,0,0.88,0.19,0.21,3.17,-7.11,16.2,11.33,-70.35,-3.58,-5.66,0.76,-2.98,-8.25,Forward Fall while Sitting
18:53.6,781,537,805.5,836,429,1.38,722.22,2.1,20723.97,427,246,119.03,282,14168,4294962276,246,0.92,0.16,0.25,2.12,-8.69,22.44,9.16,-70.63,-3.37,-6.49,2.55,-2.87,-9.05,Forward Fall while Sitting
18:53.7,990,558,837,990,428,1.39,719.33,2.09,20723.97,427,242,119.03,282,14168,4294955304,488,0.99,0.14,0.26,-1.07,-10.19,23.69,7.41,-71.63,-3.41,-7.41,4.41,-2.97,-9.98,Forward Fall while Sitting
18:53.7,993,578,867,993,429,1.38,722.22,2.1,20723.97,427,247,119.03,282,14168,4294950777,735,0.91,0.1,0.17,6.63,-9.5,12.4,5.62,-76.03,-2.85,-8.3,5.43,-2.51,-11.01,Forward Fall while Sitting
18:53.8,994,596,894,994,428,1.39,719.33,2.09,20723.97,427,245,119.03,282,14168,4294945266,980,0.97,0.08,0.06,-7.66,-22.15,25.05,3.99,-82.76,-3.39,-10.13,7.39,-3.1,-13.04,Forward Fall while Sitting
18:53.9,991,612,918,994,428,1.39,719.33,2.09,20723.97,427,268,119.03,282,14168,4294951554,1248,1.08,0.02,0.15,-15.34,-18.98,25.34,0.32,-80.67,-4.53,-11.75,9.4,-4.34,-14.51,Forward Fall while Sitting
18:54.0,703,616,924,994,428,1.39,719.33,2.09,20723.97,427,246,119.03,282,14168,4294946534,1494,1.08,0,0.12,-14.16,-19.21,1.89,-0.58,-82.32,-5.58,-13.38,9.61,-5.38,-16.14,Forward Fall while Sitting
18:54.0,316,604,906,994,427,1.4,716.44,2.09,20723.97,427,246,119.03,282,14168,4294941514,1740,1.01,0.06,-0.02,-13.95,-26.75,-5.29,2.63,-85.04,-6.61,-15.6,9.26,-6.24,-18.37,Forward Fall while Sitting
18:54.1,0,582,873,994,427,1.4,716.44,2.09,20723.97,427,270,119.03,282,14168,4294948878,2010,0.96,0.02,0.15,-6.09,-9.65,-1.96,0.77,-79.37,-7.04,-16.51,9.17,-6.73,-19.02,Forward Fall while Sitting
18:54.2,0,561,841.5,994,428,1.39,719.33,2.09,20723.97,427,269,119.03,282,14168,4294955703,2279,0.98,-0.02,0.14,-10.49,-18.93,4.63,-2,-79.88,-7.8,-18.1,9.58,-7.56,-20.57,Forward Fall while Sitting
18:54.3,123,546,819,994,427,1.4,716.44,2.09,20723.98,427,278,3.87,255,14,0,0,1.02,0.01,0.04,-9.12,-28.41,6.09,0.04,-86.15,-8.43,-20.35,10.09,-8.09,-22.98,Forward Fall while Sitting
18:54.3,358,540,810,994,428,1.39,719.33,2.09,20723.98,427,283,3.87,255,14,14553,283,1,0.01,-0.04,-8.49,-22.37,5.48,0.13,-85.92,-9.02,-22.18,10.56,-8.66,-24.72,Forward Fall while Sitting
18:54.4,296,532,798,994,428,1.39,719.33,2.09,20723.98,427,252,3.87,255,14,12521,535,1,-0.01,-0.08,-4.98,-19.89,6.21,-1.15,-83.84,-9.36,-23.84,11.1,-9.03,-26.24,Forward Fall while Sitting
18:54.5,388,527,790.5,994,428,1.39,719.33,2.09,20723.98,427,256,3.87,255,14,12521,791,1,-0.03,-0.08,-11.44,-24.5,10.89,-2.1,-83.73,-10.19,-25.85,11.98,-9.86,-28.17,Forward Fall while Sitting
18:54.6,681,532,798,994,428,1.39,719.33,2.09,20723.98,427,254,3.87,255,14,11501,1045,1.05,-0.04,-0.07,-3.59,-15.79,8.41,-3,-83.72,-10.41,-27.19,12.67,-10.12,-29.45,Forward Fall while Sitting
18:54.6,970,545,817.5,994,428,1.39,719.33,2.09,20723.98,427,251,3.87,255,14,8966,1296,1.09,-0.04,-0.07,-2.12,-11.05,0.95,-2.84,-84,-10.53,-28.19,12.81,-10.23,-30.42,Forward Fall while Sitting
18:54.7,892,555,832.5,994,428,1.39,719.33,2.09,20723.98,427,256,3.87,255,14,8966,1552,1.05,-0.04,-0.14,1.09,-13.02,-2.97,-2.76,-80.49,-10.41,-29.33,12.64,-10.1,-31.38,Forward Fall while Sitting
18:54.8,257,547,820.5,994,427,1.4,716.44,2.09,20723.98,427,283,3.87,255,14,23519,1835,1.03,-0.05,-0.17,7.82,-10.95,-7.84,-3.37,-78.8,-9.77,-30.32,12.11,-9.52,-32.26,Forward Fall while Sitting
18:54.9,111,535,802.5,994,427,1.4,716.44,2.09,20723.98,427,252,3.87,255,14,21487,2087,1,-0.04,-0.19,1.53,-16.89,-8.85,-2.71,-77.62,-9.61,-31.75,11.5,-9.34,-33.59,Forward Fall while Sitting
18:55.0,265,528,792,994,428,1.39,719.33,2.09,20723.98,427,284,3.87,255,14,36607,2371,1.01,-0.02,-0.21,1.88,-17.07,-9.79,-1.52,-76.38,-9.43,-33.18,10.82,-9.11,-34.91,Forward Fall while Sitting
18:55.0,542,528,792,994,428,1.39,719.33,2.09,20723.98,427,256,60.5,262,3659,0,0,0.98,-0.01,-0.22,-8.25,-26.3,-3.59,-1.33,-75.61,-10.01,-35.33,10.61,-9.67,-36.94,Forward Fall while Sitting
18:55.1,815,535,802.5,994,429,1.38,722.22,2.1,20723.98,427,232,60.5,262,3659,4294955584,232,0.96,-0.01,-0.28,-4.34,-19.01,-0.15,-1.21,-72.26,-10.31,-36.95,10.66,-9.94,-38.36,Forward Fall while Sitting
18:55.2,789,541,811.5,994,428,1.39,719.33,2.09,20723.98,427,213,60.5,262,3659,4294935417,445,0.95,-0.02,-0.26,-3.22,-16.76,6.89,-1.51,-72.98,-10.51,-38.41,11.26,-10.15,-39.8,Forward Fall while Sitting
18:55.3,544,541,811.5,994,428,1.39,719.33,2.09,20723.98,427,217,60.5,262,3659,4294916970,662,0.95,-0.01,-0.38,-8.49,-19.12,14.5,-1.29,-66.57,-11.12,-40.04,12.43,-10.73,-41.1,Forward Fall while Sitting
18:55.3,334,537,805.5,994,428,1.39,719.33,2.09,20723.98,427,231,60.5,262,3659,4294904795,893,1,-0.06,-0.35,-5.68,-18.3,12.22,-3.62,-68.9,-11.52,-41.6,13.43,-11.2,-42.69,Forward Fall while Sitting
18:55.4,205,529,793.5,994,427,1.4,716.44,2.09,20723.98,427,243,60.5,262,3659,4294898308,1136,0.98,-0.07,-0.36,3.44,-11.72,7.69,-4.68,-68.02,-11.21,-42.67,14.1,-10.95,-43.69,Forward Fall while Sitting
18:55.5,529,529,793.5,994,428,1.39,719.33,2.09,20723.98,427,237,60.5,262,3659,4294888941,1373,1,-0.08,-0.4,3.85,-18.03,6.47,-4.85,-66.09,-10.87,-44.22,14.66,-10.63,-45.09,Forward Fall while Sitting
18:55.6,780,534,801,994,428,1.39,719.33,2.09,20723.98,427,235,60.5,262,3659,4294878630,1608,0.96,-0.1,-0.44,-1.58,-21.21,6.52,-6,-63.24,-10.95,-46.03,15.23,-10.75,-46.71,Forward Fall while Sitting
18:55.6,813,540,810,994,428,1.39,719.33,2.09,20723.98,427,253,60.5,262,3659,4294877103,1861,0.97,-0.11,-0.45,-5.46,-16.01,1.21,-6.22,-62.95,-11.33,-47.43,15.38,-11.12,-48.05,Forward Fall while Sitting
18:55.7,608,542,813,994,429,1.38,722.22,2.1,20723.98,427,243,60.5,262,3659,4294870616,2104,0.91,-0.09,-0.53,-24.69,-20.34,3.92,-5.69,-57.52,-13.16,-49.13,15.74,-12.86,-49.46,Forward Fall while Sitting
18:55.8,561,542,813,994,428,1.39,719.33,2.09,20723.98,428,239,20724.05,234,429486208,0,0,0.95,-0.11,-0.36,-1.41,-2.42,3.86,-6.71,-66.67,-13.23,-49.47,16.1,-12.97,-50.16,Forward Fall while Sitting
18:55.9,450,540,810,994,428,1.39,719.33,2.09,20723.98,428,236,20724.05,234,429486208,4294957456,236,0.9,-0.09,-0.4,4.39,-6.16,1.09,-5.66,-64.06,-12.84,-50.11,16.25,-12.55,-50.67,Forward Fall while Sitting
18:56.0,424,538,807,994,428,1.39,719.33,2.09,20723.98,428,240,20724.05,234,429486208,4294949520,476,0.92,-0.09,-0.45,3.17,-18.84,9.31,-5.48,-62.22,-12.54,-51.76,17.04,-12.26,-52.18,Forward Fall while Sitting
18:56.0,446,536,804,994,428,1.39,719.33,2.09,20723.98,428,236,20724.05,234,429486208,4294939680,712,0.92,-0.12,-0.5,4.15,-17.2,7.11,-7.26,-59.13,-12.18,-53.26,17.66,-11.98,-53.49,Forward Fall while Sitting
18:56.1,450,535,802.5,994,428,1.39,719.33,2.09,20723.98,428,237,20724.05,234,429486208,4294930313,949,0.92,-0.14,-0.51,4.63,-15.68,0.83,-8.4,-58.65,-11.77,-54.65,17.79,-11.63,-54.81,Forward Fall while Sitting
18:56.2,470,533,799.5,994,428,1.39,719.33,2.09,20723.98,428,235,20724.05,234,429486208,4294920002,1184,0.87,-0.14,-0.66,1.6,-7.2,-0.77,-7.84,-50.83,-11.6,-55.37,17.79,-11.45,-55.19,Forward Fall while Sitting
18:56.3,491,533,799.5,994,428,1.39,719.33,2.09,20723.98,428,234,20724.05,234,429486208,4294909222,1418,0.89,-0.15,-0.59,-2.82,-4.19,1.97,-8.84,-53.98,-11.78,-55.86,18.01,-11.66,-55.78,Forward Fall while Sitting
18:56.3,456,531,796.5,994,427,1.4,716.44,2.09,20723.98,428,240,20724.05,234,429486208,4294901286,1658,0.89,-0.15,-0.5,0.43,-3.09,-1.77,-8.79,-58.32,-11.7,-56.26,17.93,-11.58,-56.34,Forward Fall while Sitting
18:56.4,276,527,790.5,994,427,1.4,716.44,2.09,20723.98,428,245,20724.05,234,429486208,4294895775,1903,0.85,-0.13,-0.61,-5.34,-15.1,4.14,-7.68,-52.36,-12.08,-57.61,18.32,-11.9,-57.4,Forward Fall while Sitting
18:56.5,63,519,778.5,994,427,1.4,716.44,2.09,20723.98,428,249,20724.05,234,429486208,4294892240,2152,0.89,-0.16,-0.59,5.32,-10.69,0.18,-9.22,-53.85,-11.62,-58.6,18.4,-11.52,-58.41,Forward Fall while Sitting
18:56.6,220,514,771,994,428,1.39,719.33,2.09,20723.97,427,243,20724.11,239,429488576,0,0,0.87,-0.15,-0.62,3.13,-8.41,-2.82,-8.46,-52.37,-11.33,-59.4,18.24,-11.22,-59.12,Forward Fall while Sitting
18:56.7,0,505,757.5,994,428,1.39,719.33,2.09,20723.97,427,243,20724.11,239,429488576,4294960809,243,0.87,-0.16,-0.65,1.5,-10.7,-1.45,-9.12,-50.68,-11.17,-60.4,18.19,-11.09,-60.01,Forward Fall while Sitting
18:56.7,336,502,753,994,428,1.39,719.33,2.09,20723.97,427,233,20724.11,239,429488576,4294949562,476,0.85,-0.16,-0.66,5.53,-3.54,-6.58,-9.02,-49.88,-10.69,-60.83,17.73,-10.62,-60.4,Forward Fall while Sitting
18:56.8,539,503,754.5,994,427,1.4,716.44,2.09,20723.97,427,241,20724.11,239,429488576,4294942107,717,0.82,-0.16,-0.62,3.18,-3.17,-5.94,-9.55,-50.29,-10.4,-61.24,17.33,-10.36,-60.8,Forward Fall while Sitting
18:56.9,252,499,748.5,994,428,1.39,719.33,2.09,20723.97,427,259,20724.11,239,429488576,4294943652,976,0.83,-0.17,-0.58,1.4,-2.91,0.47,-9.96,-52.11,-10.24,-61.62,17.43,-10.23,-61.24,Forward Fall while Sitting
18:57.0,0,491,736.5,994,427,1.4,716.44,2.09,20723.97,427,277,20724.11,239,429488576,4294954845,1253,0.85,-0.18,-0.62,3.99,-0.31,-0.47,-10.19,-51.17,-9.89,-61.8,17.45,-9.9,-61.38,Forward Fall while Sitting
18:57.1,0,484,726,994,427,1.4,716.44,2.09,20723.97,427,276,20724.11,239,429488576,4294965485,1529,0.83,-0.18,-0.66,6.66,3.95,-3.12,-10.11,-48.78,-9.32,-61.65,17.27,-9.35,-61.14,Forward Fall while Sitting
18:57.1,0,476,714,994,427,1.4,716.44,2.09,20723.97,427,227,20724.11,239,429488576,4294951478,1756,0.84,-0.18,-0.61,2.15,-2.27,-1.72,-10.46,-51.27,-9.11,-61.98,17.2,-9.16,-61.56,Forward Fall while Sitting
18:57.2,814,481,721.5,994,428,1.39,719.33,2.09,20723.97,427,202,20724.11,239,429488576,4294926746,1958,0.84,-0.17,-0.66,3.67,3.12,-0.94,-9.64,-49.26,-8.78,-61.9,17.18,-8.81,-61.39,Forward Fall while Sitting
18:57.3,989,489,733.5,994,428,1.39,719.33,2.09,20723.97,427,190,20724.11,239,429488576,4294897310,2148,0.85,-0.17,-0.64,0.98,-3.29,-0.7,-9.84,-50.43,-8.66,-62.31,17.19,-8.7,-61.83,Forward Fall while Sitting
18:57.4,990,496,744,994,428,1.39,719.33,2.09,20723.97,427,185,20724.06,233,429486592,0,0,0.82,-0.17,-0.65,-0.05,0.34,-1.38,-9.63,-49.42,-8.62,-62.43,17.15,-8.66,-61.91,Forward Fall while Sitting
18:57.4,989,503,754.5,994,428,1.39,719.33,2.09,20723.97,427,182,20724.06,233,429486592,4294934884,182,0.84,-0.18,-0.64,-1.9,-4.06,1.24,-10.25,-50.16,-8.72,-62.91,17.31,-8.78,-62.4,Forward Fall while Sitting
18:57.5,990,510,765,994,428,1.39,719.33,2.09,20723.97,427,181,20724.06,233,429486592,349,363,0.84,-0.18,-0.63,-0.44,-0.53,-2.73,-10.37,-50.56,-8.71,-63.11,17.16,-8.78,-62.61,Forward Fall while Sitting
18:57.6,990,517,775.5,994,428,1.39,719.33,2.09,20723.97,427,178,20724.06,233,429486592,32033,541,0.83,-0.18,-0.63,1.21,1.31,-2.18,-10.58,-49.89,-8.58,-63.16,17.05,-8.66,-62.63,Forward Fall while Sitting
18:57.7,982,523,784.5,994,428,1.39,719.33,2.09,20723.97,427,175,20724.06,233,429486592,62658,716,0.85,-0.18,-0.63,-1.47,-0.38,-4.84,-10.33,-50.59,-8.65,-63.35,16.74,-8.72,-62.84,Forward Fall while Sitting
18:57.8,832,527,790.5,994,428,1.39,719.33,2.09,20723.97,427,176,20724.06,233,429486592,93634,892,0.82,-0.18,-0.68,-1.6,1.94,-6.48,-9.92,-47.89,-8.73,-63.35,16.3,-8.78,-62.73,Forward Fall while Sitting
18:57.8,799,531,796.5,994,427,1.4,716.44,2.09,20723.97,427,175,20724.06,233,429486592,124259,1067,0.83,-0.17,-0.66,-1.31,3.43,-3.31,-9.55,-49.22,-8.79,-63.24,16.1,-8.82,-62.68,Forward Fall while Sitting
18:57.9,762,534,801,994,428,1.39,719.33,2.09,20723.97,427,174,20724.06,233,429486592,154535,1241,0.83,-0.16,-0.63,-1.6,-2.3,-0.36,-9.5,-50.33,-8.87,-63.58,16.13,-8.89,-63.05,Forward Fall while Sitting
18:58.0,714,536,804,994,428,1.39,719.33,2.09,20723.97,427,171,20724.06,233,429486592,183776,1412,0.83,-0.16,-0.65,2.47,0.5,-1.53,-9.4,-49.63,-8.63,-63.69,16.08,-8.66,-63.13,Forward Fall while Sitting
18:58.1,646,537,805.5,994,428,1.39,719.33,2.09,20723.97,427,171,20724.06,233,429486592,213017,1583,0.82,-0.17,-0.64,1.15,-0.82,-1.29,-10.02,-49.23,-8.5,-63.91,16.04,-8.56,-63.32,Forward Fall while Sitting
18:58.1,386,536,804,994,427,1.4,716.44,2.09,20723.98,427,172,155.76,175,24259,0,0,0.82,-0.17,-0.68,-1.02,1.73,0.72,-9.64,-47.98,-8.53,-63.93,16.15,-8.58,-63.29,Forward Fall while Sitting
18:58.2,428,534,801,994,427,1.4,716.44,2.09,20723.98,427,169,155.76,175,24259,28561,169,0.83,-0.19,-0.65,2.02,4.45,1.18,-10.63,-48.96,-8.34,-63.75,16.3,-8.43,-63.15,Forward Fall while Sitting
18:58.3,401,533,799.5,994,428,1.39,719.33,2.09,20723.98,427,170,155.76,175,24259,57461,339,0.84,-0.18,-0.65,0.71,0.14,0.2,-10.17,-49.85,-8.24,-63.89,16.38,-8.32,-63.33,Forward Fall while Sitting
18:58.4,439,531,796.5,994,428,1.39,719.33,2.09,20723.98,427,168,155.76,175,24259,85685,507,0.83,-0.18,-0.65,-1.95,2.76,-1.66,-10.41,-49.46,-8.35,-63.83,16.31,-8.43,-63.25,Forward Fall while Sitting
18:58.4,453,530,795,994,427,1.4,716.44,2.09,20723.98,427,171,155.76,175,24259,114926,678,0.81,-0.18,-0.64,-0.08,3.85,-2.65,-10.22,-49.21,-8.31,-63.69,16.17,-8.39,-63.11,Forward Fall while Sitting
18:58.5,424,529,793.5,994,428,1.39,719.33,2.09,20723.98,427,169,155.76,175,24259,143487,847,0.82,-0.18,-0.64,-4.32,0.39,0.44,-10.13,-49.52,-8.6,-63.81,16.26,-8.66,-63.24,Forward Fall while Sitting
18:58.6,318,527,790.5,994,428,1.39,719.33,2.09,20723.98,427,167,155.76,175,24259,171376,1014,0.84,-0.18,-0.68,-4.69,1.15,-0.03,-10.34,-48.45,-8.91,-63.87,16.32,-8.97,-63.26,Forward Fall while Sitting
18:58.7,273,524,786,994,427,1.4,716.44,2.09,20723.98,427,170,155.76,175,24259,200276,1184,0.84,-0.17,-0.66,-2.18,2.16,-0.07,-9.46,-49.49,-9.04,-63.86,16.38,-9.06,-63.29,Forward Fall while Sitting
18:58.7,320,521,781.5,994,427,1.4,716.44,2.09,20723.98,427,169,155.76,175,24259,228837,1353,0.84,-0.18,-0.63,-2.16,-1.07,-0.47,-10.29,-50.55,-9.16,-64.1,16.4,-9.21,-63.55,Forward Fall while Sitting
18:58.8,407,520,780,994,428,1.39,719.33,2.09,20723.98,427,169,155.76,175,24259,257398,1522,0.83,-0.18,-0.67,-4.84,-3.56,-0.5,-10.19,-48.22,-9.49,-64.53,16.42,-9.52,-63.88,Forward Fall while Sitting
18:58.9,451,519,778.5,994,428,1.39,719.33,2.09,20723.97,427,167,168.9,168,28527,0,0,0.82,-0.18,-0.66,-2.15,2.58,-1.19,-10.16,-48.65,-9.61,-64.49,16.39,-9.63,-63.85,Forward Fall while Sitting
18:59.0,407,518,777,994,428,1.39,719.33,2.09,20723.97,427,167,168.9,168,28527,27889,167,0.82,-0.18,-0.66,-2.2,-1.73,-0.04,-10.42,-48.62,-9.74,-64.77,16.45,-9.77,-64.13,Forward Fall while Sitting
18:59.1,356,516,774,994,428,1.39,719.33,2.09,20723.97,427,170,168.9,168,28527,56789,337,0.83,-0.18,-0.65,-0.42,2.23,-0.6,-10.06,-49.63,-9.73,-64.75,16.47,-9.74,-64.15,Forward Fall while Sitting
18:59.1,237,513,769.5,994,428,1.39,719.33,2.09,20723.97,427,168,168.9,168,28527,85013,505,0.83,-0.18,-0.63,-0.52,-0.27,-1.06,-10.39,-50.29,-9.73,-64.93,16.45,-9.75,-64.34,Forward Fall while Sitting
18:59.2,233,510,765,994,428,1.39,719.33,2.09,20723.97,427,167,168.9,168,28527,112902,672,0.84,-0.19,-0.65,-3.69,-0.06,-2.55,-10.68,-49.62,-9.97,-65.09,16.31,-9.99,-64.47,Forward Fall while Sitting
18:59.3,222,507,760.5,994,427,1.4,716.44,2.09,20723.97,427,166,168.9,168,28527,140458,838,0.83,-0.17,-0.67,-5.67,2.69,-3.71,-9.56,-48.68,-10.36,-65.03,16.09,-10.33,-64.38,Forward Fall while Sitting
18:59.4,278,505,757.5,994,427,1.4,716.44,2.09,20723.97,427,167,168.9,168,28527,168347,1005,0.83,-0.17,-0.65,-4.22,4.67,-3.98,-9.67,-49.19,-10.64,-64.83,15.84,-10.6,-64.2,Forward Fall while Sitting
18:59.4,186,501,751.5,994,427,1.4,716.44,2.09,20723.97,427,168,168.9,168,28527,196571,1173,0.85,-0.17,-0.63,-2.53,8.18,-4.24,-9.75,-50.94,-10.79,-64.35,15.57,-10.75,-63.82,Forward Fall while Sitting
18:59.5,157,498,747,994,428,1.39,719.33,2.09,20723.97,427,169,168.9,168,28527,225132,1342,0.82,-0.17,-0.67,-3.78,8.26,-2.5,-9.51,-48.48,-11.04,-63.88,15.44,-10.98,-63.26,Forward Fall while Sitting
18:59.6,269,495,742.5,994,428,1.39,719.33,2.09,20723.97,427,248,168.9,168,28527,221100,1590,0.85,-0.17,-0.62,-8.9,10.83,-1.73,-9.9,-51.33,-11.69,-63.19,15.37,-11.62,-62.71,Forward Fall while Sitting
18:59.7,0,490,735,994,427,1.4,716.44,2.09,20723.97,427,263,149.91,185,22472,0,0,0.85,-0.17,-0.63,-14.69,22.03,-5.45,-9.61,-50.68,-12.75,-61.68,15.02,-12.62,-61.24,Forward Fall while Sitting
18:59.7,0,486,729,994,427,1.4,716.44,2.09,20723.97,427,267,149.91,185,22472,5753,267,0.84,-0.16,-0.62,-16.98,24.21,-5.4,-9.03,-51.34,-14.01,-59.97,14.67,-13.81,-59.63,Forward Fall while Sitting
18:59.8,0,480,720,994,427,1.4,716.44,2.09,20723.97,427,268,149.91,185,22472,12041,535,0.88,-0.13,-0.59,-14.57,28.25,-2.6,-7.75,-53.77,-15.09,-57.95,14.53,-14.8,-57.79,Forward Fall while Sitting
18:59.9,0,475,712.5,994,427,1.4,716.44,2.09,20723.97,427,272,149.91,185,22472,20489,807,0.93,-0.1,-0.5,1.6,37.37,-1.59,-6.08,-59.9,-14.93,-55.27,14.47,-14.57,-55.45,Forward Fall while Sitting
19:00.0,0,468,702,994,428,1.39,719.33,2.09,20723.97,427,276,149.91,185,22472,31129,1083,0.96,-0.11,-0.49,-19.95,17.68,2.02,-6.43,-60.8,-16.4,-54.07,14.68,-16,-54.34,Forward Fall while Sitting
19:00.1,0,462,693,994,428,1.39,719.33,2.09,20723.97,427,276,149.91,185,22472,41769,1359,0.97,-0.15,-0.45,-5.25,28.87,-12.76,-8.37,-62.48,-16.76,-52,13.76,-16.43,-52.42,Forward Fall while Sitting
19:00.1,0,455,682.5,994,428,1.39,719.33,2.09,20723.97,427,277,149.91,185,22472,52962,1636,0.93,-0.1,-0.46,-3.82,29.5,-12.77,-5.84,-61.92,-17.01,-49.89,12.84,-16.57,-50.37,Forward Fall while Sitting
19:00.2,22,448,672,994,427,1.4,716.44,2.09,20723.97,427,280,149.91,185,22472,65826,1916,0.92,-0.06,-0.41,-1.66,35.66,1.34,-3.78,-64.01,-17.1,-47.26,13,-16.57,-47.93,Forward Fall while Sitting
19:00.3,370,443,664.5,994,427,1.4,716.44,2.09,20723.97,427,280,149.91,185,22472,78690,2196,1.03,-0.1,-0.38,-10.64,41.04,2.01,-5.95,-67.37,-17.86,-44.29,13.21,-17.39,-45.22,Forward Fall while Sitting
19:00.4,539,441,661.5,994,427,1.4,716.44,2.09,20723.97,427,283,149.91,185,22472,93243,2479,1.04,-0.11,-0.28,-8.15,54.25,-19.91,-6.64,-72.17,-18.45,-40.27,11.74,-17.98,-41.55,Forward Fall while Sitting
19:00.4,788,442,663,788,428,1.39,719.33,2.09,20723.97,427,276,101.92,275,10387,0,0,0.97,-0.08,-0.2,-21.88,38.41,-18.65,-4.99,-76.07,-20.07,-37.5,10.39,-19.47,-39.05,Forward Fall while Sitting
19:00.5,633,442,663,788,429,1.38,722.22,2.1,20723.97,427,281,101.92,275,10387,13425,281,0.99,-0.03,-0.17,-3.4,37.95,-11.08,-2.09,-78.67,-20.29,-34.74,9.59,-19.56,-36.49,Forward Fall while Sitting
19:00.6,651,444,666,788,428,1.39,719.33,2.09,20723.97,427,284,101.92,275,10387,28545,565,1.01,-0.03,-0.06,-9.44,22.01,-12.3,-2.2,-84.53,-20.97,-33.19,8.71,-20.22,-35.25,Forward Fall while Sitting
19:00.7,795,449,673.5,795,428,1.39,719.33,2.09,20723.97,427,286,101.92,275,10387,44805,851,0.98,-0.01,-0.06,-4.2,10.31,-10.03,-1.39,-84.77,-21.25,-32.56,8,-20.46,-34.64,Forward Fall while Sitting
19:00.7,890,455,682.5,890,427,1.4,716.44,2.09,20723.97,427,290,101.92,275,10387,63369,1141,0.96,0.01,-0.04,-5.4,7.5,0.66,-0.03,-85.83,-21.62,-32.13,8.11,-20.76,-34.28,Forward Fall while Sitting
19:00.8,729,456,684,890,429,1.38,722.22,2.1,20723.97,427,292,101.92,275,10387,83097,1433,0.97,0.02,-0.03,-7.03,15.16,7.6,0.61,-86.06,-22.12,-31.13,8.74,-21.21,-33.33,Forward Fall while Sitting
19:00.9,476,458,687,890,428,1.39,719.33,2.09,20723.97,427,294,101.92,275,10387,103997,1727,0.99,0.04,-0.09,16.06,35.11,4.09,1.47,-82.67,-20.84,-28.58,9.12,-19.94,-30.75,Forward Fall while Sitting
19:01.0,346,459,688.5,890,428,1.39,719.33,2.09,20723.97,427,295,101.92,275,10387,125486,2022,1,0,-0.02,10.37,41.94,9.61,-0.5,-87.01,-19.99,-25.51,9.92,-19.21,-27.97,Forward Fall while Sitting
19:01.1,569,463,694.5,890,428,1.39,719.33,2.09,20723.97,427,296,101.92,275,10387,147566,2318,1.03,-0.03,0.03,3.22,33.11,10.29,-2.51,-85.91,-19.71,-23.14,10.76,-19.02,-25.65,Forward Fall while Sitting
19:01.1,992,469,703.5,992,428,1.39,719.33,2.09,20723.97,427,296,101.92,275,10387,169646,2614,1.06,-0.06,0.11,7.08,25.4,3.17,-3.88,-81.86,-19.12,-21.34,11.07,-18.51,-23.76,Forward Fall while Sitting
19:01.2,996,474,711,996,428,1.39,719.33,2.09,20723.98,428,300,139.32,291,19410,0,0,1.08,-0.07,0.11,-2.68,7.74,-3.76,-4.24,-81.32,-19.28,-20.91,10.85,-18.68,-23.33,Forward Fall while Sitting
19:01.3,942,476,714,996,428,1.39,719.33,2.09,20723.98,428,298,139.32,291,19410,23268,298,1.03,-0.04,0.12,11.08,13.54,-8.97,-2.81,-81.5,-18.38,-20.02,10.22,-17.76,-22.48,Forward Fall while Sitting
19:01.4,628,472,708,996,428,1.39,719.33,2.09,20723.98,428,301,139.32,291,19410,48333,599,0.99,-0.02,0.17,5.58,20.81,-15.37,-1.57,-78.56,-17.91,-18.57,9.09,-17.25,-20.97,Forward Fall while Sitting
19:01.4,588,468,702,996,428,1.39,719.33,2.09,20723.98,428,297,139.32,291,19410,71006,896,0.93,-0.01,0.16,4.23,22.94,-8.91,-0.94,-78.64,-17.55,-17,8.48,-16.88,-19.47,Forward Fall while Sitting
19:01.5,678,465,697.5,996,428,1.39,719.33,2.09,20723.98,428,301,139.32,291,19410,96071,1197,0.94,0.07,0.18,4.53,17.47,-4.83,3.46,-77.13,-17.16,-15.81,8.17,-16.33,-18.26,Forward Fall while Sitting
19:01.6,789,463,694.5,789,428,1.39,719.33,2.09,20723.98,428,298,139.32,291,19410,119339,1495,0.96,0.03,0.19,-0.87,12.49,1.5,0.92,-77.05,-17.18,-15,8.35,-16.46,-17.49,Forward Fall while Sitting
19:01.7,705,463,694.5,789,427,1.4,716.44,2.09,20723.98,428,299,139.32,291,19410,143204,1794,0.98,0.02,0.24,9.54,10.06,0.44,0.39,-74.45,-16.41,-14.39,8.44,-15.74,-16.79,Forward Fall while Sitting
19:01.7,529,465,697.5,789,428,1.39,719.33,2.09,20723.98,428,301,139.32,291,19410,168269,2095,0.99,0.01,0.25,6.65,-2.08,0.21,-0.09,-74.36,-15.87,-14.7,8.52,-15.23,-17.09,Forward Fall while Sitting
19:18.0,956,956,1434,956,429,1.38,722.22,2.1,0,0,296,0,0,0,43569,591,0.96,0.09,0.26,-2.03,0.73,-1.12,4.74,-72.4,-0.28,-0.32,-0.02,-0.08,-3.21,Relax
19:18.0,840,898,1347,956,428,1.39,719.33,2.09,0,0,296,0,0,0,65649,887,0.97,0.09,0.24,-1.88,0.18,-0.93,4.74,-73.48,-0.38,-0.45,-0.03,-0.17,-3.38,Relax
19:18.1,835,877,1315.5,956,428,1.39,719.33,2.09,0,0,296,0,0,0,87729,1183,0.95,0.09,0.25,-1,1.82,-0.6,4.5,-72.94,-0.41,-0.47,-0.02,-0.21,-3.37,Relax
19:18.2,875,876,1314,956,428,1.39,719.33,2.09,0,0,296,0,0,0,109809,1479,0.95,0.09,0.24,-2.12,2.04,-0.06,4.58,-73.43,-0.52,-0.46,0.03,-0.32,-3.38,Relax
19:18.3,600,821,1231.5,956,428,1.39,719.33,2.09,0,0,297,0,0,0,132482,1776,0.97,0.08,0.27,-1.42,1.54,-0.56,4.25,-72.24,-0.59,-0.5,0.05,-0.39,-3.37,Relax
19:18.3,444,758,1137,956,428,1.39,719.33,2.09,0,0,297,0,0,0,155155,2073,0.97,0.09,0.24,-1.4,0.71,-1.34,4.57,-73.41,-0.65,-0.59,0.01,-0.44,-3.51,Relax
19:18.4,515,723,1084.5,956,428,1.39,719.33,2.09,0,0,296,0,0,0,177235,2369,0.95,0.09,0.26,-0.79,2.18,-1.47,4.64,-72.56,-0.67,-0.58,-0.04,-0.45,-3.46,Relax
19:18.5,428,686,1029,956,427,1.4,716.44,2.09,0,0,296,0,0,0,199315,2665,0.96,0.08,0.27,-2.86,1.32,-0.44,4.19,-72.17,-0.84,-0.63,-0.01,-0.64,-3.49,Relax
19:18.6,361,650,975,956,428,1.39,719.33,2.09,20723.98,428,294,148.39,295,22020,0,0,0.97,0.09,0.25,-2.24,0.1,-0.5,4.49,-73.02,-0.96,-0.77,0.01,-0.74,-3.66,Relax
19:18.6,354,620,930,956,427,1.4,716.44,2.09,20723.98,428,296,148.39,295,22020,22080,296,0.96,0.08,0.25,-1.13,0.96,-1.61,4.11,-72.87,-1.01,-0.85,-0.05,-0.8,-3.73,Relax
19:18.7,493,609,913.5,956,428,1.39,719.33,2.09,20723.98,428,295,148.39,295,22020,43569,591,0.96,0.09,0.27,-2.01,1.93,-1.94,4.42,-72.13,-1.11,-0.86,-0.14,-0.89,-3.71,Relax
19:18.8,412,592,888,956,427,1.4,716.44,2.09,20723.98,428,295,148.39,295,22020,65058,886,0.96,0.09,0.26,-2.52,1.31,-1.86,4.53,-72.2,-1.26,-0.91,-0.22,-1.03,-3.76,Relax
19:18.9,389,577,865.5,956,428,1.39,719.33,2.09,20723.98,428,292,148.39,295,22020,84786,1178,0.96,0.09,0.27,-1.77,2.24,-1.2,4.36,-71.84,-1.35,-0.89,-0.25,-1.12,-3.73,Relax
19:18.9,492,571,856.5,956,428,1.39,719.33,2.09,20723.98,428,291,148.39,295,22020,103931,1469,0.96,0.08,0.27,-2.18,0.06,-0.85,4.27,-71.89,-1.48,-1.04,-0.26,-1.25,-3.87,Relax
19:19.0,548,569,853.5,956,427,1.4,716.44,2.09,20723.98,428,292,148.39,295,22020,123659,1761,0.96,0.08,0.25,-2.87,-0.2,-0.73,4.08,-73.02,-1.65,-1.2,-0.25,-1.42,-4.07,Relax
19:19.1,506,565,847.5,956,428,1.39,719.33,2.09,20723.98,428,293,148.39,295,22020,143972,2054,0.96,0.08,0.26,-2.33,1.76,-0.72,4.3,-72.35,-1.79,-1.22,-0.25,-1.54,-4.07,Relax
19:19.2,388,555,832.5,956,427,1.4,716.44,2.09,20723.98,428,300,148.39,295,22020,168436,2354,0.96,0.09,0.26,-1.28,1.05,-0.76,4.38,-72.45,-1.84,-1.29,-0.24,-1.59,-4.14,Relax
19:19.2,305,541,811.5,956,427,1.4,716.44,2.09,20723.98,428,297,148.39,295,22020,191109,2651,0.96,0.07,0.27,-3.2,-0.15,-0.19,3.62,-72.42,-2.04,-1.46,-0.2,-1.81,-4.29,Relax
19:19.3,342,530,795,956,427,1.4,716.44,2.09,20723.97,427,300,146.82,295,21556,0,0,0.96,0.08,0.25,-2.7,-0.21,-0.1,4.14,-73.09,-2.2,-1.62,-0.15,-1.95,-4.48,Relax
19:19.4,379,523,784.5,956,428,1.39,719.33,2.09,20723.97,427,299,146.82,295,21556,23865,299,0.96,0.09,0.25,-1.06,1.08,-0.89,4.55,-73.12,-2.24,-1.69,-0.15,-1.97,-4.55,Relax
19:19.5,319,513,769.5,956,428,1.39,719.33,2.09,20723.97,427,299,146.82,295,21556,47730,598,0.96,0.08,0.27,-2.13,1.13,-0.38,3.9,-72.03,-2.36,-1.76,-0.12,-2.11,-4.57,Relax
19:19.5,327,504,756,956,427,1.4,716.44,2.09,20723.97,427,299,146.82,295,21556,71595,897,0.96,0.08,0.25,-2.73,-0.34,-0.39,4.3,-73.14,-2.52,-1.93,-0.09,-2.25,-4.78,Relax
19:19.6,435,501,751.5,956,428,1.39,719.33,2.09,20723.97,427,306,146.82,295,21556,99695,1203,0.95,0.08,0.25,-0.4,0.72,-0.85,4.19,-72.84,-2.51,-2.03,-0.1,-2.24,-4.86,Relax
19:19.7,347,495,742.5,956,427,1.4,716.44,2.09,20723.97,427,311,146.82,295,21556,130880,1514,0.96,0.09,0.25,-2.57,0.24,0.15,4.31,-72.99,-2.66,-2.16,-0.03,-2.38,-5,Relax
19:19.8,417,492,738,956,427,1.4,716.44,2.09,20723.97,427,291,146.82,295,21556,150025,1805,0.97,0.07,0.26,-1.03,2.16,-0.8,3.34,-72.97,-2.7,-2.15,-0.03,-2.46,-4.98,Relax
19:19.8,511,493,739.5,956,428,1.39,719.33,2.09,20723.97,427,292,146.82,295,21556,169753,2097,0.97,0.08,0.26,-2.05,0.6,-1.3,3.81,-72.82,-2.81,-2.26,-0.07,-2.55,-5.08,Relax
19:19.9,577,496,744,956,428,1.39,719.33,2.09,20723.97,427,293,146.82,295,21556,190066,2390,0.96,0.08,0.23,-2.01,1.84,-1.84,3.98,-74.03,-2.92,-2.27,-0.15,-2.65,-5.14,Relax
19:20.0,685,502,753,956,428,1.39,719.33,2.09,20723.97,427,290,146.82,295,21556,208630,2680,0.96,0.08,0.27,-1.53,1.8,-1.38,3.98,-72.17,-2.99,-2.28,-0.19,-2.72,-5.08,Relax
19:20.1,713,510,765,956,428,1.39,719.33,2.09,20723.97,427,292,151.11,297,22834,0,0,0.96,0.08,0.26,-1.74,0.8,-0.4,3.8,-72.37,-3.08,-2.37,-0.16,-2.81,-5.17,Relax
19:20.1,601,513,769.5,956,428,1.39,719.33,2.09,20723.97,427,291,151.11,297,22834,19145,291,0.96,0.08,0.25,-2.8,-0.29,-0.78,3.91,-73.3,-3.25,-2.54,-0.16,-2.96,-5.37,Relax
19:20.2,545,514,771,956,428,1.39,719.33,2.09,20723.97,427,292,151.11,297,22834,38873,583,0.97,0.08,0.25,-1.8,1.89,-2.21,4,-73.43,-3.35,-2.55,-0.27,-3.05,-5.39,Relax
19:20.3,584,516,774,956,428,1.39,719.33,2.09,20723.97,427,292,151.11,297,22834,58601,875,0.96,0.08,0.26,-1.43,2.06,-2.31,4.15,-72.42,-3.41,-2.55,-0.38,-3.11,-5.34,Relax
19:20.4,603,518,777,956,428,1.39,719.33,2.09,20723.97,427,294,151.11,297,22834,79501,1169,0.95,0.08,0.26,-2.31,0.4,-0.9,4.03,-72.34,-3.54,-2.67,-0.39,-3.24,-5.46,Relax
19:20.5,616,521,781.5,956,428,1.39,719.33,2.09,20723.97,427,286,151.11,297,22834,95761,1455,0.95,0.08,0.25,-2.71,0.07,0.76,4.14,-72.94,-3.71,-2.82,-0.27,-3.39,-5.62,Relax
19:20.5,561,522,783,956,428,1.39,719.33,2.09,20723.97,427,290,151.11,297,22834,114325,1745,0.97,0.07,0.27,-0.79,2.11,0.56,3.49,-72.19,-3.72,-2.81,-0.17,-3.44,-5.58,Relax
19:20.6,493,522,783,956,428,1.39,719.33,2.09,20723.97,427,291,151.11,297,22834,133470,2036,0.97,0.07,0.25,-2.67,0.03,-0.41,3.3,-73.21,-3.88,-2.96,-0.14,-3.6,-5.77,Relax
19:20.7,561,523,784.5,956,427,1.4,716.44,2.09,20723.97,427,292,151.11,297,22834,153198,2328,0.96,0.08,0.25,-2.34,1.04,-2.43,3.9,-73.29,-4.02,-3.03,-0.26,-3.7,-5.84,Relax
19:20.8,573,524,786,956,428,1.39,719.33,2.09,20723.97,427,289,151.11,297,22834,171183,2617,0.96,0.08,0.26,-0.47,2.97,-2.37,3.85,-72.58,-4.01,-2.95,-0.38,-3.7,-5.74,Relax
19:20.8,578,525,787.5,956,428,1.39,719.33,2.09,20723.98,427,289,137.54,290,18915,0,0,0.96,0.08,0.27,-2.35,1.18,-0.69,4.09,-72,-4.14,-3.02,-0.38,-3.81,-5.77,Relax
19:20.9,445,523,784.5,956,427,1.4,716.44,2.09,20723.98,427,290,137.54,290,18915,18564,290,0.96,0.08,0.26,-1.82,0.21,-0.36,3.83,-72.79,-4.24,-3.15,-0.34,-3.92,-5.94,Relax
19:21.0,482,522,783,956,428,1.39,719.33,2.09,20723.98,427,292,137.54,290,18915,38292,582,0.96,0.07,0.23,-2.23,0.73,-0.73,3.59,-74.14,-4.37,-3.25,-0.34,-4.05,-6.08,Relax
19:21.1,581,524,786,956,428,1.39,719.33,2.09,20723.98,427,289,137.54,290,18915,56277,871,0.96,0.07,0.26,-2.56,2.02,-0.47,3.53,-72.55,-4.52,-3.25,-0.32,-4.19,-6.02,Relax
19:21.1,568,525,787.5,956,428,1.39,719.33,2.09,20723.98,427,287,137.54,290,18915,73110,1158,0.97,0.08,0.28,-0.73,0.45,-2.26,3.89,-71.8,-4.53,-3.36,-0.43,-4.19,-6.1,Relax
19:21.2,491,524,786,956,428,1.39,719.33,2.09,20723.98,427,290,137.54,290,18915,91674,1448,0.96,0.08,0.25,-3.11,-0.76,-2.42,3.93,-73.05,-4.72,-3.57,-0.55,-4.38,-6.35,Relax
19:21.3,455,522,783,956,428,1.39,719.33,2.09,20723.98,427,290,137.54,290,18915,110238,1738,0.94,0.08,0.25,-3.44,0.23,-1.69,4.25,-72.67,-4.94,-3.71,-0.62,-4.57,-6.47,Relax
19:21.4,536,523,784.5,956,428,1.39,719.33,2.09,20723.98,427,291,137.54,290,18915,129383,2029,0.95,0.09,0.26,-2.16,0.3,-0.89,4.68,-72.4,-5.06,-3.84,-0.63,-4.67,-6.58,Relax
19:21.4,694,526,789,956,427,1.4,716.44,2.09,20723.98,427,289,137.54,290,18915,147368,2318,0.97,0.08,0.25,-3.48,-0.85,0.21,4.02,-73.51,-5.28,-4.05,-0.55,-4.91,-6.83,Relax
19:21.5,481,525,787.5,956,428,1.39,719.33,2.09,20723.98,427,292,137.54,290,18915,167096,2610,0.97,0.08,0.22,-3.62,2.6,0.66,3.92,-75,-5.52,-4.01,-0.44,-5.14,-6.85,Relax
19:21.6,364,522,783,956,428,1.39,719.33,2.09,20723.98,427,287,135.62,289,18391,0,0,0.97,0.08,0.26,-3.12,5.37,-3.18,3.74,-73.01,-5.71,-3.76,-0.62,-5.33,-6.53,Relax
19:21.7,402,520,780,956,428,1.39,719.33,2.09,20723.98,427,287,135.62,289,18391,16833,287,0.96,0.08,0.26,-5.73,2.21,-1.21,4.28,-72.48,-6.1,-3.74,-0.65,-5.68,-6.49,Relax
19:21.7,525,520,780,956,428,1.39,719.33,2.09,20723.98,427,290,135.62,289,18391,35397,577,0.95,0.08,0.26,-0.45,3.53,-1.28,3.95,-72.21,-6.09,-3.62,-0.69,-5.69,-6.37,Relax
19:21.8,517,520,780,956,428,1.39,719.33,2.09,20723.98,427,290,135.62,289,18391,53961,867,0.96,0.08,0.27,-2.76,1.56,1.31,3.97,-72.28,-6.25,-3.66,-0.53,-5.84,-6.4,Relax
19:21.9,391,517,775.5,956,428,1.39,719.33,2.09,20723.98,427,289,135.62,289,18391,71946,1156,0.97,0.06,0.26,-3.05,1.54,0.47,3.12,-72.64,-6.44,-3.69,-0.43,-6.06,-6.45,Relax
19:22.0,377,515,772.5,956,428,1.39,719.33,2.09,20723.98,427,289,135.62,289,18391,89931,1445,0.96,0.06,0.26,-2.54,2.73,-1.79,3.03,-72.93,-6.59,-3.64,-0.51,-6.21,-6.41,Relax
19:22.0,509,515,772.5,956,427,1.4,716.44,2.09,20723.98,427,291,135.62,289,18391,109076,1736,0.96,0.07,0.3,-2.37,3.12,-2.48,3.28,-70.71,-6.73,-3.55,-0.64,-6.33,-6.24,Relax
19:22.1,538,515,772.5,956,427,1.4,716.44,2.09,20723.98,427,267,135.62,289,18391,114829,2003,0.96,0.07,0.25,-5.22,-5.23,-1.93,3.27,-73.59,-7.08,-4.1,-0.72,-6.67,-6.88,Relax
19:22.2,523,515,772.5,956,427,1.4,716.44,2.09,20723.98,427,288,135.62,289,18391,132237,2291,0.96,0.08,0.27,1.52,0.22,-0.12,3.75,-72.08,-6.92,-4.24,-0.67,-6.5,-6.95,Relax
19:22.3,391,513,769.5,956,427,1.4,716.44,2.09,20723.98,427,289,135.62,289,18391,150222,2580,0.96,0.07,0.28,-5.4,-5.43,-0.64,3.5,-71.89,-7.29,-4.8,-0.66,-6.86,-7.48,Relax
19:22.3,373,511,766.5,956,427,1.4,716.44,2.09,20723.97,427,290,129.92,287,16877,0,0,0.96,0.06,0.27,-3.31,-4.71,2.08,2.81,-72.18,-7.5,-5.3,-0.45,-7.08,-7.97,Relax
19:22.4,539,511,766.5,956,428,1.39,719.33,2.09,20723.97,427,290,129.92,287,16877,18564,290,0.96,0.05,0.25,-5.92,-8.87,4.3,2.48,-73.31,-7.9,-6.11,-0.07,-7.48,-8.8,Relax
19:22.5,510,511,766.5,956,428,1.39,719.33,2.09,20723.97,427,287,129.92,287,16877,35397,577,0.97,0.05,0.24,-1.97,-4.98,4.73,2.24,-74.45,-8.01,-6.64,0.35,-7.6,-9.35,Relax
19:22.6,393,509,763.5,956,428,1.39,719.33,2.09,20723.97,427,288,129.92,287,16877,52805,865,0.97,0.05,0.2,-5.16,-4.45,2.56,2.48,-76.54,-8.35,-7.13,0.61,-7.92,-9.91,Relax
19:22.6,399,507,760.5,956,427,1.4,716.44,2.09,20723.97,427,288,129.92,287,16877,70213,1153,0.98,0.04,0.18,-15.09,-7.73,2.81,1.89,-77.72,-9.43,-7.85,0.87,-8.98,-10.65,Relax
19:22.7,610,509,763.5,956,427,1.4,716.44,2.09,20723.97,427,289,129.92,287,16877,88198,1442,0.98,0,0.28,-5.37,-0.84,4.99,-0.48,-72.61,-9.8,-8.07,1.31,-9.42,-10.65,Relax
19:22.8,625,511,766.5,956,428,1.39,719.33,2.09,20723.97,427,288,129.92,287,16877,105606,1730,0.98,0.03,0.2,0.92,1.08,0.44,1.26,-76.76,-9.68,-8.14,1.41,-9.24,-10.88,Relax
19:22.9,487,510,765,956,427,1.4,716.44,2.09,20723.97,427,291,129.92,287,16877,124751,2021,0.95,0.03,0.19,0.29,2.19,-2.89,1.28,-76.98,-9.62,-8.12,1.25,-9.18,-10.88,Relax
19:22.9,344,508,762,956,428,1.39,719.33,2.09,20723.97,427,289,129.92,287,16877,142736,2310,0.98,0.03,0.21,0.33,2.74,-0.06,1.23,-76.14,-9.55,-8.07,1.3,-9.12,-10.79,Relax
19:23.0,455,507,760.5,956,428,1.39,719.33,2.09,20723.97,427,290,129.92,287,16877,161300,2600,0.97,0.02,0.19,-3.29,6.03,-2.9,0.83,-76.97,-9.76,-7.76,1.14,-9.34,-10.53,Relax
19:23.1,573,508,762,956,428,1.39,719.33,2.09,20723.97,427,292,134.54,289,18101,0,0,1.01,0.01,0.28,2.06,8.37,-3.73,-0.13,-73.05,-9.56,-7.29,0.92,-9.19,-9.92,Relax
19:23.2,484,508,762,956,428,1.39,719.33,2.09,20723.97,427,291,134.54,289,18101,19145,291,0.98,0.04,0.22,1.27,0.56,-10.91,1.77,-75.36,-9.43,-7.39,0.16,-8.98,-10.11,Relax
19:23.2,385,506,759,956,428,1.39,719.33,2.09,20723.97,427,288,134.54,289,18101,36553,579,0.97,0.05,0.22,-1.73,-1.08,-5.88,2.54,-75.46,-9.51,-7.63,-0.22,-9.03,-10.34,Relax
19:23.3,232,502,753,956,428,1.39,719.33,2.09,20723.97,427,293,134.54,289,18101,56866,872,0.95,0.06,0.23,-2.48,2.31,-3.18,3.01,-74.52,-9.66,-7.6,-0.4,-9.15,-10.28,Relax
19:23.4,570,503,754.5,956,428,1.39,719.33,2.09,20723.97,427,288,134.54,289,18101,74274,1160,0.96,0.06,0.24,-4.78,-0.76,-0.51,3.18,-74.06,-9.98,-7.81,-0.38,-9.45,-10.46,Relax
19:23.5,629,505,757.5,956,428,1.39,719.33,2.09,20723.97,427,289,134.54,289,18101,92259,1449,0.97,0.04,0.25,0.68,0.81,1.5,1.94,-73.63,-9.88,-7.9,-0.21,-9.41,-10.53,Relax
19:23.5,525,505,757.5,956,428,1.39,719.33,2.09,20723.97,427,291,134.54,289,18101,111404,1740,0.97,0.05,0.21,-2.4,-0.72,0.61,2.15,-75.85,-10.02,-8.11,-0.1,-9.54,-10.82,Relax
19:23.6,407,504,756,956,427,1.4,716.44,2.09,20723.97,427,291,134.54,289,18101,130549,2031,0.98,0.03,0.21,-2.38,3.31,-1.03,1.42,-76.15,-10.16,-8.01,-0.12,-9.7,-10.74,Relax
19:23.7,467,503,754.5,956,428,1.39,719.33,2.09,20723.97,427,287,134.54,289,18101,147382,2318,0.98,0.04,0.25,-3.34,3.02,-3.18,1.76,-74.1,-10.37,-7.93,-0.3,-9.89,-10.58,Relax
19:23.8,598,504,756,956,427,1.4,716.44,2.09,20723.97,427,289,134.54,289,18101,165367,2607,0.97,0.05,0.23,-2.35,2.7,-5.2,2.43,-75.04,-10.51,-7.88,-0.63,-9.99,-10.57,Relax
19:23.9,640,506,759,956,428,1.39,719.33,2.09,20723.98,427,289,135.41,289,18334,0,0,0.96,0.06,0.22,-3.18,3.19,-4.18,2.74,-74.9,-10.71,-7.79,-0.89,-10.17,-10.48,Relax
19:23.9,535,506,759,956,428,1.39,719.33,2.09,20723.98,427,289,135.41,289,18334,17985,289,0.95,0.06,0.26,-2.27,2.27,-1.8,3.04,-72.7,-10.84,-7.77,-0.97,-10.28,-10.37,Relax
19:24.0,469,506,759,956,428,1.39,719.33,2.09,20723.98,427,288,135.41,289,18334,35393,577,0.97,0.06,0.24,-3.08,-0.3,-1.6,3.02,-74.2,-11.03,-7.94,-1.03,-10.47,-10.59,Relax
19:24.1,464,505,757.5,956,427,1.4,716.44,2.09,20723.98,427,290,135.41,289,18334,53957,867,0.96,0.06,0.21,-3.07,1.21,-1.54,2.93,-75.55,-11.22,-8,-1.08,-10.65,-10.7,Relax
19:24.2,575,506,759,956,428,1.39,719.33,2.09,20723.98,427,288,135.41,289,18334,71365,1155,0.97,0.05,0.24,-3.48,2.76,-0.76,2.54,-74.19,-11.44,-7.94,-1.08,-10.88,-10.59,Relax
19:24.2,645,508,762,956,427,1.4,716.44,2.09,20723.98,427,287,135.41,289,18334,88198,1442,0.98,0.06,0.24,-3.14,-0.47,-0.73,2.71,-74.24,-11.64,-8.13,-1.08,-11.06,-10.77,Relax
19:24.3,527,508,762,956,428,1.39,719.33,2.09,20723.98,427,289,135.41,289,18334,106183,1731,0.97,0.06,0.23,1.24,0.15,-2.04,3.05,-74.83,-11.5,-8.27,-1.17,-10.92,-10.93,Relax
19:24.4,589,509,763.5,956,428,1.39,719.33,2.09,20723.98,427,288,135.41,289,18334,123591,2019,0.97,0.06,0.24,-1.44,-0.37,-1.05,3.03,-74.39,-11.57,-8.45,-1.19,-10.99,-11.09,Relax
19:24.5,614,510,765,956,428,1.39,719.33,2.09,20723.98,427,287,135.41,289,18334,140424,2306,0.95,0.06,0.24,-2.55,3.18,-1.5,3.08,-73.91,-11.72,-8.36,-1.25,-11.13,-10.98,Relax
19:24.5,691,512,768,956,429,1.38,722.22,2.1,20723.98,427,286,135.41,289,18334,156684,2592,0.98,0.06,0.27,-1.86,1.55,-0.49,2.91,-72.55,-11.82,-8.39,-1.22,-11.23,-10.96,Relax
19:24.6,751,515,772.5,956,429,1.38,722.22,2.1,20723.98,428,287,131.72,287,17350,0,0,0.98,0.05,0.24,-1.08,-0.63,-1.64,2.55,-74.37,-11.86,-8.59,-1.29,-11.28,-11.22,Relax
19:24.7,655,517,775.5,956,428,1.39,719.33,2.09,20723.98,428,288,131.72,287,17350,17408,288,0.97,0.06,0.23,-1.72,1.55,-2.27,2.68,-74.71,-11.95,-8.63,-1.4,-11.36,-11.27,Relax
19:24.8,456,516,774,956,428,1.39,719.33,2.09,20723.98,428,288,131.72,287,17350,34816,576,0.97,0.07,0.23,-4.77,2.14,-2.15,3.16,-74.32,-12.27,-8.62,-1.5,-11.65,-11.24,Relax
19:24.8,402,515,772.5,956,428,1.39,719.33,2.09,20723.98,428,287,131.72,287,17350,51649,863,0.97,0.06,0.24,-1.07,2.55,-3.12,2.6,-74.37,-12.31,-8.57,-1.68,-11.71,-11.21,Relax
19:24.9,477,514,771,956,428,1.39,719.33,2.09,20723.98,428,287,131.72,287,17350,68482,1150,0.96,0.07,0.26,-1.5,2.25,-2.7,3.31,-72.9,-12.38,-8.55,-1.83,-11.75,-11.13,Relax
19:25.0,535,514,771,956,428,1.39,719.33,2.09,20723.98,428,287,131.72,287,17350,85315,1437,0.96,0.07,0.25,-2.42,1.47,-1.35,3.69,-73.2,-12.52,-8.59,-1.87,-11.87,-11.18,Relax
19:25.1,480,514,771,956,428,1.39,719.33,2.09,20723.98,428,287,131.72,287,17350,102148,1724,0.97,0.07,0.23,-2.47,-0.42,-0.37,3.31,-74.51,-12.67,-8.78,-1.84,-12.03,-11.41,Relax
19:25.2,329,512,768,956,428,1.39,719.33,2.09,20723.98,428,286,131.72,287,17350,118408,2010,0.97,0.06,0.23,-0.91,2.53,0.47,2.97,-74.37,-12.69,-8.74,-1.74,-12.07,-11.36,Relax
19:25.2,319,510,765,956,428,1.39,719.33,2.09,20723.98,428,288,131.72,287,17350,135816,2298,0.98,0.06,0.25,-2.27,1.64,-1.07,2.9,-73.78,-12.82,-8.76,-1.76,-12.19,-11.37,Relax
19:25.3,523,510,765,956,428,1.39,719.33,2.09,20723.98,428,286,131.72,287,17350,152076,2584,0.98,0.07,0.24,-3.37,0.98,-3.02,3.13,-74.1,-13.04,-8.84,-1.93,-12.39,-11.45,Relax
19:25.4,466,510,765,956,428,1.39,719.33,2.09,20723.98,428,287,129.96,287,16889,0,0,0.95,0.07,0.22,-2.67,1.02,-2.58,3.73,-74.6,-13.19,-8.92,-2.07,-12.52,-11.54,Relax
19:25.5,440,509,763.5,956,428,1.39,719.33,2.09,20723.98,428,287,129.96,287,16889,16833,287,0.95,0.08,0.25,-2.09,2.5,0.02,3.92,-73.05,-13.31,-8.88,-2,-12.62,-11.44,Relax
19:25.5,346,503,754.5,956,428,1.39,719.33,2.09,20723.98,428,288,129.96,287,16889,34241,575,0.96,0.07,0.27,-2.23,-0.61,2.5,3.24,-72.27,-13.44,-9.08,-1.75,-12.77,-11.6,Relax
19:25.6,357,498,747,956,428,1.39,719.33,2.09,20723.98,428,286,129.96,287,16889,50501,861,0.96,0.06,0.23,-4.01,-1.37,3.98,2.69,-74.74,-13.7,-9.33,-1.39,-13.04,-11.95,Relax
19:25.7,469,495,742.5,956,428,1.39,719.33,2.09,20723.98,428,287,129.96,287,16889,67334,1148,0.99,0.04,0.23,-2.48,1.83,2.92,1.91,-75.02,-13.85,-9.34,-1.11,-13.22,-11.97,Relax
19:25.8,543,491,736.5,956,428,1.39,719.33,2.09,20723.98,428,287,129.96,287,16889,84167,1435,0.99,0.03,0.26,-1.89,1.15,-0.28,1.22,-73.7,-13.95,-9.41,-1.07,-13.34,-11.98,Relax
19:25.8,513,490,735,956,428,1.39,719.33,2.09,20723.98,428,286,129.96,287,16889,100427,1721,0.98,0.05,0.22,-2.43,0.75,-4.02,2.06,-75.38,-14.09,-9.5,-1.32,-13.44,-12.14,Relax
19:25.9,443,490,735,956,428,1.39,719.33,2.09,20723.98,428,287,129.96,287,16889,117260,2008,0.96,0.05,0.23,-1.66,3.21,-4.91,2.26,-74.56,-14.17,-9.41,-1.64,-13.52,-12.02,Relax
19:26.0,351,489,733.5,956,428,1.39,719.33,2.09,20723.98,428,290,129.96,287,16889,135824,2298,0.96,0.06,0.24,-3.69,1.49,-1.67,3.17,-74.09,-14.41,-9.45,-1.7,-13.71,-12.04,Relax
19:26.1,426,489,733.5,956,428,1.39,719.33,2.09,20723.98,428,288,129.96,287,16889,153232,2586,0.96,0.06,0.27,-1.57,2.15,0.97,3.04,-72.16,-14.49,-9.44,-1.57,-13.79,-11.95,Relax
19:26.1,520,490,735,956,428,1.39,719.33,2.09,20723.98,428,287,130.41,287,17005,0,0,0.97,0.05,0.25,-2.18,-1.18,2.12,2.39,-73.84,-14.61,-9.68,-1.35,-13.93,-12.24,Relax
19:26.2,377,491,736.5,956,428,1.39,719.33,2.09,20723.98,428,287,130.41,287,17005,16833,287,0.97,0.04,0.22,-2.5,0.35,0.34,1.92,-75.53,-14.76,-9.8,-1.27,-14.09,-12.43,Relax
19:26.3,423,490,735,956,427,1.4,716.44,2.09,20723.98,428,289,130.41,287,17005,34818,576,0.99,0.04,0.26,-1.3,3.02,-1.76,1.56,-73.63,-14.81,-9.72,-1.34,-14.16,-12.28,Relax
19:26.4,366,489,733.5,956,428,1.39,719.33,2.09,20723.98,428,288,130.41,287,17005,52226,864,0.97,0.05,0.26,-1.76,0.74,-2.81,2.27,-72.97,-14.91,-9.82,-1.49,-14.22,-12.35,Relax
19:26.4,447,490,735,956,427,1.4,716.44,2.09,20723.98,428,288,130.41,287,17005,69634,1152,0.96,0.05,0.24,-2.37,1.5,-1.74,2.59,-74.2,-15.04,-9.86,-1.56,-14.34,-12.43,Relax
19:26.5,545,490,735,956,428,1.39,719.33,2.09,20723.98,428,288,130.41,287,17005,87042,1440,0.95,0.06,0.26,-2.22,2.19,-0.38,2.69,-73,-15.17,-9.84,-1.53,-14.45,-12.37,Relax
19:26.6,566,491,736.5,956,428,1.39,719.33,2.09,20723.98,428,289,130.41,287,17005,105027,1729,0.97,0.05,0.26,-1.91,0.34,0.12,2.41,-73.3,-15.27,-9.97,-1.46,-14.56,-12.5,Relax
19:26.7,451,490,735,956,428,1.39,719.33,2.09,20723.98,428,289,130.41,287,17005,123012,2018,0.97,0.05,0.25,-2.23,-0.76,-0.47,2.05,-73.9,-15.4,-10.18,-1.44,-14.7,-12.73,Relax
19:26.7,381,490,735,956,427,1.4,716.44,2.09,20723.98,428,288,130.41,287,17005,140420,2306,0.96,0.04,0.24,-2.6,1.71,-1.44,1.81,-73.94,-15.56,-10.2,-1.49,-14.86,-12.75,Relax
19:26.8,435,491,736.5,956,428,1.39,719.33,2.09,20723.98,428,290,130.41,287,17005,158984,2596,0.97,0.04,0.25,-1.92,1.92,-1.53,1.98,-73.76,-15.66,-10.21,-1.55,-14.95,-12.75,Relax
19:26.9,558,493,739.5,956,428,1.39,719.33,2.09,20723.97,427,289,133.03,288,17695,0,0,0.96,0.05,0.26,-2.13,1.6,-1.63,2.35,-73.26,-15.78,-10.24,-1.61,-15.05,-12.76,Relax
19:27.0,608,496,744,956,428,1.39,719.33,2.09,20723.97,427,290,133.03,288,17695,18564,290,0.96,0.05,0.24,-2.39,0.77,-1.11,2.3,-74.31,-15.92,-10.33,-1.63,-15.19,-12.89,Relax
19:27.0,527,498,747,956,428,1.39,719.33,2.09,20723.97,427,292,133.03,288,17695,38292,582,0.96,0.05,0.25,-3.35,1.02,-0.13,2.36,-73.78,-16.13,-10.41,-1.58,-15.39,-12.94,Relax
19:27.1,431,499,748.5,956,427,1.4,716.44,2.09,20723.97,427,291,133.03,288,17695,57437,873,0.96,0.04,0.25,-1.39,1.1,0.05,1.79,-73.73,-16.19,-10.48,-1.52,-15.48,-13.01,Relax
19:27.2,501,500,750,956,428,1.39,719.33,2.09,20723.97,427,290,133.03,288,17695,76001,1163,0.96,0.05,0.26,-1.56,1.15,0.37,2.07,-72.82,-16.27,-10.54,-1.43,-15.54,-13.03,Relax
19:27.3,566,502,753,956,428,1.39,719.33,2.09,20723.97,427,287,133.03,288,17695,92834,1450,0.97,0.04,0.24,-5.21,-0.94,0.2,1.75,-74.31,-16.63,-10.77,-1.36,-15.89,-13.31,Relax
19:27.4,611,504,756,956,428,1.39,719.33,2.09,20723.97,427,289,133.03,288,17695,110819,1739,0.97,0.04,0.23,-0.91,1.15,-1.53,1.85,-74.67,-16.66,-10.83,-1.41,-15.92,-13.39,Relax
19:27.4,549,504,756,956,428,1.39,719.33,2.09,20723.97,427,288,133.03,288,17695,128227,2027,0.97,0.04,0.25,-0.91,0.69,-1.77,1.46,-73.76,-16.68,-10.93,-1.49,-15.96,-13.45,Relax
19:27.5,482,503,754.5,956,428,1.39,719.33,2.09,20723.97,427,290,133.03,288,17695,146791,2317,0.97,0.05,0.27,-1.96,2.42,-2.06,1.99,-72.83,-16.79,-10.9,-1.58,-16.04,-13.38,Relax
19:27.6,424,501,751.5,956,427,1.4,716.44,2.09,20723.97,427,288,133.03,288,17695,164199,2605,0.97,0.04,0.26,-2.52,1.08,-2.33,1.96,-73.3,-16.94,-10.97,-1.7,-16.18,-13.46,Relax
19:27.7,487,498,747,956,428,1.39,719.33,2.09,20723.98,427,288,134.76,289,18159,0,0,0.98,0.05,0.23,-2.08,1.08,-2.37,2.27,-74.9,-17.05,-11.04,-1.82,-16.28,-13.6,Relax
19:27.7,603,498,747,956,427,1.4,716.44,2.09,20723.98,427,286,134.76,289,18159,16260,286,0.96,0.05,0.26,-2.29,0.91,-1.87,2.33,-73.18,-17.18,-11.12,-1.9,-16.4,-13.61,Relax
19:27.8,626,499,748.5,956,427,1.4,716.44,2.09,20723.98,427,286,134.76,289,18159,32520,572,0.96,0.04,0.25,-3.46,-0.07,-1.36,2.01,-73.51,-17.41,-11.28,-1.95,-16.63,-13.77,Relax
19:27.9,514,498,747,956,429,1.38,722.22,2.1,20723.98,427,286,134.76,289,18159,48780,858,0.97,0.05,0.23,-2.64,0.24,-1.07,2.57,-74.58,-17.56,-11.42,-1.97,-16.76,-13.94,Relax
19:28.0,436,497,745.5,956,428,1.39,719.33,2.09,20723.98,427,289,134.76,289,18159,66765,1147,0.96,0.04,0.24,-1.27,1.01,-1.35,1.69,-74.23,-17.62,-11.49,-2.01,-16.85,-14,Relax
19:28.0,470,495,742.5,956,427,1.4,716.44,2.09,20723.98,427,288,134.76,289,18159,84173,1435,0.97,0.05,0.24,-3.6,0.53,-0.31,2.3,-74.26,-17.85,-11.6,-1.97,-17.04,-14.11,Relax
19:28.1,590,496,744,956,428,1.39,719.33,2.09,20723.98,427,287,134.76,289,18159,101006,1722,0.96,0.05,0.25,-1.14,1.91,-1.15,2.05,-73.8,-17.89,-11.61,-2,-17.1,-14.1,Relax
19:28.2,631,497,745.5,956,428,1.39,719.33,2.09,20723.98,427,287,134.76,289,18159,117839,2009,0.96,0.04,0.25,-0.73,1.33,-0.11,1.77,-73.53,-17.91,-11.66,-1.95,-17.12,-14.14,Relax
19:28.3,523,497,745.5,956,428,1.39,719.33,2.09,20723.98,427,239,134.76,289,18159,109424,2248,0.97,0.04,0.25,-2.18,-0.56,1.05,1.84,-73.88,-18.03,-11.86,-1.81,-17.24,-14.34,Relax
19:28.4,497,496,744,956,428,1.39,719.33,2.09,20723.98,427,238,134.76,289,18159,100532,2486,0.98,0.04,0.24,-0.37,2.11,-0.78,1.5,-74.36,-18.02,-11.85,-1.81,-17.24,-14.35,Relax
19:28.4,533,495,742.5,956,428,1.39,719.33,2.09,20723.98,427,232,94.24,271,8881,0,0,0.98,0.04,0.25,-2.56,1.88,-2.2,1.49,-74.02,-18.17,-11.86,-1.92,-17.38,-14.34,Relax
19:28.5,788,499,748.5,788,427,1.4,716.44,2.09,20723.98,427,238,94.24,271,8881,4294958404,238,0.96,0.05,0.25,-1.71,1.44,-2.63,2.43,-73.28,-18.25,-11.9,-2.06,-17.43,-14.36,Relax
19:28.6,912,503,754.5,912,429,1.38,722.22,2.1,20723.98,427,240,94.24,271,8881,4294950468,478,0.96,0.05,0.26,-1.36,0.67,-2,2.24,-72.75,-18.32,-12,-2.15,-17.49,-14.43,Relax
19:28.7,981,507,760.5,981,428,1.39,719.33,2.09,20723.98,427,236,94.24,271,8881,4294940628,714,0.96,0.05,0.23,-2.84,-0.93,0.61,2.31,-74.86,-18.49,-12.23,-2.04,-17.66,-14.73,Relax
19:28.7,935,511,766.5,981,428,1.39,719.33,2.09,20723.98,427,232,94.24,271,8881,4294928916,946,0.97,0.04,0.24,-0.65,1.07,1.36,1.58,-74.3,-18.5,-12.3,-1.88,-17.69,-14.78,Relax
19:28.8,938,515,772.5,981,428,1.39,719.33,2.09,20723.98,427,235,94.24,271,8881,4294918605,1181,0.98,0.03,0.26,-1.92,0.36,0.22,1.38,-73.43,-18.6,-12.42,-1.8,-17.8,-14.86,Relax
19:28.9,937,520,780,981,429,1.38,722.22,2.1,20723.98,427,237,94.24,271,8881,4294909238,1418,0.98,0.04,0.24,-2.56,0.05,-2.22,1.45,-74.54,-18.76,-12.57,-1.91,-17.95,-15.05,Relax
19:29.0,916,524,786,981,428,1.39,719.33,2.09,20723.98,427,239,94.24,271,8881,4294900823,1657,0.97,0.04,0.24,-2.9,1.99,-3.76,1.64,-74.29,-18.93,-12.57,-2.13,-18.11,-15.04,Relax
19:29.0,894,526,789,981,428,1.39,719.33,2.09,20723.98,427,253,94.24,271,8881,4294899296,1910,0.97,0.05,0.24,-3.56,1.04,-3.2,2.21,-74.33,-19.16,-12.65,-2.32,-18.31,-15.12,Relax
19:29.1,769,529,793.5,981,428,1.39,719.33,2.09,20723.98,427,259,94.24,271,8881,4294900841,2169,0.95,0.06,0.22,-1.5,1.81,-2.58,3.08,-74.82,-19.24,-12.66,-2.46,-18.34,-15.15,Relax
19:29.2,547,531,796.5,981,428,1.39,719.33,2.09,20723.98,428,236,20724.12,240,429489088,0,0,0.96,0.06,0.24,-1.74,2.17,-0.87,2.71,-73.75,-19.33,-12.65,-2.46,-18.45,-15.09,Relax
19:29.3,528,532,798,981,428,1.39,719.33,2.09,20723.98,428,238,20724.12,240,429489088,4294958404,238,0.97,0.05,0.26,-1.82,0.53,1.74,2.47,-72.97,-19.43,-12.76,-2.27,-18.55,-15.17,Relax
19:29.3,520,532,798,981,428,1.39,719.33,2.09,20723.98,428,240,20724.12,240,429489088,4294950468,478,0.98,0.04,0.26,-1.53,0.24,-0.13,1.73,-73.55,-19.5,-12.9,-2.22,-18.65,-15.33,Relax
19:29.4,558,532,798,981,428,1.39,719.33,2.09,20723.98,428,241,20724.12,240,429489088,4294943013,719,0.97,0.04,0.23,-3.64,-0.58,-0.66,1.85,-74.68,-19.74,-13.1,-2.21,-18.88,-15.56,Relax
19:29.5,592,534,801,981,427,1.4,716.44,2.09,20723.98,428,244,20724.12,240,429489088,4294937013,963,0.98,0.04,0.24,-2.27,0.36,-0.53,1.82,-74.7,-19.88,-13.23,-2.19,-19.01,-15.69,Relax
19:29.6,585,536,804,981,427,1.4,716.44,2.09,20723.98,428,242,20724.12,240,429489088,4294930041,1205,0.97,0.04,0.25,0.08,2.12,-0.83,1.77,-73.79,-19.83,-13.22,-2.19,-18.96,-15.64,Relax
19:29.7,583,537,805.5,981,427,1.4,716.44,2.09,20723.98,428,240,20724.12,240,429489088,4294922105,1445,0.97,0.04,0.25,-1.44,0.57,-0.96,1.63,-73.84,-19.89,-13.33,-2.2,-19.03,-15.75,Relax
19:29.7,587,537,805.5,981,428,1.39,719.33,2.09,20723.98,428,241,20724.12,240,429489088,4294914650,1686,0.97,0.04,0.25,-3.41,-0.15,-1.15,1.55,-73.7,-20.12,-13.5,-2.23,-19.25,-15.91,Relax
19:29.8,546,538,807,981,427,1.4,716.44,2.09,20723.98,428,243,20724.12,240,429489088,4294908163,1929,0.97,0.05,0.23,-1.78,0.92,-1.89,2.05,-74.9,-20.21,-13.59,-2.31,-19.32,-16.04,Relax
19:29.9,513,539,808.5,981,428,1.39,719.33,2.09,20723.98,428,242,20724.12,240,429489088,4294901191,2171,0.98,0.05,0.24,-1.37,2.11,-2.31,2.09,-74.28,-20.28,-13.58,-2.43,-19.38,-16.01,Relax
19:30.0,441,540,810,981,428,1.39,719.33,2.09,20723.97,427,242,20724.13,241,429489408,0,0,0.96,0.05,0.24,-2.22,0.43,-1.33,2.14,-74.13,-20.4,-13.7,-2.47,-19.5,-16.12,Relax
19:30.0,307,537,805.5,981,428,1.39,719.33,2.09,20723.97,427,264,20724.13,241,429489408,4160,264,0.96,0.05,0.24,-2.6,0.77,-0.11,2.24,-73.86,-20.56,-13.79,-2.42,-19.65,-16.2,Relax
19:30.1,51,533,799.5,981,428,1.39,719.33,2.09,20723.97,427,292,20724.13,241,429489408,23888,556,0.97,0.04,0.25,-1.46,1.15,0.65,1.99,-73.42,-20.63,-13.86,-2.31,-19.73,-16.24,Relax
19:30.2,0,529,793.5,981,427,1.4,716.44,2.09,20723.97,427,288,20724.13,241,429489408,41296,844,0.97,0.05,0.26,-1.8,0.38,0.31,2.01,-73.24,-20.72,-13.98,-2.23,-19.82,-16.35,Relax
19:30.3,0,525,787.5,981,427,1.4,716.44,2.09,20723.97,427,284,20724.13,241,429489408,56416,1128,0.97,0.04,0.24,-1.75,1.2,-0.27,1.66,-74.3,-20.82,-14.04,-2.19,-19.92,-16.45,Relax
19:30.4,0,519,778.5,981,427,1.4,716.44,2.09,20723.97,427,281,20724.13,241,429489408,69841,1409,0.98,0.03,0.24,-1.9,0.47,-0.97,1.18,-74.33,-20.92,-14.16,-2.2,-20.04,-16.57,Relax
19:30.4,0,512,768,981,427,1.4,716.44,2.09,20723.97,427,281,20724.13,241,429489408,83266,1690,0.97,0.04,0.22,-1.77,1.46,-1.87,1.74,-75.24,-21.01,-14.2,-2.29,-20.1,-16.64,Relax
19:30.5,0,508,762,981,428,1.39,719.33,2.09,20723.97,427,284,20724.13,241,429489408,98386,1974,0.97,0.04,0.24,-1.82,1.95,-2.34,1.8,-74.29,-21.11,-14.21,-2.41,-20.19,-16.61,Relax
19:30.6,0,504,756,981,427,1.4,716.44,2.09,20723.97,427,285,20724.13,241,429489408,114075,2259,0.96,0.05,0.25,-2.42,2.16,-1.4,2.1,-73.68,-21.25,-14.19,-2.45,-20.32,-16.57,Relax
19:30.7,137,501,751.5,981,427,1.4,716.44,2.09,20723.97,427,287,20724.13,241,429489408,130908,2546,0.96,0.05,0.24,-1.37,1.6,-0.91,2.36,-73.98,-21.31,-14.23,-2.46,-20.37,-16.62,Relax
19:30.7,282,498,747,981,427,1.4,716.44,2.09,20723.97,427,256,114.41,280,13089,0,0,0.97,0.04,0.25,-1.89,1.08,-0.02,1.43,-73.61,-21.41,-14.29,-2.4,-20.5,-16.67,Relax
19:30.8,648,500,750,981,428,1.39,719.33,2.09,20723.97,427,244,114.41,280,13089,4294961296,244,0.96,0.03,0.25,-1.45,1.14,-0.32,1.42,-73.93,-21.48,-14.36,-2.37,-20.57,-16.74,Relax
19:30.9,793,504,756,793,428,1.39,719.33,2.09,20723.97,427,247,114.41,280,13089,4294956769,491,0.97,0.04,0.25,-2.44,0.69,-0.38,1.59,-73.86,-21.63,-14.46,-2.33,-20.7,-16.84,Relax
19:31.0,790,509,763.5,793,428,1.39,719.33,2.09,20723.97,427,246,114.41,280,13089,4294951749,737,0.97,0.03,0.25,-1.92,1.65,-0.77,1.33,-73.65,-21.73,-14.49,-2.33,-20.81,-16.86,Relax
19:31.0,654,510,765,793,428,1.39,719.33,2.09,20723.97,427,260,114.41,280,13089,4294953813,997,0.98,0.03,0.25,-1.71,0.92,-1.2,1.31,-73.91,-21.82,-14.57,-2.37,-20.9,-16.95,Relax
19:31.1,561,509,763.5,793,429,1.38,722.22,2.1,20723.97,427,276,114.41,280,13089,4294964453,1273,0.97,0.03,0.23,-1.77,1.09,-2.07,1.23,-74.85,-21.92,-14.64,-2.46,-20.99,-17.05,Relax
19:31.2,590,510,765,793,427,1.4,716.44,2.09,20723.97,427,272,114.41,280,13089,5605,1545,0.98,0.03,0.24,-1.24,1.85,-1.82,1.38,-74.7,-21.97,-14.65,-2.54,-21.03,-17.06,Relax
19:31.3,623,512,768,793,428,1.39,719.33,2.09,20723.97,427,279,114.41,280,13089,17910,1824,0.96,0.04,0.25,-1.66,2.08,-1.92,1.44,-73.48,-22.05,-14.65,-2.63,-21.11,-17,Relax
19:31.4,547,513,769.5,793,428,1.39,719.33,2.09,20723.97,427,278,114.41,280,13089,29658,2102,0.97,0.05,0.24,-3.15,1.08,-1.87,2.03,-74.38,-22.25,-14.72,-2.71,-21.28,-17.1,Relax
19:31.4,422,511,766.5,793,428,1.39,719.33,2.09,20723.97,427,279,114.41,280,13089,41963,2381,0.96,0.05,0.25,-1.71,1.31,-0.8,2.1,-73.72,-22.34,-14.77,-2.71,-21.36,-17.13,Relax
19:31.5,398,509,763.5,793,428,1.39,719.33,2.09,20723.98,428,279,73.66,266,5425,0,0,0.97,0.03,0.26,-2.06,0.6,-0.42,1.39,-73.44,-22.45,-14.88,-2.68,-21.49,-17.22,Relax
19:31.6,456,508,762,793,428,1.39,719.33,2.09,20723.98,428,272,73.66,266,5425,8448,272,0.98,0.04,0.25,-1.74,0.36,-0.82,1.9,-73.82,-22.54,-15,-2.69,-21.56,-17.35,Relax
19:31.7,612,510,765,793,428,1.39,719.33,2.09,20723.98,428,269,73.66,266,5425,15273,541,0.96,0.04,0.25,-2.06,1.21,-0.93,1.66,-73.41,-22.65,-15.06,-2.7,-21.68,-17.39,Relax
19:31.7,575,511,766.5,793,428,1.39,719.33,2.09,20723.98,428,269,73.66,266,5425,22098,810,0.98,0.04,0.24,-3.44,0.43,-0.93,1.95,-74.16,-22.87,-15.18,-2.71,-21.87,-17.54,Relax
19:31.8,469,510,765,793,427,1.4,716.44,2.09,20723.98,428,256,73.66,266,5425,22098,1066,0.97,0.03,0.24,-2.6,1.19,-1.22,1.22,-74.21,-23.02,-15.24,-2.74,-22.06,-17.6,Relax
19:31.9,569,509,763.5,793,428,1.39,719.33,2.09,20723.98,428,273,73.66,266,5425,31091,1339,0.98,0.04,0.24,-2.42,0.93,-1.93,1.58,-74.26,-23.17,-15.32,-2.83,-22.18,-17.68,Relax
19:32.0,657,510,765,793,428,1.39,719.33,2.09,20723.98,428,273,73.66,266,5425,40084,1612,0.98,0.05,0.25,-0.89,1.79,-2.46,2.02,-73.59,-23.19,-15.34,-2.95,-22.18,-17.67,Relax
19:32.0,723,511,766.5,793,428,1.39,719.33,2.09,20723.98,428,278,73.66,266,5425,51832,1890,0.96,0.05,0.24,-2.83,-0.03,-1.85,2.09,-74.16,-23.36,-15.49,-3.03,-22.34,-17.84,Relax
19:32.1,638,512,768,793,428,1.39,719.33,2.09,20723.98,428,280,73.66,266,5425,64696,2170,0.97,0.04,0.24,-2,1.47,-1.36,1.76,-74.54,-23.47,-15.53,-3.08,-22.46,-17.89,Relax
19:32.2,547,510,765,793,429,1.38,722.22,2.1,20723.98,428,282,73.66,266,5425,78684,2452,0.96,0.04,0.26,-2.36,0.92,-0.72,1.64,-73.29,-23.61,-15.61,-3.07,-22.6,-17.92,Relax
19:32.3,520,508,762,793,428,1.39,719.33,2.09,20723.98,428,281,95.97,273,9209,0,0,0.97,0.04,0.25,-2.52,0.28,-1.03,1.75,-73.67,-23.76,-15.74,-3.09,-22.74,-18.06,Relax
19:32.3,629,508,762,793,428,1.39,719.33,2.09,20723.98,428,271,95.97,273,9209,7905,271,0.96,0.04,0.24,-1.46,1.86,-1.18,1.86,-74.13,-23.82,-15.75,-3.12,-22.8,-18.09,Relax
19:32.4,715,510,765,793,428,1.39,719.33,2.09,20723.98,428,265,95.97,273,9209,12594,536,0.98,0.04,0.25,-1.92,1.85,-1.04,1.47,-73.66,-23.93,-15.76,-3.14,-22.91,-18.08,Relax
19:32.5,559,512,768,793,428,1.39,719.33,2.09,20723.98,428,269,95.97,273,9209,19419,805,0.97,0.04,0.25,-3.44,-0.12,-1.38,1.83,-73.59,-24.14,-15.93,-3.18,-23.11,-18.23,Relax
19:32.6,451,512,768,793,428,1.39,719.33,2.09,20723.98,428,268,95.97,273,9209,25707,1073,0.97,0.04,0.24,-0.93,1.6,-1.85,1.97,-74.06,-24.17,-15.96,-3.26,-23.13,-18.28,Relax
19:32.6,557,512,768,793,429,1.38,722.22,2.1,20723.98,428,273,95.97,273,9209,34700,1346,0.96,0.04,0.26,-2.86,0.19,-0.58,1.84,-72.94,-24.35,-16.09,-3.25,-23.3,-18.37,Relax
19:32.7,534,512,768,793,428,1.39,719.33,2.09,20723.98,428,279,95.97,273,9209,47005,1625,0.97,0.04,0.24,-3.12,0.61,-0.18,1.72,-74.16,-24.54,-16.2,-3.2,-23.49,-18.52,Relax
19:32.8,563,515,772.5,793,428,1.39,719.33,2.09,20723.98,428,271,95.97,273,9209,54910,1896,0.97,0.03,0.25,-0.55,1.99,-0.15,1.27,-73.89,-24.54,-16.2,-3.15,-23.51,-18.51,Relax
19:32.9,436,516,774,793,429,1.38,722.22,2.1,20723.98,428,278,95.97,273,9209,66658,2174,0.97,0.03,0.26,-1.03,0.56,-0.84,1.33,-73.51,-24.58,-16.31,-3.16,-23.54,-18.6,Relax
19:32.9,403,515,772.5,793,428,1.39,719.33,2.09,20723.98,428,250,95.97,273,9209,63622,2424,0.95,0.04,0.25,1.96,4.04,-0.12,1.59,-73.82,-24.39,-16.15,-3.11,-23.35,-18.46,Relax
19:33.0,491,515,772.5,793,428,1.39,719.33,2.09,20723.99,428,278,86.82,270,7536,0,0,0.97,0.04,0.27,-3.34,-1.24,0.65,1.6,-72.9,-24.59,-16.4,-3,-23.55,-18.66,Relax
19:33.1,437,515,772.5,793,428,1.39,719.33,2.09,20723.99,428,277,86.82,270,7536,11193,277,0.97,0.04,0.23,-2.2,-0.62,-0.15,1.63,-75.21,-24.72,-16.59,-2.95,-23.66,-18.94,Relax
19:33.2,424,516,774,793,428,1.39,719.33,2.09,20723.99,428,278,86.82,270,7536,22941,555,0.98,0.03,0.26,0.05,1.78,-0.83,1.3,-73.53,-24.67,-16.61,-2.95,-23.63,-18.89,Relax
