Datetime, ECGR , AvgECG , ampECG , MAX , GSRR , Resistance , GSR(kohm) , SCL , GSRRMS , GSRMAV , EMGR , EMGRMS , EMGMAV , EMGVAR , EMGSSI , IEMG , AccX , AccY, AccZ , GyroX , GyroY , GyroZ , Aroll , Apitch , Groll , Gpitch, Gy , Combroll , Combpitch,Features
09:02.3,581,505,757.5,1003,261,2.92,342.52,1.28,32.89,258,152,155,155,24024,211301,1379,1,-0.02,0.09,-2.94,-1.98,-3.24,-1.77,-83.09,-20.77,-4.61,-0.51,-20.01,-7.75,Standing
09:02.4,465,505,757.5,1003,261,2.92,342.52,1.28,49.81,260,152,153.1,153,23439,0,0,1.01,-0.03,0.1,-7.18,-0.58,-2.69,-2.07,-82.51,-21.59,-4.93,-0.74,-20.81,-8.04,Standing
09:02.5,402,504,756,1003,261,2.92,342.52,1.28,49.81,260,152,153.1,153,23439,23104,152,1.02,-0.03,0.1,-3.39,0.79,-4.21,-2.13,-82.52,-21.95,-5.08,-1.17,-21.15,-8.18,Standing
09:02.6,577,503,754.5,1003,262,2.9,344.28,1.28,49.81,260,152,153.1,153,23439,46208,304,1,-0.02,0.09,-1.49,-0.54,-3.21,-1.66,-83.29,-22.06,-5.4,-1.47,-21.25,-8.52,Standing
09:02.8,611,501,751.5,1003,263,2.89,346.05,1.29,49.81,260,151,153.1,153,23439,69009,455,1,-0.01,0.09,-0.52,-0.73,-1.39,-1.23,-83.43,-22.06,-5.74,-1.55,-21.22,-8.85,Standing
09:02.9,481,499,748.5,1003,261,2.92,342.52,1.28,49.81,260,151,153.1,153,23439,91810,606,1,-0.01,0.09,-0.05,-0.11,-1.43,-1.12,-83.46,-21.99,-6.01,-1.63,-21.16,-9.11,Standing
09:03.0,374,496,744,1003,262,2.9,344.28,1.28,49.81,260,150,153.1,153,23439,114310,756,1.01,0,0.08,-3.21,1.73,-1.76,-0.46,-83.6,-22.33,-6.04,-1.75,-21.45,-9.14,Standing
09:03.1,555,493,739.5,1003,262,2.9,344.28,1.28,49.81,260,150,153.1,153,23439,136810,906,1,0,0.09,-3.27,0.23,-2.27,-0.82,-83.51,-22.67,-6.26,-1.93,-21.79,-9.35,Standing
09:03.3,619,493,739.5,1003,262,2.9,344.28,1.28,49.81,260,149,153.1,153,23439,159011,1055,1,-0.01,0.09,-2.6,0.25,-0.69,-1.22,-83.14,-22.92,-6.48,-1.92,-22.05,-9.55,Standing
09:03.4,513,488,732,1003,261,2.92,342.52,1.28,49.81,260,150,153.1,153,23439,181511,1205,1.01,-0.01,0.09,-0.94,-0.23,-0.64,-1.42,-83.04,-22.97,-6.76,-1.9,-22.11,-9.81,Standing
09:03.5,276,481,721.5,1003,263,2.89,346.05,1.29,49.81,260,150,153.1,153,23439,204011,1355,1.02,0,0.08,-1.37,-1.6,-1.84,-0.83,-83.85,-23.07,-7.21,-2.03,-22.18,-10.28,Standing
09:03.6,779,479,718.5,779,263,2.89,346.05,1.29,55.75,262,149,150.4,150,22620,0,0,1.01,0,0.07,-2.01,-2.57,-1.73,-0.83,-84.55,-23.25,-7.78,-2.15,-22.35,-10.85,Standing
09:03.8,766,476,714,779,264,2.88,347.83,1.29,55.75,262,152,150.4,150,22620,23104,152,1.01,-0.01,0.07,0.24,-0.56,-1.56,-1.12,-84.68,-23.15,-8.1,-2.25,-22.27,-11.17,Standing
09:03.9,354,471,706.5,779,264,2.88,347.83,1.29,55.75,262,151,150.4,150,22620,45905,303,1.02,0,0.06,0.15,-0.18,-1.81,-0.57,-85.01,-23.06,-8.37,-2.38,-22.16,-11.44,Standing
09:04.0,350,467,700.5,779,266,2.85,351.39,1.3,55.75,262,150,150.4,150,22620,68405,453,1.03,0,0.07,-0.23,2.29,-2.47,-0.39,-84.67,-23.02,-8.34,-2.58,-22.12,-11.39,Standing
09:04.1,666,470,705,779,265,2.86,349.6,1.3,55.75,262,149,150.4,150,22620,90606,602,1.02,0,0.08,-2.77,3.65,-1.76,-0.4,-84.2,-23.3,-8.13,-2.7,-22.38,-11.18,Standing
09:04.3,750,474,711,750,265,2.86,349.6,1.3,55.75,262,149,150.4,150,22620,112807,751,1.01,0,0.06,-2.99,2.15,-1.18,-0.33,-84.79,-23.6,-8.11,-2.75,-22.67,-11.18,Standing
09:04.4,304,474,711,750,265,2.86,349.6,1.3,55.75,262,148,150.4,150,22620,134711,899,1,0,0.07,-2.09,0.3,-0.84,-0.48,-84.31,-23.79,-8.33,-2.76,-22.86,-11.37,Standing
09:04.5,229,475,712.5,750,267,2.83,353.17,1.3,55.75,262,151,150.4,150,22620,157512,1050,1.01,0,0.07,-1.01,0.53,-1.61,-0.32,-84.31,-23.85,-8.51,-2.86,-22.91,-11.55,Standing
09:04.6,647,478,717,750,268,2.82,354.97,1.31,55.75,262,150,150.4,150,22620,180012,1200,1.02,0.01,0.06,-3.14,-0.95,-1.91,-0.22,-85.14,-24.17,-8.88,-3,-23.21,-11.93,Standing
09:04.8,854,485,727.5,854,270,2.79,358.57,1.32,55.75,262,150,150.4,150,22620,202512,1350,1.02,0,0.06,-5.14,-0.16,-1.69,-0.39,-84.99,-24.74,-9.15,-3.11,-23.77,-12.19,Standing
09:04.9,407,488,732,854,268,2.82,354.97,1.31,73.01,266,149,149.9,149,22470,0,0,1.01,-0.01,0.06,-4.86,-1.83,-1.11,-1,-85.01,-25.28,-9.63,-3.15,-24.3,-12.64,Standing
09:05.0,222,490,735,854,267,2.83,353.17,1.3,73.01,266,148,149.9,149,22470,21904,148,1.01,0.01,0.06,-3.37,-0.4,-0.81,-0.22,-84.89,-25.63,-9.93,-3.16,-24.61,-12.93,Standing
09:05.1,451,494,741,854,267,2.83,353.17,1.3,73.01,266,149,149.9,149,22470,44105,297,1,0.01,0.05,-1.61,1.07,-1.09,-0.13,-85.43,-25.76,-10.05,-3.19,-24.74,-13.06,Standing
09:05.3,634,501,751.5,854,266,2.85,351.39,1.3,73.01,266,147,149.9,149,22470,65714,444,1,0.02,0.04,-1.89,-2.39,-4.05,0.55,-85.92,-25.93,-10.6,-3.6,-24.87,-13.61,Standing
09:05.4,382,505,757.5,854,264,2.88,347.83,1.29,73.01,266,147,149.9,149,22470,87323,591,1.03,0,0.05,-3.13,-1.02,-4.35,-0.39,-85.67,-26.25,-10.97,-4.05,-25.21,-13.96,Standing
09:05.5,244,507,760.5,854,266,2.85,351.39,1.3,73.01,266,148,149.9,149,22470,109227,739,1,0.02,0.04,-5.34,-0.53,-0.96,0.66,-85.72,-26.85,-11.29,-4.07,-25.75,-14.27,Standing
09:05.6,617,513,769.5,854,268,2.82,354.97,1.31,73.01,266,148,149.9,149,22470,131131,887,1.02,0.01,0.06,-2.58,1.7,-0.28,-0.18,-85.19,-27.1,-11.33,-4,-26.02,-14.28,Standing
09:05.8,938,521,781.5,938,268,2.82,354.97,1.31,73.01,266,147,149.9,149,22470,152740,1034,1.01,0.02,0.05,0.36,1.74,-0.34,0.55,-85.5,-26.98,-11.36,-3.95,-25.88,-14.32,Standing
09:05.9,376,521,781.5,938,269,2.8,356.76,1.31,73.01,266,147,149.9,149,22470,174349,1181,1.02,0.02,0.05,-0.18,1.72,-0.84,0.66,-85.38,-26.94,-11.39,-3.95,-25.83,-14.35,Standing
09:06.0,285,519,778.5,938,269,2.8,356.76,1.31,73.01,266,147,149.9,149,22470,195958,1328,1.02,0.01,0.05,-3.59,0.58,-0.8,-0.09,-85.56,-27.31,-11.57,-3.95,-26.22,-14.53,Standing
09:06.1,651,519,778.5,938,268,2.82,354.97,1.31,76.56,267,146,147.4,147,21726,0,0,1.01,0.01,0.04,-3.6,1.06,-1.44,-0.13,-85.87,-27.69,-11.69,-4.03,-26.59,-14.65,Standing
09:06.3,888,520,780,888,268,2.82,354.97,1.31,76.56,267,147,147.4,147,21726,21609,147,1.01,0.01,0.05,-1.57,1.24,-1.36,0.18,-85.62,-27.82,-11.78,-4.11,-26.7,-14.74,Standing
09:06.4,379,516,774,888,269,2.8,356.76,1.31,76.56,267,146,147.4,147,21726,42925,293,1.02,0.02,0.04,-0.67,1.56,-1.31,0.29,-85.99,-27.83,-11.84,-4.17,-26.7,-14.8,Standing
09:06.5,232,508,762,888,269,2.8,356.76,1.31,76.56,267,146,147.4,147,21726,64241,439,1.01,0.02,0.05,-0.13,1.42,-1.13,0.65,-85.49,-27.78,-11.91,-4.21,-26.64,-14.85,Standing
09:06.6,778,506,759,778,268,2.82,354.97,1.31,76.56,267,146,147.4,147,21726,85557,585,1.01,0.02,0.04,-1.95,1.98,-1.16,0.75,-85.68,-27.95,-11.91,-4.26,-26.8,-14.86,Standing
09:06.8,819,504,756,819,267,2.83,353.17,1.3,76.56,267,146,147.4,147,21726,106873,731,1.02,0.01,0.05,-2.32,1,-1.4,-0.11,-85.38,-28.17,-12.04,-4.34,-27.05,-14.97,Standing
09:06.9,435,499,748.5,819,269,2.8,356.76,1.31,76.56,267,145,147.4,147,21726,127898,876,1.01,0.01,0.06,-1.5,2.01,-0.36,0.1,-85.07,-28.29,-12.04,-4.28,-27.15,-14.96,Standing
09:07.0,216,497,745.5,819,269,2.8,356.76,1.31,76.56,267,145,147.4,147,21726,148923,1021,1.02,0.02,0.05,-0.33,1.69,-0.72,0.31,-85.25,-28.26,-12.07,-4.27,-27.11,-15,Standing
09:07.1,456,500,750,819,270,2.79,358.57,1.32,76.56,267,146,147.4,147,21726,170239,1167,1.01,0.02,0.05,-1.49,2.05,-1.46,0.48,-85.26,-28.37,-12.07,-4.36,-27.22,-14.99,Standing
09:07.3,792,505,757.5,792,270,2.79,358.57,1.32,76.56,267,145,147.4,147,21726,191264,1312,1.02,0.01,0.04,-3.3,-0.56,-1.01,-0.18,-86.09,-28.72,-12.39,-4.39,-27.58,-15.34,Standing
09:07.4,450,509,763.5,792,271,2.77,360.37,1.32,82.62,269,144,145.6,145,21199,0,0,1,0.01,0.06,-2.09,-0.35,-0.91,0.16,-85.07,-28.91,-12.68,-4.4,-27.74,-15.57,Standing
09:07.5,169,510,765,792,271,2.77,360.37,1.32,82.62,269,146,145.6,145,21199,21316,146,1.01,0.01,0.04,-2.69,0,-0.85,0.1,-85.94,-29.17,-12.93,-4.41,-28,-15.85,Standing
09:07.6,413,511,766.5,792,270,2.79,358.57,1.32,82.62,269,145,145.6,145,21199,42341,291,1.01,0.01,0.03,-2.98,-3.54,0.88,0.07,-86.4,-29.47,-13.62,-4.2,-28.29,-16.53,Standing
09:07.8,785,515,772.5,785,271,2.77,360.37,1.32,82.62,269,146,145.6,145,21199,63657,437,1.02,0.01,0.05,-4.4,-2.44,0.76,-0.08,-85.61,-29.95,-14.17,-4.01,-28.76,-17.03,Standing
09:07.9,662,517,775.5,785,274,2.73,365.82,1.34,82.62,269,145,145.6,145,21199,84682,582,1.01,0,0.02,-4.46,-1.03,-1.11,-0.43,-87.23,-30.44,-14.55,-4.05,-29.24,-17.46,Standing
09:08.0,213,513,769.5,785,274,2.73,365.82,1.34,82.62,269,145,145.6,145,21199,105707,727,1.01,-0.01,0.02,-2.2,-1.96,0.46,-0.95,-87.05,-30.65,-15.04,-3.89,-29.46,-17.93,Standing
09:08.1,420,510,765,785,271,2.77,360.37,1.32,82.62,269,142,145.6,145,21199,125871,869,1.03,0,0.02,0.67,-5.45,-7.09,-0.67,-87.15,-30.49,-15.98,-4.69,-29.3,-18.83,Standing
09:08.3,696,511,766.5,785,273,2.75,364,1.33,82.62,269,143,145.6,145,21199,146320,1012,1.04,0.01,-0.02,4.8,-4.21,-3.91,-0.04,-87.35,-29.82,-16.76,-5.08,-28.63,-19.58,Standing
09:08.4,467,509,763.5,785,271,2.77,360.37,1.32,82.62,269,143,145.6,145,21199,166769,1155,0.99,0.02,0.01,2.41,0.6,-7.5,0.69,-86.94,-29.45,-16.94,-5.92,-28.24,-19.74,Standing
09:08.5,352,505,757.5,785,272,2.76,362.18,1.33,82.62,269,143,145.6,145,21199,187218,1298,1.01,0.03,-0.01,0.02,1.3,-4.71,1.27,-86.42,-29.37,-17.02,-6.41,-28.15,-19.8,Standing
09:08.6,487,501,751.5,785,273,2.75,364,1.33,91.92,272,144,144.2,144,20794,0,0,1.01,0.04,0,-1.05,0.5,-0.79,1.43,-86.41,-29.43,-17.21,-6.41,-28.2,-19.98,Standing
09:08.8,936,503,754.5,936,272,2.76,362.18,1.33,91.92,272,144,144.2,144,20794,20736,144,1.01,0.02,0.01,-4.03,0.6,2.34,0.45,-87.2,-29.87,-17.38,-6.02,-28.66,-20.18,Standing
09:08.9,696,503,754.5,936,271,2.77,360.37,1.32,91.92,272,142,144.2,144,20794,40900,286,1.03,0.03,0,-4.85,-1.64,-0.58,1.27,-86.57,-30.4,-17.84,-5.99,-29.13,-20.58,Standing
09:09.0,531,499,748.5,936,271,2.77,360.37,1.32,91.92,272,143,144.2,144,20794,61349,429,0.98,0.01,0.01,-4.16,2.03,1.36,-0.08,-87.64,-30.85,-17.83,-5.72,-29.62,-20.62,Standing
09:09.1,562,498,747,936,274,2.73,365.82,1.34,91.92,272,143,144.2,144,20794,81798,572,1.13,0.01,-0.04,-6.31,6.12,1.94,-0.01,-86.45,-31.57,-17.32,-5.38,-30.31,-20.08,Standing
09:09.3,911,504,756,911,276,2.71,369.48,1.35,91.92,272,143,144.2,144,20794,102247,715,1,0.01,0.08,-4.94,6.83,-1.11,-0.09,-83.88,-32.12,-16.71,-5.42,-30.84,-19.4,Standing
09:09.4,757,510,765,911,275,2.72,367.65,1.34,91.92,272,143,144.2,144,20794,122696,858,1.01,0.01,0.07,-0.09,9.18,-3.88,-0.22,-84.67,-32.06,-15.82,-5.81,-30.79,-18.57,Standing
09:09.5,319,510,765,911,274,2.73,365.82,1.34,91.92,272,142,144.2,144,20794,142860,1000,1.01,0.02,0.08,0.87,4.27,-2.56,0.43,-84.01,-31.88,-15.53,-6.03,-30.59,-18.27,Standing
09:09.6,345,511,766.5,911,275,2.72,367.65,1.34,91.92,272,142,144.2,144,20794,163024,1142,1.01,0.02,0.07,5.56,2.71,-1.95,0.59,-84.27,-31.12,-15.44,-6.17,-29.85,-18.2,Standing
09:09.8,879,516,774,879,291,2.52,397.54,1.42,91.92,272,165,144.2,144,20794,190249,1307,1.02,0.04,0.07,3.3,1.96,-1.18,1.47,-84.01,-30.63,-15.45,-6.22,-29.35,-18.19,Standing
09:09.9,999,523,784.5,999,304,2.37,422.81,1.49,109.63,278,157,146.59,146,21488,0,0,1,0.03,0.07,-0.3,2.32,0.27,1.35,-83.89,-30.6,-15.41,-6.09,-29.32,-18.15,Standing
09:10.0,647,524,786,999,290,2.53,395.63,1.42,109.63,278,144,146.59,146,21488,20736,144,1,0.03,0.09,-4.65,2.74,-0.7,1.3,-83.1,-31.11,-15.32,-6.08,-29.81,-18.03,Standing
09:10.1,5,519,778.5,999,279,2.67,375,1.36,109.63,278,142,146.59,146,21488,40900,286,1.01,0.02,0.09,-3.91,0.98,-0.4,0.49,-83.45,-31.53,-15.45,-6.03,-30.25,-18.17,Standing
09:10.3,247,512,768,999,273,2.75,364,1.33,109.63,278,142,146.59,146,21488,61064,428,1,0.02,0.07,-1.22,0.84,-0.54,0.59,-83.99,-31.61,-15.59,-6,-30.32,-18.33,Standing
09:10.4,235,507,760.5,999,270,2.79,358.57,1.32,109.63,278,141,146.59,146,21488,80945,569,1.01,0.03,0.08,-0.73,1.69,-0.89,0.94,-83.74,-31.63,-15.63,-6.01,-30.33,-18.35,Standing
09:10.5,71,508,762,999,269,2.8,356.76,1.31,109.63,278,141,146.59,146,21488,100826,710,1,0.03,0.09,-1.23,-0.56,-0.77,0.88,-83.09,-31.72,-15.95,-6.01,-30.41,-18.64,Standing
09:10.6,12,505,757.5,999,269,2.8,356.76,1.31,109.63,278,142,146.59,146,21488,120990,852,1.01,0.02,0.09,-1.34,1.25,-1.48,0.47,-83.36,-31.81,-16.04,-6.1,-30.52,-18.74,Standing
09:10.8,468,510,765,999,268,2.82,354.97,1.31,109.63,278,141,146.59,146,21488,140871,993,1.01,0.02,0.09,1.13,3.39,-1.21,0.3,-83.16,-31.6,-15.87,-6.15,-30.32,-18.56,Standing
09:10.9,558,513,769.5,999,267,2.83,353.17,1.3,109.63,278,140,146.59,146,21488,160471,1133,1,0.03,0.08,1.63,2.89,-0.15,1.01,-83.72,-31.33,-15.76,-6.07,-30.03,-18.47,Standing
09:11.0,316,512,768,999,267,2.83,353.17,1.3,109.63,278,141,146.59,146,21488,180352,1274,1.01,0.02,0.09,1.27,0.97,-2.86,0.59,-83.21,-31.1,-15.88,-6.33,-29.83,-18.58,Standing
09:11.1,350,509,763.5,999,266,2.85,351.39,1.3,91.59,271,140,141.4,141,19994,0,0,1,0.03,0.09,2.29,0.23,-4.24,1.11,-83.05,-30.75,-16.1,-6.75,-29.47,-18.78,Standing
09:11.3,454,509,763.5,999,265,2.86,349.6,1.3,91.59,271,140,141.4,141,19994,19600,140,1,0.04,0.09,2.36,-0.66,-3.04,1.95,-82.57,-30.38,-16.44,-7.03,-29.09,-19.08,Standing
09:11.4,581,512,768,999,266,2.85,351.39,1.3,91.59,271,140,141.4,141,19994,39200,280,0.99,0.03,0.09,3.98,-3.92,-4.12,1.03,-83.1,-29.82,-17.17,-7.45,-28.59,-19.81,Standing
09:11.5,535,513,769.5,999,266,2.85,351.39,1.3,91.59,271,141,141.4,141,19994,59081,421,1.02,0.05,0.04,-1.51,5.44,3.34,2.36,-84.59,-29.94,-16.74,-6.93,-28.65,-19.45,Standing
09:11.6,488,510,765,999,267,2.83,353.17,1.3,91.59,271,141,141.4,141,19994,78962,562,1.01,0.05,0.06,-5.71,-2.08,1.53,2.53,-83.65,-30.58,-17.25,-6.64,-29.26,-19.91,Standing
09:11.8,436,508,762,999,268,2.82,354.97,1.31,91.59,271,142,141.4,141,19994,99126,704,1.03,0.04,0.06,-7.6,-6.99,-2.05,1.79,-84.2,-31.46,-18.37,-6.8,-30.13,-21.01,Standing
09:11.9,887,513,769.5,887,269,2.8,356.76,1.31,91.59,271,142,141.4,141,19994,119290,846,1.03,0.04,0.06,-3.6,3.42,-4.01,1.63,-84.41,-31.84,-18.2,-7.2,-30.5,-20.85,Standing
09:12.0,442,511,766.5,887,268,2.82,354.97,1.31,91.59,271,140,141.4,141,19994,138890,986,0.99,0.05,0.05,-1.09,8.4,-2.69,2.15,-84.39,-31.91,-17.4,-7.44,-30.55,-20.08,Standing
09:12.1,357,506,759,887,268,2.82,354.97,1.31,91.59,271,140,141.4,141,19994,158490,1126,1.02,0.05,0.08,-3.36,-3.02,0.95,2.12,-83.34,-32.26,-18.03,-7.22,-30.88,-20.64,Standing
09:12.3,401,506,759,887,268,2.82,354.97,1.31,91.59,271,140,141.4,141,19994,178090,1266,1.02,0.04,0.07,-3.96,-0.42,-3.84,1.91,-83.76,-32.69,-18.33,-7.6,-31.3,-20.95,Standing
09:12.4,810,512,768,810,270,2.79,358.57,1.32,77.6,267,142,140.8,140,19824,0,0,1.01,0.04,0.08,-4.05,-0.27,-1.34,1.49,-83.25,-33.12,-18.61,-7.67,-31.74,-21.2,Standing
09:12.5,647,514,771,810,271,2.77,360.37,1.32,77.6,267,141,140.8,140,19824,19881,141,1.01,0.05,0.06,-2.11,-0.42,0.02,2.08,-84.18,-33.32,-18.91,-7.57,-31.9,-21.53,Standing
09:12.6,434,509,763.5,810,270,2.79,358.57,1.32,77.6,267,140,140.8,140,19824,39481,281,0.99,0.04,0.07,-2.7,-1.56,4.42,1.6,-83.73,-33.58,-19.36,-6.92,-32.18,-21.94,Standing
09:12.8,289,506,759,810,269,2.8,356.76,1.31,77.6,267,139,140.8,140,19824,58802,420,1.01,0.04,0.04,-5.31,1.82,1.98,1.55,-85.42,-34.18,-19.38,-6.57,-32.75,-22.02,Standing
09:12.9,633,511,766.5,810,269,2.8,356.76,1.31,77.6,267,139,140.8,140,19824,78123,559,1.01,0.02,0.05,-7.23,-2.34,-1.08,0.69,-85.22,-35,-19.92,-6.61,-33.57,-22.53,Standing
09:13.0,596,513,769.5,810,269,2.8,356.76,1.31,77.6,267,138,140.8,140,19824,97167,697,1.01,0.03,0.06,-6.75,-4.23,-3.05,0.91,-84.88,-35.77,-20.7,-6.89,-34.3,-23.26,Standing
09:13.1,227,505,757.5,810,270,2.79,358.57,1.32,77.6,267,141,140.8,140,19824,117048,838,1.02,0,0.03,2.32,-0.3,-9.9,-0.7,-86.46,-35.41,-20.99,-8.04,-34.02,-23.6,Standing
09:13.3,440,503,754.5,810,272,2.76,362.18,1.33,77.6,267,141,140.8,140,19824,136929,979,1,0.04,0.04,4.08,-3.58,-5.6,1.66,-85.36,-34.83,-21.68,-8.64,-33.37,-24.23,Standing
09:26.3,271,271,406.5,271,280,2.65,376.85,1.37,0,0,132,0,0,0,35113,265,1.16,0.07,-0.09,-8.05,-11.83,-48.57,2.94,-82.78,-2.04,-2.23,-7.87,-1.84,-5.45,Left Fall while Standing
09:26.4,93,182,273,271,278,2.68,373.15,1.36,0,0,130,0,0,0,52013,395,1.03,0.12,-0.07,-7.68,-21.5,-52.6,5.97,-80.73,-2.91,-5.1,-14.19,-2.55,-8.12,Left Fall while Standing
09:26.5,316,226,339,316,278,2.68,373.15,1.36,0,0,132,0,0,0,69437,527,0.93,0.21,-0.17,-0.32,-17.73,-36.19,12.06,-72.01,-2.88,-7.54,-18.58,-2.28,-10.12,Left Fall while Standing
09:26.6,467,286,429,467,280,2.65,376.85,1.37,0,0,134,0,0,0,87393,661,0.93,0.4,-0.15,-5.9,-18.75,-64.42,22.41,-63.82,-3.54,-10.09,-26.41,-2.5,-12.24,Left Fall while Standing
09:26.8,821,393,589.5,821,286,2.58,388.06,1.4,0,0,135,0,0,0,105618,796,0.84,0.61,-0.03,-18.85,-11.17,-42.86,35.55,-52.25,-5.81,-11.73,-31.62,-4.15,-13.35,Left Fall while Standing
09:26.9,525,415,622.5,821,282,2.63,380.57,1.38,0,0,134,0,0,0,123574,930,0.83,0.62,-0.1,-17.06,0.51,-42.7,36.18,-51.16,-7.85,-11.91,-36.82,-6.09,-13.48,Left Fall while Standing
09:27.0,696,455,682.5,821,281,2.64,378.71,1.37,0,0,135,0,0,0,141799,1065,0.71,0.66,-0.11,-12.57,1.82,-37.7,41.65,-45.45,-9.34,-11.93,-41.4,-7.3,-13.27,Left Fall while Standing
09:27.2,462,456,684,821,282,2.63,380.57,1.38,0,0,133,0,0,0,159488,1198,0.72,0.68,-0.1,1.43,3.11,-24.36,42.68,-44.59,-9.1,-11.8,-44.3,-7.03,-13.11,Left Fall while Standing
09:27.3,469,457,685.5,821,280,2.65,376.85,1.37,115.16,280,133,133.11,133,17716,0,0,0.7,0.68,-0.15,14.97,5.64,-6.26,42.82,-43.67,-7.17,-11.35,-44.97,-5.17,-12.64,Left Fall while Standing
09:27.4,976,509,763.5,976,279,2.67,375,1.36,115.16,280,134,133.11,133,17716,17956,134,0.64,0.74,-0.21,19.85,3.57,-6.15,47.14,-38.12,-4.62,-11.15,-45.64,-2.55,-12.23,Left Fall while Standing
09:27.5,862,541,811.5,976,281,2.64,378.71,1.37,115.16,280,134,133.11,133,17716,35912,268,0.68,0.72,-0.17,10.57,3.55,-7.28,45.49,-40.72,-3.23,-10.96,-46.46,-1.28,-12.15,Left Fall while Standing
09:27.7,57,501,751.5,976,279,2.67,375,1.36,115.16,280,132,133.11,133,17716,53336,400,0.57,0.76,-0.14,15.19,12.13,-3.1,51.59,-34.98,-1.26,-9.69,-46.74,0.86,-10.7,Left Fall while Standing
09:27.8,0,462,693,976,277,2.69,371.31,1.35,115.16,280,129,133.11,133,17716,69977,529,0.69,0.81,-0.23,-7.81,-6.6,-6.26,47.41,-37.93,-2.16,-10.77,-47.43,-0.18,-11.85,Left Fall while Standing
09:27.9,445,461,691.5,976,277,2.69,371.31,1.35,115.16,280,132,133.11,133,17716,87401,661,0.6,0.7,-0.2,-12.14,-4.18,-1.47,47.39,-37.86,-3.61,-11.54,-47.51,-1.57,-12.59,Left Fall while Standing
09:28.0,589,469,703.5,976,276,2.71,369.48,1.35,115.16,280,132,133.11,133,17716,104825,793,0.67,0.74,-0.23,10.58,-5.6,-2.49,45.59,-39.27,-2.21,-12.5,-47.73,-0.3,-13.57,Left Fall while Standing
09:28.2,487,471,706.5,976,277,2.69,371.31,1.35,115.16,280,132,133.11,133,17716,122249,925,0.75,0.69,-0.29,22.63,0.38,25.84,39.85,-43.54,0.71,-12.7,-44.37,2.28,-13.93,Left Fall while Standing
09:28.3,353,464,696,976,275,2.72,367.65,1.34,115.16,280,130,133.11,133,17716,139149,1055,0.71,0.63,-0.26,15.31,16,27.63,39.17,-44.64,2.7,-10.95,-40.82,4.16,-12.3,Left Fall while Standing
09:28.4,472,464,696,976,276,2.71,369.48,1.35,115.16,280,132,133.11,133,17716,156573,1187,0.79,0.6,-0.21,13.5,15.66,14.25,35.66,-49.59,4.46,-9.24,-38.94,5.7,-10.86,Left Fall while Standing
09:28.5,816,483,724.5,976,277,2.69,371.31,1.35,106.85,277,132,131.91,131,17398,0,0,0.78,0.59,-0.29,9.07,12.34,-3.4,34.96,-48.13,5.65,-7.96,-39.26,6.82,-9.57,Left Fall while Standing
09:28.6,575,487,730.5,976,278,2.68,373.15,1.36,106.85,277,132,131.91,131,17398,17424,132,0.77,0.6,-0.3,1.76,-1.81,-3.45,35.43,-47.27,5.94,-8.43,-39.6,7.12,-9.99,Left Fall while Standing
09:28.8,214,474,711,976,279,2.67,375,1.36,106.85,277,134,131.91,131,17398,35380,266,0.74,0.62,-0.35,-3.19,-13.84,-1.17,36.48,-44.52,5.62,-10.38,-39.64,6.85,-11.75,Left Fall while Standing
09:28.9,609,480,720,976,281,2.64,378.71,1.37,106.85,277,135,131.91,131,17398,53605,401,0.78,0.62,-0.28,-9.08,-5.98,6.44,36.37,-47.11,4.55,-11.38,-38.74,5.82,-12.81,Left Fall while Standing
09:29.0,988,502,753,988,280,2.65,376.85,1.37,106.85,277,133,131.91,131,17398,71294,534,0.76,0.57,-0.29,-4.02,-2.64,11.12,34.58,-48.42,4.12,-11.96,-37.25,5.34,-13.42,Left Fall while Standing
09:29.1,716,511,766.5,988,279,2.67,375,1.36,106.85,277,133,131.91,131,17398,88983,667,0.76,0.57,-0.29,5.37,3.37,8.91,34.38,-48.42,4.86,-11.79,-36.04,6.04,-13.25,Left Fall while Standing
09:29.3,143,496,744,988,277,2.69,371.31,1.35,106.85,277,132,131.91,131,17398,106407,799,0.8,0.6,-0.35,-8.42,-2.83,13.21,33.88,-47.46,3.88,-12.39,-34.29,5.08,-13.8,Left Fall while Standing
09:29.4,271,488,732,988,277,2.69,371.31,1.35,106.85,277,133,131.91,131,17398,124096,932,0.8,0.49,-0.34,-1.66,2.89,24.22,28.81,-51.88,3.74,-12.28,-31.16,4.74,-13.87,Left Fall while Standing
09:29.5,766,498,747,988,276,2.71,369.48,1.35,106.85,277,133,131.91,131,17398,141785,1065,0.87,0.42,-0.31,7.78,-4.84,51.47,23.72,-57.49,4.78,-13.14,-24.63,5.54,-14.91,Left Fall while Standing
09:29.7,623,502,753,988,276,2.71,369.48,1.35,106.85,277,133,131.91,131,17398,159474,1198,0.93,0.31,-0.3,22.62,3.44,49.22,17.05,-63.38,7.7,-12.96,-18.33,8.08,-14.97,Left Fall while Standing
09:29.8,0,485,727.5,988,277,2.69,371.31,1.35,108.4,278,134,133.2,133,17742,0,0,0.97,0.28,-0.33,20.15,5.32,45.47,14.7,-64.54,10.25,-12.55,-12.64,10.43,-14.63,Left Fall while Standing
09:29.9,37,470,705,988,277,2.69,371.31,1.35,108.4,278,133,133.2,133,17742,17689,133,0.99,0.15,-0.35,10.32,19.44,53.63,7.39,-67.46,11.61,-10.37,-5.83,11.44,-12.65,Left Fall while Standing
09:30.0,604,474,711,988,279,2.67,375,1.36,108.4,278,134,133.2,133,17742,35645,267,0.97,0.02,-0.33,1.6,11.13,50.84,0.54,-69.6,11.88,-9.23,0.62,11.43,-11.64,Left Fall while Standing
09:30.1,989,491,736.5,989,280,2.65,376.85,1.37,108.4,278,136,133.2,133,17742,54141,403,1.06,-0.05,-0.33,-6.17,10.59,3.53,-3.24,-71.01,11.18,-8.15,1.16,10.6,-10.67,Left Fall while Standing
09:30.3,418,488,732,989,277,2.69,371.31,1.35,108.4,278,134,133.2,133,17742,72097,537,1.01,-0.05,-0.28,-7.82,10.31,-6.31,-3.57,-72.46,10.27,-7.11,0.47,9.72,-9.73,Left Fall while Standing
09:30.4,218,480,720,989,275,2.72,367.65,1.34,108.4,278,132,133.2,133,17742,89521,669,0.99,-0.09,-0.24,-2.83,5.55,2.34,-5.49,-73.73,9.99,-6.68,0.86,9.37,-9.36,Left Fall while Standing
09:30.5,500,481,721.5,989,277,2.69,371.31,1.35,108.4,278,133,133.2,133,17742,107210,802,1.02,-0.06,-0.26,-7.57,9.58,-3.18,-3.99,-73.68,9.12,-5.73,0.56,8.59,-8.45,Left Fall while Standing
09:30.6,996,495,742.5,996,278,2.68,373.15,1.36,108.4,278,134,133.2,133,17742,125166,936,1,-0.04,-0.29,-11.73,8.82,1.6,-2.91,-72.23,7.73,-4.88,0.85,7.31,-7.58,Left Fall while Standing
09:30.8,797,503,754.5,996,281,2.64,378.71,1.37,108.4,278,139,133.2,133,17742,144487,1075,1,-0.05,-0.2,-9.68,4.67,-3.93,-3.44,-76.94,6.59,-4.55,0.46,6.19,-7.44,Left Fall while Standing
09:30.9,478,503,754.5,996,285,2.59,386.18,1.39,108.4,278,138,133.2,133,17742,163531,1213,1.02,-0.04,-0.21,-10.22,5.63,-6.05,-2.66,-76.45,5.38,-4.1,-0.2,5.06,-6.99,Left Fall while Standing
09:31.0,332,498,747,996,283,2.61,382.43,1.38,111.47,279,138,135.12,135,18256,0,0,1.02,-0.03,-0.21,-8.02,2.15,-5.85,-2.21,-76.8,4.46,-4.08,-0.82,4.2,-6.99,Left Fall while Standing
09:31.1,665,502,753,996,282,2.63,380.57,1.38,111.47,279,138,135.12,135,18256,19044,138,1.01,-0.01,-0.21,-8.24,1.76,-3.02,-1.08,-76.56,3.5,-4.11,-1.1,3.32,-7.01,Left Fall while Standing
09:31.3,919,513,769.5,996,284,2.6,384.3,1.39,111.47,279,141,135.12,135,18256,38925,279,1.02,0.01,-0.21,-8.53,1.4,-3.5,0.11,-76.84,2.52,-4.18,-1.43,2.42,-7.09,Left Fall while Standing
09:31.4,657,516,774,996,288,2.55,391.84,1.41,111.47,279,139,135.12,135,18256,58246,418,1.01,0.02,-0.2,-11.02,1.53,-3.1,0.44,-77.13,1.21,-4.24,-1.72,1.18,-7.16,Left Fall while Standing
09:31.5,201,509,763.5,996,288,2.55,391.84,1.41,111.47,279,139,135.12,135,18256,77567,557,1.01,0,-0.19,-6.41,2.5,-2.69,-0.44,-77.69,0.48,-4.18,-1.96,0.45,-7.12,Left Fall while Standing
09:31.6,219,502,753,996,288,2.55,391.84,1.41,111.47,279,139,135.12,135,18256,96888,696,1.01,0.01,-0.19,-1.64,1.13,-2.56,-0.01,-77.63,0.35,-4.29,-2.18,0.33,-7.22,Left Fall while Standing
09:31.8,541,503,754.5,996,286,2.58,388.06,1.4,111.47,279,139,135.12,135,18256,116209,835,1.01,0.01,-0.19,-2.18,-0.87,-0.05,0.16,-77.45,0.15,-4.64,-2.08,0.15,-7.56,Left Fall while Standing
09:31.9,833,510,765,996,287,2.56,389.95,1.4,111.47,279,140,135.12,135,18256,135809,975,1.01,0.02,-0.2,-1.8,-0.49,-1.25,0.46,-77.29,-0.01,-4.95,-2.14,0.01,-7.84,Left Fall while Standing
09:32.0,367,507,760.5,996,287,2.56,389.95,1.4,111.47,279,138,135.12,135,18256,154853,1113,1.01,0.02,-0.2,-2.63,-0.22,-1.67,0.46,-77.3,-0.26,-5.23,-2.25,-0.24,-8.11,Left Fall while Standing
09:32.1,81,498,747,996,285,2.59,386.18,1.39,111.47,279,137,135.12,135,18256,173622,1250,1.01,0.02,-0.2,-2.04,0.81,-1.44,0.66,-77.21,-0.45,-5.38,-2.33,-0.41,-8.25,Left Fall while Standing
09:32.3,450,497,745.5,996,286,2.58,388.06,1.4,127.75,286,139,138.9,138,19293,0,0,1.01,0.01,-0.2,-1.95,0.76,-1.44,0.09,-77.05,-0.62,-5.53,-2.41,-0.59,-8.39,Left Fall while Standing
09:32.4,742,502,753,996,285,2.59,386.18,1.39,127.75,286,138,138.9,138,19293,19044,138,1.01,0.02,-0.21,-0.42,0.59,-0.2,0.56,-76.45,-0.6,-5.71,-2.34,-0.56,-8.54,Left Fall while Standing
09:32.5,947,511,766.5,996,290,2.53,395.63,1.42,127.75,286,144,138.9,138,19293,39780,282,1.01,0.02,-0.22,-0.5,0.11,-0.89,0.28,-76.18,-0.6,-5.94,-2.35,-0.56,-8.75,Left Fall while Standing
09:42.8,613,613,919.5,613,293,2.49,401.37,1.43,0,0,160,0,0,0,51521,321,1.01,-0.12,-0.17,17.56,-3.71,15.5,-7.21,-76.89,3.55,-0.85,3.38,3.12,-3.89,Right Fall while Standing
09:42.9,592,602,903,613,292,2.5,399.45,1.43,0,0,159,0,0,0,76802,480,0.98,-0.11,-0.2,-10.85,-13.31,22.15,-7.09,-75.02,2.29,-2.72,6.18,1.92,-5.61,Right Fall while Standing
09:43.0,394,533,799.5,613,289,2.54,393.73,1.41,0,0,157,0,0,0,101451,637,1,-0.19,-0.21,-18.6,6.85,11.05,-10.95,-72.87,0.07,-2.12,7.63,-0.37,-4.95,Right Fall while Standing
09:43.2,383,495,742.5,613,288,2.55,391.84,1.41,0,0,156,0,0,0,125787,793,1.03,-0.18,-0.19,-25.07,1.36,5.47,-10.11,-74.42,-2.94,-2.2,8.4,-3.23,-5.09,Right Fall while Standing
09:43.3,494,495,742.5,613,289,2.54,393.73,1.41,0,0,156,0,0,0,150123,949,0.82,-0.32,-0.17,-22.92,0.94,32.44,-21.61,-64.48,-5.69,-2.33,12.49,-6.33,-4.82,Right Fall while Standing
09:43.4,457,488,732,613,290,2.53,395.63,1.42,0,0,158,0,0,0,175087,1107,0.91,-0.44,-0.25,5.67,-10.82,55.66,-25.3,-59.69,-4.92,-3.92,19.49,-5.73,-6.15,Right Fall while Standing
09:43.5,619,507,760.5,619,292,2.5,399.45,1.43,0,0,158,0,0,0,200051,1265,0.97,-0.47,-0.24,4.63,19.88,88.82,-25.62,-59.89,-4.28,-1.74,30.42,-5.14,-4.06,Right Fall while Standing
09:43.6,506,507,760.5,619,290,2.53,395.63,1.42,0,0,159,0,0,0,225332,1424,0.83,-0.6,-0.13,9.16,-2.53,72.04,-36,-52,-3.08,-2.3,39.45,-4.4,-4.29,Right Fall while Standing
09:43.8,316,486,729,619,291,2.52,397.54,1.42,137.96,290,156,158.01,158,24965,0,0,0.77,-0.75,-0.13,4.67,-4.42,56.24,-44.24,-43.93,-2.43,-3.09,46.53,-4.1,-4.73,Right Fall while Standing
09:43.9,319,469,703.5,619,291,2.52,397.54,1.42,137.96,290,166,158.01,158,24965,27556,166,0.66,-0.82,-0.15,15.27,-6.19,45.79,-51.15,-36.69,-0.45,-4.12,52.35,-2.48,-5.42,Right Fall while Standing
09:44.0,546,476,714,619,294,2.48,403.29,1.44,137.96,290,157,158.01,158,24965,52205,323,0.63,-0.85,-0.25,4.26,-3.89,38.23,-51.92,-33.97,0.15,-4.85,57.23,-1.93,-6.02,Right Fall while Standing
09:44.1,447,473,709.5,619,290,2.53,395.63,1.42,137.96,290,155,158.01,158,24965,76230,478,0.56,-0.95,-0.16,-7.66,14.21,23.19,-59,-28.64,-0.74,-3.33,60.22,-3.07,-4.34,Right Fall while Standing
09:44.3,436,470,705,619,288,2.55,391.84,1.41,137.96,290,153,158.01,158,24965,99639,631,0.55,-0.93,-0.2,-4.22,2.76,8.28,-58.47,-28.4,-1.2,-3.23,61.36,-3.49,-4.24,Right Fall while Standing
09:44.4,415,466,699,619,289,2.54,393.73,1.41,137.96,290,156,158.01,158,24965,123975,787,0.5,-0.97,-0.18,-10.66,6.3,-2.88,-61.78,-25.33,-2.46,-2.7,61.1,-4.83,-3.6,Right Fall while Standing
09:44.5,758,486,729,758,296,2.46,407.15,1.45,137.96,290,161,158.01,158,24965,149896,948,0.46,-0.9,-0.17,0.32,-4.61,-5.92,-62.07,-25.1,-2.35,-3.53,60.45,-4.74,-4.39,Right Fall while Standing
09:44.6,811,506,759,811,302,2.39,418.86,1.48,137.96,290,161,158.01,158,24965,175817,1109,0.48,-0.9,-0.19,-5.56,-4.53,-7.73,-60.92,-25.8,-2.97,-4.35,59.58,-5.29,-5.2,Right Fall while Standing
09:44.8,737,520,780,811,302,2.39,418.86,1.48,137.96,290,161,158.01,158,24965,201738,1270,0.47,-0.88,-0.18,-4.61,-2.99,-2.43,-60.66,-26.16,-3.48,-4.97,59.38,-5.76,-5.82,Right Fall while Standing
09:44.9,546,521,781.5,811,301,2.4,416.9,1.47,137.96,290,160,158.01,158,24965,227338,1430,0.5,-0.88,-0.2,-2.5,-4.08,-3.88,-59.21,-27.41,-3.72,-5.74,58.99,-5.94,-6.6,Right Fall while Standing
09:45.0,714,531,796.5,811,304,2.37,422.81,1.49,148.11,295,164,159.45,159,25422,0,0,0.5,-0.89,-0.22,-4.3,-0.88,0.05,-59.21,-26.93,-4.19,-6.09,59.09,-6.39,-6.93,Right Fall while Standing
09:45.1,556,532,798,811,302,2.39,418.86,1.48,148.11,295,155,159.45,159,25422,24025,155,0.48,-0.89,-0.19,-3.65,2.97,-4.76,-60.38,-26.38,-4.57,-5.97,58.6,-6.8,-6.79,Right Fall while Standing
09:45.3,283,521,781.5,811,293,2.49,401.37,1.43,148.11,295,151,159.45,159,25422,46826,306,0.53,-0.89,-0.24,-4.01,2.5,-4.11,-57.3,-28.45,-5,-5.91,58.19,-7.09,-6.81,Right Fall while Standing
09:45.4,129,503,754.5,811,288,2.55,391.84,1.41,148.11,295,150,159.45,159,25422,69326,456,0.5,-0.89,-0.21,-7.75,11.63,-0.79,-59.39,-27.05,-5.9,-4.71,58.19,-8.04,-5.6,Right Fall while Standing
09:45.5,277,493,739.5,811,287,2.56,389.95,1.4,148.11,295,150,159.45,159,25422,91826,606,0.55,-0.88,-0.29,-7.95,9.21,-2.25,-55.53,-28.92,-6.82,-3.81,58,-8.77,-4.81,Right Fall while Standing
09:45.6,333,486,729,811,286,2.58,388.06,1.4,148.11,295,151,159.45,159,25422,114627,757,0.51,-0.92,-0.22,-1.29,-2.79,-7.51,-59.48,-26.84,-6.91,-4.41,57.16,-9.02,-5.31,Right Fall while Standing
09:45.8,394,483,724.5,811,286,2.58,388.06,1.4,148.11,295,150,159.45,159,25422,137127,907,0.49,-0.88,-0.22,-11.25,0.26,3.25,-58.99,-27.12,-8.25,-4.63,57.66,-10.28,-5.53,Right Fall while Standing
09:45.9,334,477,715.5,811,285,2.59,386.18,1.39,148.11,295,149,159.45,159,25422,159328,1056,0.52,-0.92,-0.21,-0.21,-0.64,-6.77,-59.32,-27.06,-8.21,-4.96,56.92,-10.25,-5.84,Right Fall while Standing
09:46.0,549,479,718.5,811,285,2.59,386.18,1.39,148.11,295,149,159.45,159,25422,181529,1205,0.54,-0.84,-0.24,-3.11,1.97,-2.6,-55.53,-30.16,-8.53,-4.96,56.69,-10.41,-5.97,Right Fall while Standing
09:46.1,550,482,723,811,286,2.58,388.06,1.4,148.11,295,150,159.45,159,25422,204029,1355,0.57,-0.85,-0.23,-7.23,5.28,-8.11,-54.71,-31.27,-9.37,-4.55,55.77,-11.18,-5.62,Right Fall while Standing
09:46.3,518,483,724.5,811,286,2.58,388.06,1.4,132.91,288,150,150.51,150,22651,0,0,0.55,-0.88,-0.16,-8.86,5.33,-10.92,-57.21,-30.31,-10.4,-4.13,54.51,-12.27,-5.18,Right Fall while Standing
09:46.4,538,485,727.5,811,286,2.58,388.06,1.4,132.91,288,150,150.51,150,22651,22500,150,0.61,-0.82,-0.26,-1.37,-0.69,-38.44,-51.75,-33.7,-10.5,-4.47,49.8,-12.15,-5.64,Right Fall while Standing
09:46.5,705,492,738,811,287,2.56,389.95,1.4,132.91,288,150,150.51,150,22651,45000,300,0.69,-0.74,-0.31,-16.2,0.22,-43.43,-44.94,-39.15,-12.47,-4.7,44.43,-13.77,-6.07,Right Fall while Standing
09:46.6,657,497,745.5,811,285,2.59,386.18,1.39,132.91,288,147,150.51,150,22651,66609,447,0.81,-0.77,-0.31,-40.53,27.36,-38.82,-42.27,-42.67,-17.51,-1.5,39.64,-18.5,-3.15,Right Fall while Standing
09:46.8,380,494,741,811,279,2.67,375,1.36,132.91,288,147,150.51,150,22651,88218,594,0.77,-0.63,-0.23,-24.81,28.21,-54.07,-38.36,-47.62,-20.56,1.8,32.93,-21.27,-0.17,Right Fall while Standing
09:46.9,427,492,738,811,283,2.61,382.43,1.38,132.91,288,148,150.51,150,22651,110122,742,0.88,-0.52,-0.25,-16.42,22.92,-70.67,-30.44,-55.05,-22.56,4.44,24.12,-22.87,2.06,Right Fall while Standing
09:47.0,534,493,739.5,811,282,2.63,380.57,1.38,132.91,288,149,150.51,150,22651,132323,891,0.96,-0.45,-0.11,17.36,9.4,-59.28,-25.55,-62.6,-20.32,5.36,16.81,-20.53,2.65,Right Fall while Standing
09:47.2,293,487,730.5,811,284,2.6,384.3,1.39,132.91,288,152,150.51,150,22651,155427,1043,0.94,-0.15,-0.24,22.19,9.67,-70.08,-9.4,-71.63,-17.48,6.32,8.15,-17.15,3.2,Right Fall while Standing
09:47.3,443,486,729,811,283,2.61,382.43,1.38,132.91,288,148,150.51,150,22651,177331,1191,0.98,-0.06,-0.16,9.08,6.79,-58.35,-3.9,-78.76,-16.27,6.92,0.95,-15.78,3.49,Right Fall while Standing
09:47.4,670,491,736.5,811,282,2.63,380.57,1.38,132.91,288,150,150.51,150,22651,199831,1341,0.94,-0.08,-0.16,-4.6,7.59,-6.62,-5.39,-77.94,-16.78,7.62,0.22,-16.32,4.2,Right Fall while Standing
09:47.5,686,496,744,811,282,2.63,380.57,1.38,121.35,283,149,149.01,149,22202,0,0,1.07,-0.01,-0.12,-15.31,12.56,-1.85,-1.11,-82.12,-18.6,8.93,0.09,-17.91,5.29,Right Fall while Standing
09:47.6,585,498,747,811,280,2.65,376.85,1.37,121.35,283,147,149.01,149,22202,21609,147,1,0.02,-0.08,-15.08,19.85,-20.38,0.3,-83.56,-20.42,11.16,-2.36,-19.59,7.37,Right Fall while Standing
09:47.8,490,498,747,811,280,2.65,376.85,1.37,121.35,283,149,149.01,149,22202,43810,296,0.98,0.03,-0.01,14.51,11.54,-15.71,1.12,-86.51,-18.54,12.35,-4.22,-17.75,8.4,Right Fall while Standing
09:47.9,478,497,745.5,811,283,2.61,382.43,1.38,121.35,283,150,149.01,149,22202,66310,446,0.96,0.04,-0.04,22.33,2.27,-0.93,2.08,-84.86,-15.68,12.39,-4.24,-14.96,8.5,Right Fall while Standing
09:48.0,533,498,747,811,286,2.58,388.06,1.4,121.35,283,152,149.01,149,22202,89414,598,1.04,0.07,-0.08,28.15,-12.73,4.87,3.06,-82.83,-12.09,10.55,-3.53,-11.48,6.81,Right Fall while Standing
09:48.1,791,505,757.5,811,290,2.53,395.63,1.42,121.35,283,155,149.01,149,22202,113439,753,0.98,0.07,-0.07,-0.49,0.05,1.97,3.74,-82.39,-12.08,10.3,-3.19,-11.44,6.59,Right Fall while Standing
09:48.3,796,511,766.5,811,293,2.49,401.37,1.43,121.35,283,162,149.01,149,22202,139683,915,1.08,0.1,-0.1,-21.89,-4.43,-6.83,4.59,-81.16,-14.72,9.51,-3.94,-13.95,5.88,Right Fall while Standing
09:48.4,973,521,781.5,973,300,2.41,414.94,1.47,121.35,283,162,149.01,149,22202,165927,1077,1.08,0.07,0,-3.31,-3.64,-30.3,3.29,-84.55,-15.07,8.79,-7.65,-14.34,5.06,Right Fall while Standing
09:48.5,751,526,789,973,306,2.34,426.78,1.5,121.35,283,160,149.01,149,22202,191527,1237,0.82,0.14,-0.18,38,19.95,-39.92,8.79,-72.96,-10.25,11.04,-12.54,-9.49,7.68,Right Fall while Standing
09:48.6,743,531,796.5,973,296,2.46,407.15,1.45,121.35,283,154,149.01,149,22202,215243,1391,0.9,0.12,-0.11,25.8,0.08,12.28,6.8,-78.37,-6.95,10.8,-10.91,-6.4,7.23,Right Fall while Standing
09:48.8,242,525,787.5,973,293,2.49,401.37,1.43,137.97,290,147,153.9,153,23684,0,0,1,0.12,-0.1,-17.5,1.95,54.76,6.34,-79.4,-9.04,10.79,-4.08,-8.42,7.19,Right Fall while Standing
09:48.9,0,514,771,973,278,2.68,373.15,1.36,137.97,290,140,153.9,153,23684,19600,140,1.17,0.08,-0.17,-8.15,-9.7,7.03,3.21,-79.22,-9.98,9.34,-3.11,-9.45,5.8,Right Fall while Standing
09:49.0,0,504,756,973,272,2.76,362.18,1.33,137.97,290,138,153.9,153,23684,38644,278,0.96,0.04,-0.2,-12.89,-13.55,-11.63,1.77,-76.31,-11.51,7.41,-4.45,-10.98,4.07,Right Fall while Standing
09:49.1,143,497,745.5,973,270,2.79,358.57,1.32,137.97,290,138,153.9,153,23684,57688,416,1.06,0.05,-0.12,-8.67,-1.45,-1.34,1.97,-81.31,-12.52,6.98,-4.52,-11.94,3.45,Right Fall while Standing
09:49.3,325,494,741,973,273,2.75,364,1.33,137.97,290,143,153.9,153,23684,78137,559,1,0.06,-0.11,0.53,1.27,-0.5,3.04,-80.96,-12.39,6.89,-4.49,-11.77,3.38,Right Fall while Standing
09:49.4,542,495,742.5,973,276,2.71,369.48,1.35,137.97,290,141,153.9,153,23684,98018,700,0.95,0.06,-0.13,-3.59,1.18,-3.96,3.17,-79.8,-12.76,6.79,-4.88,-12.12,3.33,Right Fall while Standing
09:49.5,494,495,742.5,973,272,2.76,362.18,1.33,137.97,290,138,153.9,153,23684,117062,838,1.06,0.06,-0.12,-2.82,20.34,9.68,2.47,-81.08,-13.04,9.08,-3.57,-12.42,5.48,Right Fall while Standing
09:49.6,417,493,739.5,973,271,2.77,360.37,1.32,137.97,290,137,153.9,153,23684,135831,975,1.02,0.04,-0.11,-4.62,1.12,3.31,1.74,-81.61,-13.55,8.97,-3.06,-12.93,5.35,Right Fall while Standing
09:49.8,312,490,735,973,269,2.8,356.76,1.31,137.97,290,137,153.9,153,23684,154600,1112,1,0.03,-0.12,-4.94,3.85,1.45,1.41,-81.04,-14.09,9.2,-2.78,-13.47,5.6,Right Fall while Standing
09:49.9,350,488,732,973,268,2.82,354.97,1.31,137.97,290,136,153.9,153,23684,173096,1248,1.01,0.02,-0.1,-2.95,1.14,1.77,0.73,-82.62,-14.39,9.1,-2.46,-13.79,5.43,Right Fall while Standing
09:57.5,655,655,982.5,655,283,2.61,382.43,1.38,0,0,134,0,0,0,35645,267,0.92,0.07,-0.57,0.6,-13.85,2.43,3.2,-56.2,1.75,-4.08,0.58,1.81,-6.16,Forward Fall while Standing
09:57.6,708,681,1021.5,708,287,2.56,389.95,1.4,0,0,136,0,0,0,54141,403,0.88,-0.02,-0.52,-4.76,-19.21,-1.97,-1.76,-57.66,1.24,-6.67,0.44,1.12,-8.71,Forward Fall while Standing
09:57.8,752,705,1057.5,752,289,2.54,393.73,1.41,0,0,137,0,0,0,72910,540,0.89,-0.01,-0.6,-2.98,-22.42,-2.32,-1.27,-54.43,0.94,-9.67,0.25,0.85,-11.46,Forward Fall while Standing
09:57.9,777,723,1084.5,777,290,2.53,395.63,1.42,0,0,137,0,0,0,91679,677,0.88,-0.01,-0.66,-1.94,-13.33,-3.5,-1.28,-51.36,0.77,-11.56,-0.08,0.69,-13.15,Forward Fall while Standing
09:58.0,545,687,1030.5,777,286,2.58,388.06,1.4,0,0,130,0,0,0,108579,807,0.84,0.01,-0.67,-7.12,-12.63,2.81,-0.12,-49.9,-0.05,-13.37,0.36,-0.05,-14.83,Forward Fall while Standing
09:58.1,278,619,928.5,777,279,2.67,375,1.36,0,0,128,0,0,0,124963,935,0.83,-0.01,-0.72,-17.73,-9.89,0.17,-0.85,-47.81,-2.16,-14.83,0.48,-2.1,-16.15,Forward Fall while Standing
09:58.3,194,558,837,777,276,2.71,369.48,1.35,0,0,127,0,0,0,141092,1062,0.8,0,-0.62,-6.69,-5.44,-1.74,-0.81,-50.6,-2.91,-15.74,0.36,-2.82,-17.13,Forward Fall while Standing
09:58.4,156,508,762,777,273,2.75,364,1.33,0,0,126,0,0,0,156968,1188,0.76,0.05,-0.79,-22.82,-13.1,1.95,2.12,-42.27,-5.67,-17.61,0.7,-5.36,-18.6,Forward Fall while Standing
09:58.5,328,488,732,777,274,2.73,365.82,1.34,116.99,281,145,133.41,133,17798,0,0,0.82,0.09,-0.68,-3.37,-4.82,7.57,4.02,-48.51,-6.01,-18.46,1.74,-5.61,-19.66,Forward Fall while Standing
09:58.6,839,523,784.5,839,290,2.53,395.63,1.42,116.99,281,135,133.41,133,17798,18225,135,0.63,-0.02,-0.88,-27.26,-28.68,7.48,-1.55,-33.82,-9.35,-22.29,2.77,-9.04,-22.75,Forward Fall while Standing
09:58.8,627,532,798,839,282,2.63,380.57,1.38,116.99,281,130,133.41,133,17798,35125,265,0.81,-0.01,-0.74,0.79,15.92,-9.5,-1.19,-45.83,-9.18,-20.55,1.69,-8.86,-21.56,Forward Fall while Standing
09:58.9,224,506,759,839,275,2.72,367.65,1.34,116.99,281,128,133.41,133,17798,51509,393,0.82,0.07,-0.73,1.73,1.89,-5.63,3.04,-46.49,-8.9,-20.57,1.08,-8.42,-21.6,Forward Fall while Standing
09:59.0,388,497,745.5,839,271,2.77,360.37,1.32,116.99,281,127,133.41,133,17798,67638,520,0.76,0.02,-0.66,3.01,1.01,-4.66,0.78,-47.38,-8.46,-20.69,0.6,-8.09,-21.76,Forward Fall while Standing
09:59.1,296,483,724.5,839,271,2.77,360.37,1.32,116.99,281,125,133.41,133,17798,83263,645,0.78,0.04,-0.69,-6.19,-0.99,1.31,1.77,-46.64,-9.16,-21.06,0.86,-8.72,-22.09,Forward Fall while Standing
09:59.3,416,478,717,839,268,2.82,354.97,1.31,116.99,281,124,133.41,133,17798,98639,769,0.78,0.04,-0.69,-6.8,-5.63,0.94,1.54,-46.92,-9.94,-22.02,1.08,-9.48,-23.01,Forward Fall while Standing
09:59.4,473,478,717,839,268,2.82,354.97,1.31,116.99,281,126,133.41,133,17798,114515,895,0.76,0.03,-0.74,6.63,-12.1,-0.15,1.15,-44.36,-9.04,-23.78,1.16,-8.63,-24.6,Forward Fall while Standing
09:59.5,430,475,712.5,839,266,2.85,351.39,1.3,116.99,281,126,133.41,133,17798,130391,1021,0.81,0.02,-0.79,-5.72,-10.98,-1.98,0.2,-44,-9.69,-25.4,1.01,-9.29,-26.15,Forward Fall while Standing
09:59.6,470,475,712.5,839,266,2.85,351.39,1.3,116.99,281,126,133.41,133,17798,146267,1147,0.7,0,-0.79,3.89,-9.83,-1.29,-0.35,-40.05,-9.13,-26.88,0.95,-8.78,-27.41,Forward Fall while Standing
09:59.8,476,475,712.5,839,264,2.88,347.83,1.29,92.53,272,125,127.24,127,16188,0,0,0.75,0,-0.82,7.21,-8.6,-7.24,-0.68,-40.95,-8.17,-28.19,0.16,-7.87,-28.7,Forward Fall while Standing
09:59.9,485,475,712.5,839,265,2.86,349.6,1.3,92.53,272,126,127.24,127,16188,15876,126,0.71,0.02,-0.81,5.3,-1.6,-8.73,0.45,-39.58,-7.44,-28.64,-0.84,-7.13,-29.07,Forward Fall while Standing
10:00.0,522,478,717,839,264,2.88,347.83,1.29,92.53,272,125,127.24,127,16188,31501,251,0.73,0.02,-0.8,1.44,1.56,-3.31,0.25,-40.77,-7.19,-28.69,-1.15,-6.9,-29.17,Forward Fall while Standing
10:00.1,713,488,732,839,267,2.83,353.17,1.3,92.53,272,129,127.24,127,16188,48142,380,0.74,0.05,-0.83,-8.6,5.04,-1.37,2.02,-40.23,-8.2,-28.31,-1.22,-7.79,-28.79,Forward Fall while Standing
10:00.3,781,501,751.5,839,273,2.75,364,1.33,92.53,272,132,127.24,127,16188,65566,512,0.69,-0.03,-0.77,3.98,9.64,-4.08,-2.36,-40.19,-7.63,-27.36,-1.63,-7.42,-27.87,Forward Fall while Standing
10:00.4,897,517,775.5,897,278,2.68,373.15,1.36,92.53,272,133,127.24,127,16188,83255,645,0.74,0.01,-0.76,-2.91,11.28,5.32,0,-42.45,-7.92,-26.2,-0.88,-7.6,-26.85,Forward Fall while Standing
10:00.5,708,525,787.5,897,275,2.72,367.65,1.34,92.53,272,129,127.24,127,16188,99896,774,0.8,-0.03,-0.75,-0.16,14.34,1.6,-1.9,-45.23,-7.87,-24.66,-0.58,-7.63,-25.48,Forward Fall while Standing
10:00.6,588,527,790.5,897,275,2.72,367.65,1.34,92.53,272,131,127.24,127,16188,117057,905,0.74,-0.01,-0.76,-0.28,8.37,-3.65,-1.02,-42.69,-7.84,-23.87,-0.93,-7.56,-24.62,Forward Fall while Standing
10:00.8,758,536,804,897,277,2.69,371.31,1.35,92.53,272,133,127.24,127,16188,134746,1038,0.77,0,-0.75,-1.11,8.77,-3.34,-0.57,-44.22,-7.91,-23.01,-1.26,-7.61,-23.86,Forward Fall while Standing
10:00.9,727,543,814.5,897,277,2.69,371.31,1.35,92.53,272,132,127.24,127,16188,152170,1170,0.82,-0.02,-0.72,-3.54,17.2,-9.37,-1.8,-47.23,-8.28,-21.11,-2.33,-8.02,-22.16,Forward Fall while Standing
10:01.0,350,536,804,897,277,2.69,371.31,1.35,94.39,272,131,130.13,130,16932,0,0,0.82,0.02,-0.7,4.92,28.69,-6.12,0.56,-47.84,-7.6,-17.8,-2.99,-7.27,-19.01,Forward Fall while Standing
10:01.1,444,533,799.5,897,277,2.69,371.31,1.35,94.39,272,132,130.13,130,16932,17424,132,0.9,0.03,-0.67,-1.23,35.79,-11.16,0.99,-51.81,-7.68,-13.58,-4.29,-7.34,-15.11,Forward Fall while Standing
10:01.3,195,522,783,897,277,2.69,371.31,1.35,94.39,272,128,130.13,130,16932,33808,260,0.85,0.03,-0.49,2.39,38.12,-12.31,1.08,-58.52,-7.32,-9.07,-5.73,-6.98,-11.04,Forward Fall while Standing
10:01.4,194,512,768,897,273,2.75,364,1.33,94.39,272,127,130.13,130,16932,49937,387,0.89,0.04,-0.39,-7.48,30.92,-9.22,1.59,-64.6,-8.17,-5.48,-6.77,-7.78,-7.84,Forward Fall while Standing
10:01.5,538,513,769.5,897,269,2.8,356.76,1.31,94.39,272,127,130.13,130,16932,66066,514,1.1,0.07,-0.45,-12.9,33.8,-7.18,2.88,-66.14,-9.7,-1.54,-7.56,-9.2,-4.12,Forward Fall while Standing
10:01.6,468,511,766.5,897,271,2.77,360.37,1.32,94.39,272,132,130.13,130,16932,83490,646,0.99,0.08,-0.48,-18.13,94.53,-3.94,3.43,-62.15,-11.9,10.03,-7.96,-11.29,7.14,Forward Fall while Standing
10:01.8,350,507,760.5,897,275,2.72,367.65,1.34,94.39,272,128,130.13,130,16932,99874,774,1.63,0.13,-0.88,-18.85,189.15,1.74,3.36,-59.9,-14.19,33.42,-7.64,-13.48,29.69,Forward Fall while Standing
10:01.9,404,504,756,897,273,2.75,364,1.33,94.39,272,128,130.13,130,16932,116258,902,-0.49,0.26,0.82,-3.37,29.08,-6.46,14.42,31.31,-14.54,36.81,-8.35,-13.38,36.59,Forward Fall while Standing
10:02.0,639,507,760.5,897,271,2.77,360.37,1.32,94.39,272,128,130.13,130,16932,132642,1030,0.82,0.06,-0.07,0.79,2.82,0.76,3.41,-82.35,-14.37,36.91,-8.16,-13.66,32.14,Forward Fall while Standing
10:02.1,241,500,750,897,270,2.79,358.57,1.32,94.39,272,126,130.13,130,16932,148518,1156,1.06,0.07,-0.25,-0.18,-3.84,-3.89,2.93,-74.75,-14.32,36.18,-8.54,-13.63,31.74,Forward Fall while Standing
10:02.3,511,501,751.5,897,268,2.82,354.97,1.31,93.13,272,126,128.21,128,16438,0,0,1.01,0.08,-0.14,-5.16,1.28,0.48,3.9,-79.22,-14.89,36.09,-8.39,-14.14,31.48,Forward Fall while Standing
10:02.4,668,505,757.5,897,270,2.79,358.57,1.32,93.13,272,127,128.21,128,16438,16129,127,1.02,0.08,-0.2,-7.26,2.22,-2.19,3.99,-76.55,-15.72,36.12,-8.56,-14.93,31.61,Forward Fall while Standing
10:02.5,697,510,765,897,270,2.79,358.57,1.32,93.13,272,127,128.21,128,16438,32258,254,1,0.07,-0.19,-9.53,4.78,1.31,3.57,-76.69,-16.84,36.47,-8.3,-16.03,31.94,Forward Fall while Standing
10:02.6,432,508,762,897,271,2.77,360.37,1.32,93.13,272,126,128.21,128,16438,48134,380,1.01,0.06,-0.2,-1.88,1.74,2.69,2.73,-76.62,-17.01,36.43,-7.86,-16.22,31.91,Forward Fall while Standing
10:02.8,439,506,759,897,271,2.77,360.37,1.32,93.13,272,127,128.21,128,16438,64263,507,1.01,0.07,-0.18,1.28,0.42,-0.01,3.38,-77.74,-16.78,36.24,-7.77,-15.97,31.68,Forward Fall while Standing
10:02.9,507,506,759,897,271,2.77,360.37,1.32,93.13,272,126,128.21,128,16438,80139,633,1,0.06,-0.15,1,1.66,0.2,2.9,-79.17,-16.58,36.19,-7.65,-15.81,31.58,Forward Fall while Standing
10:03.0,794,512,768,897,272,2.76,362.18,1.33,93.13,272,127,128.21,128,16438,96268,760,1.01,0.06,-0.16,-2.94,-0.18,0.1,2.85,-78.6,-16.88,35.92,-7.53,-16.09,31.34,Forward Fall while Standing
10:03.1,447,511,766.5,897,272,2.76,362.18,1.33,93.13,272,126,128.21,128,16438,112144,886,1.01,0.04,-0.17,-3.41,-0.59,0.5,1.86,-78.37,-17.24,35.6,-7.37,-16.47,31.04,Forward Fall while Standing
10:03.2,276,506,759,897,271,2.77,360.37,1.32,93.13,272,126,128.21,128,16438,128020,1012,1.01,0.05,-0.18,-1.15,-1.35,-2.03,2.21,-77.94,-17.31,35.18,-7.53,-16.53,30.65,Forward Fall while Standing
10:03.4,375,503,754.5,897,273,2.75,364,1.33,93.13,272,126,128.21,128,16438,143896,1138,1.01,0.05,-0.2,-1.5,-0.09,-1.43,2.39,-76.93,-17.43,34.92,-7.61,-16.64,30.44,Forward Fall while Standing
10:03.5,871,511,766.5,897,274,2.73,365.82,1.34,90.43,271,127,126.5,126,16001,0,0,1.01,0.05,-0.2,-2.55,-1.34,-1.43,2.24,-76.82,-17.68,34.5,-7.69,-16.88,30.05,Forward Fall while Standing
10:07.4,680,680,1020,680,272,2.76,362.18,1.33,0,0,125,0,0,0,31001,249,0.8,0.08,-0.08,-27.31,-40.15,-5.27,4.85,-80.51,-2.6,-4.54,-1.91,-2.31,-7.58,Sitting
10:07.5,459,569,853.5,680,272,2.76,362.18,1.33,0,0,130,0,0,0,47901,379,0.98,-0.14,0.04,-23.18,-35.02,9.82,-8.85,-79.79,-5.39,-9.1,-0.61,-5.52,-11.92,Sitting
10:07.7,270,469,703.5,680,274,2.73,365.82,1.34,0,0,124,0,0,0,63277,503,1.11,-0.01,-0.24,3.38,-23.66,-36.76,-1.07,-76.4,-4.9,-12.25,-5.03,-4.75,-14.82,Sitting
10:07.8,307,429,643.5,680,274,2.73,365.82,1.34,0,0,130,0,0,0,80177,633,1.22,-0.02,-0.45,3.32,-10.07,10.03,-1.57,-68.16,-4.42,-13.74,-3.7,-4.31,-15.91,Sitting
10:07.9,971,537,805.5,971,277,2.69,371.31,1.35,0,0,134,0,0,0,98133,767,1.13,0.03,-0.42,8.31,-21.55,9.58,1.01,-67.99,-3.32,-16.66,-2.41,-3.15,-18.71,Sitting
10:08.0,997,614,921,997,284,2.6,384.3,1.39,0,0,137,0,0,0,116902,904,1.13,0.07,-0.53,36.24,27.76,-17.85,2.76,-63.05,1.2,-13.49,-4.51,1.26,-15.47,Sitting
10:08.1,967,664,996,997,286,2.58,388.06,1.4,0,0,133,0,0,0,134591,1037,0.65,-0.02,-0.36,13.83,-9.21,-8.53,-2.17,-59.41,2.96,-14.85,-5.46,2.75,-16.64,Sitting
10:08.3,707,669,1003.5,997,281,2.64,378.71,1.37,0,0,128,0,0,0,150975,1165,0.67,0.03,-0.43,-5.57,16.41,-3.91,1.81,-55.41,2.34,-13.08,-5.84,2.32,-14.77,Sitting
10:08.4,291,627,940.5,997,277,2.69,371.31,1.35,105.91,277,124,128.98,128,16634,0,0,1.02,0.01,-0.4,-36.82,19.92,3.29,0.03,-67.19,-2.16,-10.86,-5.33,-2.07,-13.11,Sitting
10:08.5,267,591,886.5,997,273,2.75,364,1.33,105.91,277,122,128.98,128,16634,14884,122,1.31,0.01,-0.21,13.92,53.35,-27.33,-0.17,-79.2,-0.35,-4.44,-8.65,-0.34,-7.43,Sitting
10:08.6,108,547,820.5,997,273,2.75,364,1.33,105.91,277,121,128.98,128,16634,29525,243,0.71,-0.04,-0.04,0.82,46.6,7.22,-3.63,-84.14,-0.17,1.13,-7.65,-0.31,-2.28,Sitting
10:08.8,312,528,792,997,272,2.76,362.18,1.33,105.91,277,122,128.98,128,16634,44409,365,1.26,-0.04,-0.07,-12.17,15.46,33.4,-2.42,-84.91,-1.62,2.82,-3.38,-1.66,-0.69,Sitting
10:08.9,435,520,780,997,270,2.79,358.57,1.32,105.91,277,136,128.98,128,16634,62905,501,1.05,0.09,0.18,-18.02,10.88,-5.83,4.32,-77.55,-3.81,3.93,-4.01,-3.48,0.67,Sitting
10:09.0,201,498,747,997,273,2.75,364,1.33,105.91,277,125,128.98,128,16634,78530,626,0.78,-0.05,0.02,-7.24,5.79,-8.11,-3.99,-84.56,-4.63,4.4,-4.91,-4.61,0.84,Sitting
10:09.1,361,488,732,997,272,2.76,362.18,1.33,105.91,277,138,128.98,128,16634,97574,764,1.36,-0.01,0.05,-14.6,4.64,15.37,-1.07,-86.17,-6.39,4.73,-2.89,-6.18,1.09,Sitting
10:09.3,987,520,780,997,279,2.67,375,1.36,105.91,277,127,128.98,128,16634,113703,891,1.12,-0.05,0.03,13.4,-7.95,-18.07,-3.21,-85.39,-4.66,3.49,-5.04,-4.6,-0.06,Sitting
10:09.4,680,529,793.5,997,272,2.76,362.18,1.33,105.91,277,122,128.98,128,16634,128587,1013,0.96,0.09,0.01,8.68,21.91,-17.51,4.83,-82.98,-3.5,5.98,-7.13,-3.17,2.42,Sitting
10:09.5,374,520,780,997,269,2.8,356.76,1.31,105.91,277,121,128.98,128,16634,143228,1134,1.04,0.12,0.07,-11.72,-17.43,5.94,6.08,-80.62,-4.9,3.55,-6.28,-4.46,0.18,Sitting
10:09.6,389,513,769.5,997,272,2.76,362.18,1.33,93.41,272,150,128.73,128,16571,0,0,1.05,0.02,0.02,-2.35,-11.54,0.43,0.77,-86.81,-5.12,1.9,-6.14,-4.88,-1.65,Sitting
10:09.8,1000,538,807,1000,305,2.35,424.79,1.49,93.41,272,175,128.73,128,16571,30625,175,1.04,0,-0.01,4.18,15.48,-19.08,-0.35,-87.91,-4.52,3.58,-8.42,-4.36,-0.08,Sitting
10:09.9,1000,560,840,1000,311,2.29,436.8,1.52,93.41,272,175,128.73,128,16571,61250,350,0.99,0.14,0.07,-1.23,9.63,-6.15,7.16,-79.7,-4.61,4.54,-9.09,-4.14,1.17,Sitting
10:10.0,999,580,870,1000,315,2.25,444.92,1.54,93.41,272,171,128.73,128,16571,90491,521,0.98,0.07,0.09,7.53,12.88,16.23,3.75,-81.56,-3.6,5.89,-6.98,-3.31,2.39,Sitting
10:10.1,733,586,879,1000,307,2.33,428.77,1.5,93.41,272,139,128.73,128,16571,109812,660,1.05,0.06,0.1,0.21,15.27,8.81,2.85,-82.16,-3.51,7.53,-5.79,-3.25,3.94,Sitting
10:10.3,383,578,867,1000,289,2.54,393.73,1.41,93.41,272,131,128.73,128,16571,126973,791,1.01,0.03,0.12,-12.82,6.24,16.8,1.18,-81.37,-5.03,8.06,-3.61,-4.78,4.48,Sitting
10:10.4,0,555,832.5,1000,275,2.72,367.65,1.34,93.41,272,127,128.73,128,16571,143102,918,0.91,-0.07,0.26,7.95,0.07,-14.51,-4.65,-71.99,-3.97,7.82,-5.31,-4,4.63,Sitting
10:10.5,0,533,799.5,1000,272,2.76,362.18,1.33,93.41,272,126,128.73,128,16571,158978,1044,1,0.06,0.09,9.47,1.07,7.35,3.1,-82,-2.73,7.7,-4.3,-2.5,4.11,Sitting
10:10.6,0,514,771,1000,271,2.77,360.37,1.32,93.41,272,130,128.73,128,16571,175878,1174,1,-0.04,0.21,-5.72,-13.74,10.47,-2.55,-76.28,-3.37,5.75,-2.91,-3.34,2.47,Sitting
10:10.8,0,495,742.5,1000,269,2.8,356.76,1.31,93.41,272,130,128.73,128,16571,192778,1304,1.01,0.02,-0.01,-7.85,-34.48,-6.31,0.38,-87.34,-4.28,1.19,-3.59,-4.1,-2.35,Sitting
10:10.9,260,487,730.5,1000,273,2.75,364,1.33,107.6,288,158,147.56,146,21773,0,0,1.06,0.05,-0.05,-17.53,-34.25,-19.82,1.89,-84.63,-6.39,-3.3,-5.95,-6.06,-6.56,Sitting
10:11.0,464,486,729,1000,278,2.68,373.15,1.36,107.6,288,136,147.56,146,21773,18496,136,1.07,0.07,-0.02,-2.4,-2.55,32.24,3.14,-84.54,-6.61,-3.87,-1.86,-6.22,-7.1,Sitting
10:11.1,791,496,744,1000,278,2.68,373.15,1.36,107.6,288,132,147.56,146,21773,35920,268,0.91,0,0.33,-1.47,-3.78,5.89,-0.39,-68.43,-6.73,-4.59,-1.02,-6.47,-7.14,Sitting
10:11.3,444,494,741,1000,279,2.67,375,1.36,107.6,288,137,147.56,146,21773,54689,405,1.2,-0.04,-0.24,-0.3,-18.08,1.47,-2.54,-76.83,-6.7,-7.08,-0.74,-6.53,-9.87,Sitting
10:11.4,368,491,736.5,1000,273,2.75,364,1.33,107.6,288,132,147.56,146,21773,72113,537,1.06,0,-0.11,7.08,5.69,8.97,-0.79,-82.26,-5.73,-6.62,0.49,-5.54,-9.64,Sitting
10:11.5,541,492,738,1000,271,2.77,360.37,1.32,107.6,288,134,147.56,146,21773,90069,671,1.06,-0.14,-0.1,-11.57,-1.37,-16.99,-8.15,-79.07,-7.1,-7.03,-1.52,-7.14,-9.91,Sitting
10:11.6,394,489,733.5,1000,274,2.73,365.82,1.34,107.6,288,144,147.56,146,21773,110805,815,0.92,0.01,-0.09,-7.09,-11.74,-5.73,0.04,-82.98,-7.92,-8.76,-2.15,-7.6,-11.73,Sitting
10:11.8,428,488,732,1000,271,2.77,360.37,1.32,107.6,288,131,147.56,146,21773,127966,946,1.04,-0.02,-0.12,-14.57,-7.95,6.49,-1.75,-81.73,-9.67,-10.01,-1.24,-9.36,-12.88,Sitting
10:11.9,470,487,730.5,1000,270,2.79,358.57,1.32,107.6,288,130,147.56,146,21773,144866,1076,1.05,-0.03,-0.22,0.66,-5.84,-9.28,-2.18,-76.4,-9.52,-11,-2.31,-9.23,-13.61,Sitting
10:12.0,593,490,735,1000,269,2.8,356.76,1.31,107.6,288,131,147.56,146,21773,162027,1207,1.07,-0.05,-0.19,-4.86,12.42,0.82,-2.98,-78.2,-10.06,-9.68,-2.1,-9.78,-12.42,Sitting
10:12.1,443,489,733.5,1000,269,2.8,356.76,1.31,95.47,273,132,133.96,133,17944,0,0,0.99,0.03,-0.08,3.26,8.56,-14.62,1.26,-83.62,-9.59,-8.87,-3.82,-9.15,-11.86,Sitting
10:12.3,520,489,733.5,1000,270,2.79,358.57,1.32,95.47,273,133,133.96,133,17944,17689,133,0.99,0.03,-0.16,-5.01,-8.48,-4.07,1.17,-78.97,-10.14,-10.18,-4.23,-9.69,-12.93,Sitting
10:12.4,563,491,736.5,1000,273,2.75,364,1.33,95.47,273,133,133.96,133,17944,35378,266,0.97,0.03,-0.04,-1.87,-2.15,-1.68,0.91,-85.41,-10.31,-10.7,-4.34,-9.86,-13.69,Sitting
10:12.5,652,495,742.5,1000,273,2.75,364,1.33,95.47,273,134,133.96,133,17944,53334,400,1.02,0.03,-0.15,-1.87,-5.17,-1.58,0.85,-80.07,-10.47,-11.59,-4.44,-10.02,-14.33,Sitting
10:12.6,534,496,744,1000,273,2.75,364,1.33,95.47,273,135,133.96,133,17944,71559,535,1.01,0.05,-0.15,0.44,-5.85,0.05,2.02,-79.75,-10.35,-12.58,-4.33,-9.85,-15.26,Sitting
10:12.8,508,496,744,1000,272,2.76,362.18,1.33,95.47,273,135,133.96,133,17944,89784,670,1.02,0.02,-0.17,-0.67,-8.02,-0.38,0.71,-79.01,-10.36,-13.82,-4.28,-9.92,-16.42,Sitting
10:12.9,1001,507,760.5,1001,838,0.22,4529.73,4.1,95.47,273,179,133.96,133,17944,121825,849,1.02,0,-0.2,-3.12,3.83,6.07,-0.49,-77.52,-10.68,-13.59,-3.42,-10.28,-16.14,Sitting
10:13.0,1001,518,777,1001,778,0.31,3175.51,3.8,95.47,273,189,133.96,133,17944,92010,1038,1.01,0.02,-0.2,-1.15,-1.52,-5,0.8,-77.21,-10.76,-14.03,-3.95,-10.3,-16.56,Sitting
10:13.1,1000,528,792,1001,753,0.36,2788.89,3.68,95.47,273,183,133.96,133,17944,59963,1221,1.02,0.03,-0.21,-3.21,-0.37,1.28,0.93,-76.57,-11.09,-14.33,-3.69,-10.61,-16.82,Sitting
10:13.3,1000,538,807,1001,747,0.37,2706.52,3.65,95.47,273,189,133.96,133,17944,30148,1410,1.02,0.01,-0.21,-2,0.03,-2.92,0.24,-76.63,-11.27,-14.57,-3.95,-10.81,-17.06,Sitting
10:13.4,1000,548,822,1001,697,0.47,2138.04,3.41,34.67,517,182,20724.3,159,429496512,0,0,0.99,0.02,-0.21,-6.21,-3.15,-0.25,0.5,-76.6,-11.98,-15.22,-3.89,-11.48,-17.68,Sitting
10:13.5,994,556,834,1001,737,0.39,2576.92,3.6,34.67,517,187,20724.3,159,429496512,4294936729,187,1.02,0.04,-0.24,-5.34,-5.82,-5.39,1.58,-75.23,-12.59,-16.22,-4.47,-12.02,-18.58,Sitting
10:13.6,675,559,838.5,1001,733,0.4,2527.59,3.58,34.67,517,188,20724.3,159,429496512,4294906537,375,1.01,0.03,-0.23,-1.02,1.98,-0.6,1.15,-75.24,-12.65,-16.22,-4.45,-12.1,-18.58,Sitting
10:13.8,492,557,835.5,1001,721,0.42,2387.42,3.52,34.67,517,185,20724.3,159,429496512,4294875226,560,1.01,0.05,-0.23,-2.73,0.6,-0.73,2.34,-75.33,-12.93,-16.4,-4.44,-12.32,-18.76,Sitting
10:13.9,224,551,826.5,1001,713,0.43,2300,3.48,34.67,517,186,20724.3,159,429496512,4294844286,746,1.01,0.02,-0.22,-2.86,0.47,-0.2,0.75,-75.9,-13.22,-16.59,-4.36,-12.66,-18.97,Sitting
10:14.0,195,545,817.5,1001,722,0.42,2398.67,3.53,34.67,517,187,20724.3,159,429496512,4294813719,933,1.02,0.02,-0.23,-2.35,-0.24,-1.09,0.75,-75.39,-13.45,-16.88,-4.4,-12.88,-19.22,Sitting
10:14.1,94,536,804,1001,720,0.42,2376.24,3.52,34.67,517,185,20724.3,159,429496512,4294782408,1118,1,0.04,-0.22,-2.04,0.08,-0.98,1.55,-75.62,-13.63,-17.12,-4.43,-13.03,-19.46,Sitting
10:14.3,78,528,792,1001,718,0.42,2354.1,3.51,34.67,517,186,20724.3,159,429496512,4294751468,1304,1.01,0.03,-0.23,-1.69,0.95,-0.77,1.06,-75.55,-13.78,-17.26,-4.42,-13.19,-19.59,Sitting
10:14.4,84,520,780,1001,719,0.42,2365.13,3.51,34.67,517,186,20724.3,159,429496512,4294720528,1490,1.01,0.03,-0.23,-2.26,-0.38,-0.98,1.22,-75.52,-13.99,-17.56,-4.45,-13.39,-19.88,Sitting
10:14.5,144,514,771,1001,713,0.43,2300,3.48,34.67,517,188,20724.3,159,429496512,4294690336,1678,0.99,0.03,-0.23,-1.73,-0.3,-1.13,0.99,-75.4,-14.14,-17.85,-4.49,-13.54,-20.15,Sitting
10:14.7,177,508,762,1001,711,0.44,2278.85,3.48,20724.19,720,186,20723.56,186,429465952,0,0,1,0.03,-0.24,-2.49,-0.11,-0.47,1.02,-74.76,-14.39,-18.12,-4.45,-13.77,-20.38,Sitting
10:14.8,176,503,754.5,1001,717,0.43,2343.14,3.5,20724.19,720,185,20723.56,186,429465952,4294935985,185,1.01,0.02,-0.23,-1.53,0.74,-1.05,0.65,-75.39,-14.51,-18.28,-4.49,-13.9,-20.56,Sitting
10:14.9,257,499,748.5,1001,707,0.45,2237.34,3.46,20724.19,720,187,20723.56,186,429465952,4294905418,372,1,0.03,-0.25,-2.17,-1.02,-1.8,1.22,-74.56,-14.72,-18.66,-4.61,-14.08,-20.9,Sitting
10:15.0,273,495,742.5,1001,713,0.43,2300,3.48,20724.19,720,186,20723.56,186,429465952,4294874478,558,1,0.02,-0.25,-2.93,2.17,-0.4,0.8,-74.39,-15.02,-18.64,-4.56,-14.39,-20.87,Sitting
10:15.2,384,493,739.5,1001,718,0.42,2354.1,3.51,20724.19,720,187,20723.56,186,429465952,4294843911,745,1,0.03,-0.23,-1.74,4.57,-0.85,0.94,-75.61,-15.17,-18.32,-4.57,-14.53,-20.61,Sitting
10:15.3,402,492,738,1001,720,0.42,2376.24,3.52,20724.19,720,186,20723.56,186,429465952,4294812971,931,1,0.03,-0.22,-1.3,1.72,-0.4,1.02,-75.99,-15.26,-18.35,-4.52,-14.61,-20.66,Sitting
10:15.4,444,491,736.5,1001,719,0.42,2365.13,3.51,20724.19,720,186,20723.56,186,429465952,4294782031,1117,1.01,0.02,-0.23,0.08,3.6,0.63,0.65,-75.54,-15.18,-18.15,-4.34,-14.55,-20.44,Sitting
10:15.6,474,491,736.5,1001,712,0.44,2289.39,3.48,20724.19,720,185,20723.56,186,429465952,4294750720,1302,1.03,0.03,-0.23,-2.66,7.17,1.32,0.95,-75.76,-15.45,-17.49,-4.07,-14.79,-19.82,Sitting
10:15.7,470,490,735,1001,701,0.46,2177.02,3.43,20724.19,720,187,20723.56,186,429465952,4294720153,1489,0.98,0.03,-0.2,-5.15,-3.24,8.93,0.94,-76.82,-16.04,-18.16,-2.83,-15.36,-20.51,Sitting
10:15.8,535,491,736.5,1001,722,0.42,2398.67,3.53,20724.19,720,187,20723.56,186,429465952,4294689586,1676,0.98,0.01,-0.21,-2.79,10.63,-7.48,-0.23,-76.61,-16.32,-17.06,-3.69,-15.68,-19.44,Sitting
10:15.9,482,491,736.5,1001,712,0.44,2289.39,3.48,20724.12,714,186,20723.56,186,429465856,0,0,1.16,0,-0.36,-8.37,-2.02,4.63,-0.38,-70.93,-17.31,-17.56,-3,-16.63,-19.7,Sitting
10:16.1,504,491,736.5,1001,715,0.43,2321.43,3.49,20724.12,714,186,20723.56,186,429465856,4294936356,186,1.09,-0.03,-0.19,2.59,0.52,-13.15,-2.36,-78.4,-16.9,-17.75,-4.58,-16.32,-20.18,Sitting
10:16.2,301,488,732,1001,720,0.42,2376.24,3.52,20724.12,714,186,20723.56,186,429465856,4294905416,372,1.05,0.12,-0.44,-9.49,6.66,16.76,5.27,-65.19,-18.05,-17.16,-2.34,-17.11,-19.08,Sitting
10:16.3,0,482,723,1001,745,0.37,2679.86,3.64,20724.12,714,183,20723.56,186,429465856,4294873369,555,1.12,-0.04,-0.18,-6.08,-5.79,-10.76,-2.4,-79.26,-18.75,-18.15,-3.6,-18.09,-20.59,Sitting
10:16.4,0,475,712.5,1001,768,0.33,3011.76,3.75,20724.12,714,184,20723.56,186,429465856,4294841689,739,0.82,0.1,-0.11,-4.93,-3.4,-3.76,6.63,-77.91,-19.31,-18.84,-3.98,-18.27,-21.2,Sitting
10:16.6,814,480,720,1001,747,0.37,2706.52,3.65,20724.12,714,191,20723.56,186,429465856,4294812634,930,1.02,0.01,-0.22,-2.16,4.07,-5.49,-0.26,-76.01,-19.51,-18.57,-4.59,-18.74,-20.87,Sitting
10:16.7,0,473,709.5,1001,158,5.47,182.66,0.77,20724.12,714,148,20723.56,186,429465856,4294834538,1078,1.02,0.07,-0.26,-2.79,-9.92,2.67,3.09,-73.77,-19.8,-20.1,-4.14,-18.88,-22.25,Sitting
10:16.8,0,467,700.5,1001,244,3.19,313.22,1.19,20724.12,714,153,20723.56,186,429465856,4294857947,1231,0.97,0.06,-0.26,-5.14,-4.34,-0.8,2.95,-72.95,-20.38,-20.9,-4.14,-19.44,-22.99,Sitting
10:17.0,0,461,691.5,1001,282,2.63,380.57,1.38,20724.12,714,157,20723.56,186,429465856,4294882596,1388,0.97,0.04,-0.3,-3.66,-7.5,-5.49,1.56,-71.29,-20.77,-22.12,-4.74,-19.88,-24.09,Sitting
10:17.1,0,455,682.5,1001,277,2.69,371.31,1.35,20724.12,714,156,20723.56,186,429465856,4294906932,1544,0.99,0.03,-0.25,1.16,1.42,-1.66,0.96,-74.19,-20.55,-22.19,-4.86,-19.69,-24.27,Sitting
10:17.2,0,449,673.5,1001,279,2.67,375,1.36,60.35,493,158,20724.22,170,429493184,0,0,0.98,0.05,-0.28,4.65,2.87,-0.47,2.42,-72.01,-19.9,-22.09,-4.81,-19.01,-24.08,Sitting
10:17.3,125,445,667.5,1001,273,2.75,364,1.33,60.35,493,154,20724.22,170,429493184,23716,154,1,0.06,-0.27,0.3,1.78,1.54,2.49,-73.09,-19.8,-22.11,-4.52,-18.9,-24.15,Sitting
10:17.5,551,446,669,1001,292,2.5,399.45,1.43,60.35,493,159,20724.22,170,429493184,48997,313,1,0.04,-0.29,-3.7,4.24,1.21,1.89,-72.26,-20.19,-21.83,-4.27,-19.31,-23.85,Sitting
10:29.2,243,243,364.5,243,279,2.67,375,1.36,0,0,141,0,0,0,39762,282,0.97,0.05,-0.27,-2.21,-1.86,-6.86,2.04,-72.85,0.11,-0.23,-0.43,0.18,-3.13,Left Fall while Sitting
10:29.3,485,364,546,485,279,2.67,375,1.36,0,0,141,0,0,0,59643,423,0.97,0.13,-0.29,10.11,6.04,-5.09,6.87,-70.15,1.41,0.27,-0.95,1.63,-2.55,Left Fall while Sitting
10:29.4,520,416,624,520,280,2.65,376.85,1.37,0,0,142,0,0,0,79807,565,0.98,0.17,-0.31,3.27,2.78,-5.53,8.9,-68.45,1.88,0.36,-1.53,2.16,-2.39,Left Fall while Sitting
10:29.5,647,473,709.5,647,281,2.64,378.71,1.37,0,0,143,0,0,0,100256,708,0.99,0.08,-0.29,4.42,6.09,-0.31,3.79,-71.64,2.48,0.86,-1.47,2.53,-2.04,Left Fall while Sitting
10:29.7,452,469,703.5,647,280,2.65,376.85,1.37,0,0,139,0,0,0,119577,847,0.98,0.14,-0.31,-2.4,-0.73,0.5,6.93,-69.37,2.26,0.53,-1.31,2.44,-2.27,Left Fall while Sitting
10:29.8,633,496,744,647,282,2.63,380.57,1.38,0,0,147,0,0,0,141186,994,1.01,0.1,-0.31,-1.06,-3.11,4.11,4.55,-70.83,2.2,-0.1,-0.71,2.29,-2.93,Left Fall while Sitting
10:29.9,607,512,768,647,284,2.6,384.3,1.39,0,0,141,0,0,0,161067,1135,0.99,0.09,-0.31,-1.17,0.65,-5.02,4.6,-70.18,2.12,-0.26,-1.23,2.22,-3.06,Left Fall while Sitting
10:30.0,369,494,741,647,275,2.72,367.65,1.34,0,0,136,0,0,0,179563,1271,1,0.14,-0.31,-2.31,3,0.02,6.95,-69.57,1.91,-0.14,-1.13,2.11,-2.92,Left Fall while Sitting
10:30.2,577,503,754.5,647,270,2.79,358.57,1.32,110.49,278,133,140.45,140,19724,0,0,0.98,0.11,-0.31,-2.9,0.07,-3.3,5.35,-70.2,1.62,-0.38,-1.44,1.77,-3.17,Left Fall while Sitting
10:30.3,253,478,717,647,266,2.85,351.39,1.3,110.49,278,133,140.45,140,19724,17689,133,0.99,0.12,-0.32,2.46,1.76,-4.35,5.78,-69.42,1.99,-0.41,-1.88,2.14,-3.17,Left Fall while Sitting
10:30.4,251,457,685.5,647,267,2.83,353.17,1.3,110.49,278,134,140.45,140,19724,35645,267,0.98,0.13,-0.3,0,0.58,-1.51,6.4,-70.12,2.06,-0.58,-1.97,2.24,-3.36,Left Fall while Sitting
10:30.5,346,448,672,647,267,2.83,353.17,1.3,110.49,278,134,140.45,140,19724,53601,401,0.98,0.11,-0.31,-1.73,1.06,-2.5,5.63,-69.91,1.92,-0.7,-2.18,2.07,-3.47,Left Fall while Sitting
10:30.6,721,469,703.5,721,265,2.86,349.6,1.3,110.49,278,133,140.45,140,19724,71290,534,1,0.13,-0.33,-2.89,2.84,-4.37,6.26,-69.03,1.63,-0.6,-2.63,1.81,-3.33,Left Fall while Sitting
10:30.8,456,468,702,721,263,2.89,346.05,1.29,110.49,278,133,140.45,140,19724,88979,667,1,0.14,-0.33,10.6,-0.95,-10.4,6.74,-68.58,3.01,-0.96,-3.82,3.16,-3.67,Left Fall while Sitting
10:30.9,409,464,696,721,262,2.9,344.28,1.28,110.49,278,131,140.45,140,19724,106140,798,1,0.16,-0.32,-1.17,1.46,-13.28,8.13,-68.85,2.94,-1.03,-5.37,3.15,-3.74,Left Fall while Sitting
10:31.0,447,463,694.5,721,262,2.9,344.28,1.28,110.49,278,131,140.45,140,19724,123301,929,1,0.16,-0.32,1.02,3.97,-18.95,8.01,-68.85,3.14,-0.78,-7.64,3.33,-3.51,Left Fall while Sitting
10:31.1,497,465,697.5,721,263,2.89,346.05,1.29,110.49,278,133,140.45,140,19724,140990,1062,0.95,0.23,-0.27,-6.22,-0.18,-23.73,12.6,-67.73,2.43,-1.05,-10.48,2.84,-3.72,Left Fall while Sitting
10:31.3,586,472,708,721,267,2.83,353.17,1.3,110.49,278,135,140.45,140,19724,159215,1197,0.91,0.28,-0.33,-8.82,0.41,-25.14,15.5,-62.83,1.4,-1.25,-13.52,1.97,-3.71,Left Fall while Sitting
10:31.4,704,484,726,721,268,2.82,354.97,1.31,68.51,265,135,133.21,133,17743,0,0,0.92,0.34,-0.28,0.39,6.43,-18.53,18.9,-62.72,1.52,-0.7,-15.72,2.22,-3.18,Left Fall while Sitting
10:31.5,568,488,732,721,267,2.83,353.17,1.3,68.51,265,133,133.21,133,17743,17689,133,0.92,0.32,-0.29,-3.17,2.82,-9.97,17.89,-63.22,1.2,-0.6,-16.86,1.86,-3.11,Left Fall while Sitting
10:31.6,1002,513,769.5,1002,801,0.28,3608.11,3.91,68.51,265,170,133.21,133,17743,46589,303,0.89,0.38,-0.26,15.18,-3.81,-22.53,21.55,-61.15,3.16,-1.33,-19.58,3.9,-3.72,Left Fall while Sitting
10:31.8,1000,535,802.5,1002,764,0.34,2949.81,3.73,68.51,265,174,133.21,133,17743,76865,477,0.89,0.41,-0.31,-0.4,-6.16,-12.61,22.99,-58.42,3.18,-2.35,-21.06,3.98,-4.59,Left Fall while Sitting
10:31.9,1001,555,832.5,1002,748,0.37,2720,3.66,68.51,265,175,133.21,133,17743,107490,652,0.86,0.37,-0.32,-4.95,-4.99,-7.15,21.6,-58.73,2.63,-3.23,-21.86,3.39,-5.45,Left Fall while Sitting
10:32.0,1003,574,861,1003,735,0.39,2552.08,3.59,68.51,265,171,133.21,133,17743,136731,823,0.87,0.47,-0.33,5.49,3.02,-15.28,26.26,-55,3.39,-3.1,-23.67,4.3,-5.18,Left Fall while Sitting
10:32.1,1000,591,886.5,1003,734,0.39,2539.79,3.59,68.51,265,176,133.21,133,17743,167707,999,0.88,0.49,-0.33,-6.02,-6.39,-19.85,26.96,-54.66,2.7,-4.15,-26.05,3.67,-6.17,Left Fall while Sitting
10:32.3,828,600,900,1003,725,0.41,2432.89,3.54,68.51,265,174,133.21,133,17743,197983,1173,0.87,0.48,-0.3,13.65,-1.79,-18.93,26.68,-55.76,4.48,-4.62,-28.32,5.37,-6.67,Left Fall while Sitting
10:32.4,473,595,892.5,1003,727,0.41,2456.08,3.55,68.51,265,173,133.21,133,17743,227912,1346,0.84,0.49,-0.38,-15.52,-17.78,-8.77,27.55,-51.81,2.6,-7.12,-29.33,3.59,-8.9,Left Fall while Sitting
10:32.5,198,581,871.5,1003,735,0.39,2552.08,3.59,68.51,265,173,133.21,133,17743,257841,1519,0.72,0.53,-0.4,-17.66,-4.22,-17.62,32.4,-45.65,0.46,-7.89,-31.43,1.74,-9.4,Left Fall while Sitting
10:32.6,86,564,846,1003,736,0.39,2564.46,3.6,49.87,697,172,169.53,169,28741,0,0,0.77,0.56,-0.22,-19.28,-0.09,-12.4,34.27,-50.55,-1.85,-8.15,-32.86,-0.4,-9.85,Left Fall while Sitting
10:32.8,477,561,841.5,1003,732,0.4,2515.46,3.58,49.87,697,175,169.53,169,28741,30625,175,0.74,0.62,-0.32,-8.26,-0.95,-3.98,37.12,-44.82,-2.82,-8.52,-33.26,-1.22,-9.97,Left Fall while Sitting
10:32.9,51,544,816,1003,725,0.41,2432.89,3.54,49.87,697,174,169.53,169,28741,60901,349,0.76,0.61,-0.33,-3.05,0.97,-5.72,35.77,-45.96,-3.13,-8.65,-33.88,-1.57,-10.14,Left Fall while Sitting
10:33.0,114,531,796.5,1003,728,0.41,2467.8,3.56,49.87,697,177,169.53,169,28741,92230,526,0.76,0.6,-0.32,-2.7,2.64,-7.16,35.33,-46.81,-3.39,-8.57,-34.67,-1.85,-10.1,Left Fall while Sitting
10:33.1,258,523,784.5,1003,730,0.4,2491.47,3.57,49.87,697,191,169.53,169,28741,63175,717,0.69,0.66,-0.35,-13.31,-2.4,-2.96,39.98,-41.06,-4.99,-9.12,-34.94,-3.19,-10.4,Left Fall while Sitting
10:33.3,997,537,805.5,1003,727,0.41,2456.08,3.55,49.87,697,198,169.53,169,28741,36843,915,0.72,0.59,-0.27,6.96,4.42,-2.7,36.98,-46.43,-4.04,-8.82,-35.19,-2.4,-10.32,Left Fall while Sitting
10:33.4,434,534,801,1003,724,0.41,2421.4,3.54,49.87,697,194,169.53,169,28741,8943,1109,0.71,0.65,-0.32,-9.79,-0.31,-1.52,39.58,-42.67,-5.19,-9.1,-35.28,-3.4,-10.45,Left Fall while Sitting
10:33.5,76,521,781.5,1003,722,0.42,2398.67,3.53,49.87,697,190,169.53,169,28741,4294946803,1299,0.71,0.65,-0.33,-3.43,3.73,-3.05,39.16,-42.57,-5.56,-8.89,-35.56,-3.77,-10.23,Left Fall while Sitting
10:33.6,0,507,760.5,1003,719,0.42,2365.13,3.51,49.87,697,188,169.53,169,28741,4294916611,1487,0.75,0.65,-0.33,-10.89,1.78,1.32,37.85,-44.33,-6.86,-8.91,-35.3,-5.07,-10.33,Left Fall while Sitting
10:33.8,0,493,739.5,1003,718,0.42,2354.1,3.51,49.87,697,188,169.53,169,28741,4294886419,1675,0.71,0.63,-0.29,-5.33,5.94,5.93,39,-43.81,-7.46,-8.42,-34.45,-5.6,-9.83,Left Fall while Sitting
10:33.9,13,481,721.5,1003,717,0.43,2343.14,3.5,14.18,724,188,20724.04,186,429485632,0,0,0.75,0.63,-0.28,-1.04,5.15,12.62,37.58,-45.97,-7.52,-8.03,-32.79,-5.71,-9.55,Left Fall while Sitting
10:34.0,206,474,711,1003,717,0.43,2343.14,3.5,14.18,724,190,20724.04,186,429485632,4294937860,190,0.77,0.61,-0.3,0.75,2.66,18.62,35.89,-46.87,-7.35,-7.95,-30.32,-5.62,-9.5,Left Fall while Sitting
10:34.1,303,470,705,1003,715,0.43,2321.43,3.49,14.18,724,190,20724.04,186,429485632,4294908424,380,0.78,0.62,-0.3,-4.82,8.47,20.47,36.18,-46.76,-7.89,-7.12,-27.62,-6.13,-8.71,Left Fall while Sitting
10:34.3,200,464,696,1003,716,0.43,2332.25,3.5,14.18,724,188,20724.04,186,429485632,4294878232,568,0.79,0.52,-0.19,-12.09,3.22,50.22,32.05,-53.43,-9.36,-6.97,-21.14,-7.7,-8.83,Left Fall while Sitting
10:34.4,262,459,688.5,1003,715,0.43,2321.43,3.49,14.18,724,188,20724.04,186,429485632,4294848040,756,0.94,0.42,-0.21,5.49,7.63,37.85,22.86,-62.02,-8.59,-6.25,-16.23,-7.33,-8.49,Left Fall while Sitting
10:34.5,378,457,685.5,1003,712,0.44,2289.39,3.48,14.18,724,188,20724.04,186,429485632,4294817848,944,0.91,0.33,-0.28,2.25,3.76,45.05,18.53,-63.12,-8.23,-6.03,-10.46,-7.16,-8.32,Left Fall while Sitting
10:34.7,322,454,681,1003,715,0.43,2321.43,3.49,14.18,724,189,20724.04,186,429485632,4294788033,1133,0.9,0.23,-0.17,-6.03,-1.64,43.88,13.54,-70.77,-8.93,-6.5,-4.79,-8.03,-9.07,Left Fall while Sitting
10:34.8,488,455,682.5,1003,714,0.43,2310.68,3.49,14.18,724,189,20724.04,186,429485632,4294758218,1322,1.06,0.12,-0.3,-3.36,-5.69,23.27,5.74,-71.55,-9.28,-7.47,-1.73,-8.68,-10.04,Left Fall while Sitting
10:34.9,436,454,681,1003,707,0.45,2237.34,3.46,14.18,724,188,20724.04,186,429485632,4294728026,1510,0.98,0.11,-0.27,0.08,22.73,30.57,5.67,-71.77,-9.2,-4.84,2.25,-8.61,-7.52,Left Fall while Sitting
10:35.0,438,454,681,1003,707,0.45,2237.34,3.46,14.18,724,190,20724.04,186,429485632,4294698590,1700,1.09,0.07,-0.27,-4.15,1.19,10.91,2.98,-73.95,-9.66,-4.94,3.74,-9.15,-7.7,Left Fall while Sitting
10:35.2,380,452,678,1003,714,0.43,2310.68,3.49,20723.93,713,196,20723.59,189,429467136,0,0,0.98,-0.07,-0.16,-14.88,8.94,19.15,-4.5,-78.2,-11.43,-4.08,6.21,-11.16,-7.05,Left Fall while Sitting
10:35.3,993,463,694.5,1003,714,0.43,2310.68,3.49,20723.93,713,241,20723.59,189,429467136,4294959841,241,0.99,-0.07,-0.19,-21.82,1.73,33.66,-4.56,-76.79,-14.15,-4.12,10.62,-13.77,-7.02,Left Fall while Sitting
10:35.4,1002,474,711,1003,705,0.45,2216.98,3.45,20723.93,713,212,20723.59,189,429467136,4294939249,453,1.07,-0.09,-0.19,-14.08,5.68,4.44,-5.24,-77.39,-15.88,-3.65,11.29,-15.46,-6.6,Left Fall while Sitting
10:35.5,776,480,720,1003,707,0.45,2237.34,3.46,20723.93,713,202,20723.59,189,429467136,4294914517,655,1.02,-0.12,-0.17,-10.17,-4.39,-12.38,-7.44,-76.59,-17.1,-4.46,9.81,-16.72,-7.34,Left Fall while Sitting
10:35.7,106,473,709.5,1003,702,0.46,2186.92,3.43,20723.93,713,197,20723.59,189,429467136,4294887790,852,0.99,-0.1,-0.23,1.57,-4.59,-1.94,-6.36,-74.3,-16.83,-5.3,9.67,-16.41,-8.06,Left Fall while Sitting
10:35.8,500,473,709.5,1003,704,0.45,2206.9,3.44,20723.93,713,202,20723.59,189,429467136,4294863058,1054,1.04,-0.08,-0.2,9.34,-3.19,2.38,-4.83,-76.58,-15.56,-5.96,10.07,-15.13,-8.79,Left Fall while Sitting
10:35.9,869,480,720,1003,689,0.48,2062.87,3.37,20723.93,713,195,20723.59,189,429467136,4294835547,1249,1.02,-0.04,-0.29,-2.94,-9.71,-8.85,-2.73,-72.56,-15.87,-7.46,9.04,-15.34,-10.07,Left Fall while Sitting
10:36.1,269,476,714,1003,701,0.46,2177.02,3.43,20723.93,713,194,20723.59,189,429467136,4294807647,1443,0.92,-0.06,-0.23,-7.18,6.98,-10.99,-4.45,-73.96,-16.72,-6.83,7.74,-16.23,-9.51,Left Fall while Sitting
10:36.2,92,470,705,1003,701,0.46,2177.02,3.43,20723.93,713,201,20723.59,189,429467136,4294782512,1644,1.03,-0.05,-0.19,-1.82,12.29,2.6,-3.47,-77.51,-16.88,-5.52,8.17,-16.34,-8.4,Left Fall while Sitting
10:36.3,191,465,697.5,1003,700,0.46,2167.18,3.42,20723.93,713,195,20723.59,189,429467136,4294755001,1839,0.97,-0.04,-0.17,4.49,5.66,3.11,-2.96,-78.11,-16.23,-5.05,8.67,-15.7,-7.97,Left Fall while Sitting
10:36.4,442,465,697.5,1003,703,0.46,2196.87,3.44,20724.2,702,191,20723.72,203,429472608,0,0,1.01,-0.03,-0.23,-3.73,-10.36,2.03,-2.42,-75.52,-16.63,-6.6,9.02,-16.06,-9.35,Left Fall while Sitting
10:36.6,753,469,703.5,1003,750,0.36,2747.25,3.67,20724.2,702,865,20723.72,203,429472608,27329,865,0,0,0,-0.01,-0.01,-0.01,-35.84,36.84,-16.56,-6.85,9.12,-17.33,-5.11,Left Fall while Sitting
10:36.7,317,467,700.5,1003,689,0.48,2062.87,3.37,20724.2,702,185,20723.72,203,429472608,4294963314,1050,0,0,0,0,0,0, nan,nan,-16.48,-7.11,9.22,nan,nan,Left Fall while Sitting
10:36.8,787,472,708,1003,729,0.4,2479.59,3.56,20724.2,702,860,20723.72,203,429472608,14722,1910,0,0,0,-0.01,-0.01,-0.01,-35.84,36.84,-16.41,-7.36,9.32,-17.19,-5.59,Left Fall while Sitting
10:36.9,846,478,717,1003,749,0.37,2733.58,3.66,20724.2,702,934,20723.72,203,429472608,35110,2844,0,0,0,-0.01,-0.01,-0.01,-35.84,36.84,-16.34,-7.62,9.42,-17.12,-5.84,Left Fall while Sitting
10:37.1,821,483,724.5,1003,750,0.36,2747.25,3.67,20724.2,702,911,20723.72,203,429472608,13063,3755,0,0,0,-0.01,-0.01,-0.01,-35.84,36.84,-16.27,-7.87,9.52,-17.06,-6.08,Left Fall while Sitting
10:37.2,818,488,732,1003,734,0.39,2539.79,3.59,20724.2,702,177,20723.72,203,429472608,44392,3932,0,0,0,0,0,0, nan,nan,-16.2,-8.12,9.62,nan,nan,Left Fall while Sitting
10:37.3,0,481,721.5,1003,675,0.52,1939.66,3.3,20724.2,702,189,20723.72,203,429472608,14577,4121,0,0,0,0,0,0, nan,nan,-16.13,-8.37,9.71,nan,nan,Left Fall while Sitting
10:37.4,308,478,717,1003,672,0.52,1914.53,3.28,20724.2,702,187,20723.72,203,429472608,4294951306,4308,0,0,0,0,0,0, nan,nan,-16.06,-8.62,9.81,nan,nan,Left Fall while Sitting
10:37.6,0,471,706.5,1003,671,0.52,1906.25,3.28,20724.2,702,187,20723.72,203,429472608,4294920739,4495,0,0,0,0,0,0, nan,nan,-15.99,-8.87,9.91,nan,nan,Left Fall while Sitting
10:40.3,184,184,276,184,631,0.62,1609.69,3.08,0,0,186,0,0,0,4294904676,370,0.88,-0.44,-0.18,-12.44,5.01,17.15,-26.78,-59.94,-4.28,-0.2,0.83,-5.18,-2.59,Right Fall while Sitting
10:40.5,351,267,400.5,351,622,0.64,1551.12,3.04,0,0,186,0,0,0,4294873736,556,0.94,-0.36,-0.17,0.74,0.14,2.47,-21.33,-65.26,-4.12,-0.43,1.23,-4.81,-3.02,Right Fall while Sitting
10:40.6,718,417,625.5,718,632,0.62,1616.37,3.09,0,0,189,0,0,0,4294843921,745,0.93,-0.36,-0.23,4.4,-6.78,4.28,-21.08,-63.86,-3.51,-1.51,1.86,-4.21,-4,Right Fall while Sitting
10:40.7,851,526,789,851,637,0.61,1650.26,3.11,0,0,191,0,0,0,4294814866,936,0.93,-0.36,-0.26,20.56,4.76,14.84,-20.98,-62.89,-0.89,-1.17,3.8,-1.69,-3.64,Right Fall while Sitting
10:40.8,895,599,898.5,895,648,0.58,1728,3.17,0,0,186,0,0,0,4294783926,1122,0.94,-0.52,-0.2,9.92,4.03,8.1,-28.81,-57.87,0.41,-0.92,4.9,-0.76,-3.19,Right Fall while Sitting
10:40.9,870,644,966,895,629,0.63,1596.45,3.07,0,0,186,0,0,0,4294752986,1308,0.88,-0.5,-0.11,3.19,10.48,16.56,-29.81,-58.46,0.88,0.14,7.05,-0.35,-2.21,Right Fall while Sitting
10:41.1,835,672,1008,895,623,0.64,1557.5,3.04,0,0,187,0,0,0,4294722419,1495,0.88,-0.48,-0.2,4.79,7.29,24.13,-28.63,-57.81,1.54,0.79,10.14,0.34,-1.55,Right Fall while Sitting
10:41.2,693,674,1011,895,607,0.69,1459.13,2.97,0,0,187,0,0,0,4294691852,1682,0.84,-0.57,-0.14,-8.38,10.09,36.03,-34.17,-53.74,0.59,1.78,14.63,-0.8,-0.44,Right Fall while Sitting
10:41.3,673,674,1011,895,589,0.74,1357.14,2.88,33.76,627,185,20723.56,186,429466048,0,0,0.82,-0.64,-0.2,-14.75,12.18,18.62,-37.82,-49.09,-1.19,3.05,17.06,-2.65,0.97,Right Fall while Sitting
10:41.4,628,669,1003.5,895,596,0.72,1395.78,2.91,33.76,627,186,20723.56,186,429466048,4294936356,186,0.74,-0.7,-0.13,-6.79,7.98,30.31,-43.41,-44.62,-1.98,3.81,21.01,-3.63,1.87,Right Fall while Sitting
10:41.6,810,682,1023,895,627,0.63,1583.33,3.06,33.76,627,187,20723.56,186,429466048,4294905789,373,0.73,-0.68,-0.12,-3.67,-0.8,15.72,-43.12,-45.05,-2.37,3.46,23.1,-4,1.52,Right Fall while Sitting
10:41.7,861,697,1045.5,895,625,0.64,1570.35,3.05,33.76,627,187,20723.56,186,429466048,4294875222,560,0.74,-0.71,-0.12,2.18,4.97,10.98,-44.12,-44.05,-2.02,3.83,24.6,-3.71,1.92,Right Fall while Sitting
10:41.8,748,701,1051.5,895,621,0.65,1544.78,3.04,33.76,627,184,20723.56,186,429466048,4294843542,744,0.68,-0.78,-0.12,2.45,7.75,15.34,-48.74,-39.55,-1.64,4.56,26.63,-3.53,2.79,Right Fall while Sitting
10:42.0,619,695,1042.5,895,626,0.63,1576.83,3.06,33.76,627,185,20723.56,186,429466048,4294812231,929,0.7,-0.78,-0.14,-1.26,1.45,7.82,-48.08,-39.97,-1.73,4.49,27.72,-3.59,2.71,Right Fall while Sitting
10:42.1,803,702,1053,895,626,0.63,1576.83,3.06,33.76,627,186,20723.56,186,429466048,4294781291,1115,0.63,-0.77,-0.09,-2.17,0.24,4.87,-50.77,-37.77,-1.94,4.26,28.44,-3.89,2.58,Right Fall while Sitting
10:42.2,655,699,1048.5,895,624,0.64,1563.91,3.05,33.76,627,189,20723.56,186,429466048,4294751476,1304,0.7,-0.78,-0.11,-7.69,-3.03,2.73,-48.28,-40.05,-2.84,3.63,28.89,-4.65,1.88,Right Fall while Sitting
10:42.3,666,697,1045.5,895,620,0.65,1538.46,3.03,33.76,627,188,20723.56,186,429466048,4294721284,1492,0.69,-0.78,-0.16,0.66,-4.92,0.47,-48.3,-39.33,-2.68,2.75,29.05,-4.51,1.07,Right Fall while Sitting
10:42.5,549,689,1033.5,895,617,0.66,1519.7,3.02,33.76,627,184,20723.56,186,429466048,4294689604,1676,0.66,-0.79,-0.13,2.97,-0.77,7.99,-50.24,-37.86,-2.23,2.4,30.16,-4.15,0.79,Right Fall while Sitting
10:42.6,604,684,1026,895,622,0.64,1551.12,3.04,20724.26,620,185,20723.56,186,429465824,0,0,0.66,-0.79,-0.1,0.23,3.38,2.09,-50.06,-38.34,-2.13,2.57,30.52,-4.05,0.94,Right Fall while Sitting
10:42.7,514,676,1014,895,624,0.64,1563.91,3.05,20724.26,620,185,20723.56,186,429465824,4294935985,185,0.61,-0.81,-0.1,-6.4,5.73,-1.47,-53.58,-34.9,-2.88,3.05,30.44,-4.9,1.53,Right Fall while Sitting
10:42.8,559,670,1005,895,623,0.64,1557.5,3.04,20724.26,620,184,20723.56,186,429465824,4294904305,369,0.63,-0.81,-0.09,-4.26,5.02,1.93,-52.48,-36.07,-3.35,3.43,30.78,-5.31,1.85,Right Fall while Sitting
10:43.0,805,676,1014,895,624,0.64,1563.91,3.05,20724.26,620,184,20723.56,186,429465824,4294872625,553,0.63,-0.82,-0.11,-1.09,3.36,-2.6,-52.75,-35.6,-3.41,3.6,30.55,-5.39,2.03,Right Fall while Sitting
10:43.1,556,671,1006.5,895,626,0.63,1576.83,3.06,20724.26,620,186,20723.56,186,429465824,4294841685,739,0.62,-0.82,-0.1,-2.49,2.78,-1.04,-52.8,-35.66,-3.66,3.7,30.52,-5.62,2.13,Right Fall while Sitting
10:43.2,459,662,993,895,625,0.64,1570.35,3.05,20724.26,620,183,20723.56,186,429465824,4294809638,922,0.65,-0.8,-0.11,-2.44,-0.47,-4.9,-51.04,-37.35,-3.9,3.39,30,-5.78,1.76,Right Fall while Sitting
10:43.3,450,654,981,895,625,0.64,1570.35,3.05,20724.26,620,182,20723.56,186,429465824,4294777226,1104,0.6,-0.81,-0.08,-3.95,2.35,-5.56,-53.76,-34.91,-4.33,3.43,29.39,-6.31,1.9,Right Fall while Sitting
10:43.5,729,657,985.5,895,625,0.64,1570.35,3.05,20724.26,620,182,20723.56,186,429465824,4294744814,1286,0.69,-0.81,-0.15,0.15,0.24,-6.04,-49.32,-38.62,-4.24,3.21,28.72,-6.05,1.53,Right Fall while Sitting
10:43.6,482,650,975,895,627,0.63,1583.33,3.06,20724.26,620,186,20723.56,186,429465824,4294713874,1472,0.7,-0.79,-0.16,13.75,-0.16,-15.29,-48.3,-39.38,-2.43,2.93,26.88,-4.26,1.24,Right Fall while Sitting
10:43.7,559,647,970.5,895,627,0.63,1583.33,3.06,20724.26,620,187,20723.56,186,429465824,4294683307,1659,0.7,-0.76,-0.03,10.24,5.89,-28.19,-48.03,-40.91,-1.05,3.43,23.4,-2.93,1.65,Right Fall while Sitting
10:43.9,521,643,964.5,895,625,0.64,1570.35,3.05,20724.25,625,187,20723.55,184,429465280,0,0,0.73,-0.69,-0.05,7.64,0.27,-33.47,-44.07,-44.76,-0.02,3.21,19.28,-1.78,1.29,Right Fall while Sitting
10:44.0,715,645,967.5,895,626,0.63,1576.83,3.06,20724.25,625,184,20723.55,184,429465280,4294935616,184,0.74,-0.66,0.04,2.91,2.95,-34.36,-42.26,-46.62,0.42,3.33,15.02,-1.29,1.33,Right Fall while Sitting
10:44.1,380,636,954,895,606,0.69,1453.24,2.96,20724.25,625,187,20723.55,184,429465280,4294905049,371,0.82,-0.63,-0.15,13.06,-19.51,-46.6,-37.36,-50.39,2.14,0.62,9.25,0.56,-1.42,Right Fall while Sitting
10:44.2,416,629,943.5,895,629,0.63,1596.45,3.07,20724.25,625,182,20723.55,184,429465280,4294872637,553,0.88,-0.5,-0.05,-9.48,-12.27,-54.05,-30.22,-58.61,1,-1.21,2.43,-0.25,-3.5,Right Fall while Sitting
10:44.4,523,626,939,895,619,0.65,1532.18,3.03,20724.25,625,183,20723.55,184,429465280,4294840590,736,0.91,-0.38,-0.11,-5.12,-13.09,-39.65,-23,-65.07,0.42,-3.12,-2.5,-0.52,-5.6,Right Fall while Sitting
10:44.5,459,621,931.5,895,625,0.64,1570.35,3.05,20724.25,625,181,20723.55,184,429465280,4294873351,917,1,-0.21,-0.12,-11.54,-20.19,-56.03,-12.59,-74.56,-0.99,-5.96,-9.57,-1.45,-8.71,Right Fall while Sitting
10:44.6,555,619,928.5,895,623,0.64,1557.5,3.04,20724.25,625,182,20723.55,184,429465280,4294840939,1099,0.98,-0.13,-0.07,-30.76,2.02,-46.87,-8.32,-79.59,-4.86,-5.96,-15.47,-4.99,-8.91,Right Fall while Sitting
10:44.7,566,618,927,895,629,0.63,1596.45,3.07,20724.25,625,188,20723.55,184,429465280,4294810747,1287,1.07,-0.1,-0.24,-24.95,1.28,-48.28,-5.89,-74.93,-7.98,-6.05,-21.55,-7.89,-8.81,Right Fall while Sitting
10:44.9,376,611,916.5,895,628,0.63,1589.87,3.07,20724.25,625,183,20723.55,184,429465280,4294778700,1470,0.94,-0.01,-0.25,-33.71,4.05,8.69,-1.17,-73.43,-12.22,-5.79,-20.34,-11.78,-8.5,Right Fall while Sitting
10:45.0,190,600,900,895,622,0.64,1551.12,3.04,20724.25,625,190,20723.55,184,429465280,4294749264,1660,1.04,-0.03,-0.16,-2.85,34.56,-9.89,-2.21,-79.8,-12.52,-1.62,-21.5,-12.1,-4.75,Right Fall while Sitting
10:45.1,674,602,903,895,620,0.65,1538.46,3.03,20724.17,622,182,20723.7,184,429471680,0,0,1.04,-0.03,-0.14,15.58,12.1,-13.22,-2.32,-80.53,-10.48,-0.35,-23.07,-10.16,-3.56,Right Fall while Sitting
10:45.3,886,609,913.5,895,630,0.62,1603.05,3.08,20724.17,622,195,20723.7,184,429471680,4294939785,195,0.87,0.07,0.17,-22.77,9.84,-0.63,3.67,-76.48,-13.32,0.65,-23.05,-12.64,-2.43,Right Fall while Sitting
10:45.4,0,594,891,895,78,12.12,82.54,0.38,20724.17,622,134,20723.7,184,429471680,4294957741,329,1.06,0.02,-0.2,-10.65,-5.07,-1.89,0.47,-77.51,-14.6,-0.24,-23.19,-13.99,-3.33,Right Fall while Sitting
10:45.5,0,580,870,895,212,3.83,261.41,1.04,20724.17,622,142,20723.7,184,429471680,10609,471,1.02,0.01,-0.14,-8.08,-2.5,-2.04,0.24,-80.51,-15.55,-0.81,-23.34,-14.92,-4,Right Fall while Sitting
10:45.6,0,567,850.5,895,248,3.13,320,1.21,20724.17,622,142,20723.7,184,429471680,30773,613,0.99,-0.01,-0.14,-0.43,3.67,1.21,-1.07,-80.38,-15.53,-0.6,-23.09,-14.96,-3.79,Right Fall while Sitting
10:45.8,0,554,831,895,257,2.98,335.51,1.26,20724.17,622,146,20723.7,184,429471680,52089,759,0.99,0.05,-0.08,-2.2,7.18,-0.61,2.22,-83.18,-15.74,0.05,-23.07,-15.02,-3.28,Right Fall while Sitting
10:45.9,0,541,811.5,895,260,2.93,340.76,1.27,20724.17,622,145,20723.7,184,429471680,73114,904,1.04,0,-0.14,5.43,-4.82,1.13,-0.7,-80.95,-14.99,-0.8,-22.83,-14.42,-4.01,Right Fall while Sitting
10:46.0,0,530,795,895,261,2.92,342.52,1.28,20724.17,622,144,20723.7,184,429471680,93850,1048,1.01,0,-0.14,-0.89,-3.5,0.48,-0.32,-80.76,-15.03,-1.49,-22.67,-14.44,-4.66,Right Fall while Sitting
10:46.1,396,527,790.5,895,262,2.9,344.28,1.28,20724.17,622,144,20723.7,184,429471680,114586,1192,1.02,-0.01,-0.13,2.09,-9.88,1.98,-1.25,-81.26,-14.7,-3,-22.32,-14.16,-6.13,Right Fall while Sitting
10:46.3,774,532,798,895,262,2.9,344.28,1.28,20724.17,622,146,20723.7,184,429471680,135902,1338,1.04,0,-0.22,3.94,-3.21,-1.03,-0.57,-76.33,-14.12,-3.66,-22.35,-13.58,-6.57,Right Fall while Sitting
10:46.4,879,539,808.5,895,265,2.86,349.6,1.3,11,273,148,125.62,148,15779,0,0,1,-0.03,-0.14,-4.78,0.85,-0.44,-2.12,-80.1,-14.65,-3.81,-22.31,-14.15,-6.86,Right Fall while Sitting
10:46.5,998,548,822,998,268,2.82,354.97,1.31,11,273,148,125.62,148,15779,21904,148,1.03,-0.03,-0.2,-2.49,-1.35,-3.66,-2.44,-77.2,-14.89,-4.23,-22.66,-14.39,-7.15,Right Fall while Sitting
10:46.6,1000,557,835.5,1000,269,2.8,356.76,1.31,11,273,149,125.62,148,15779,44105,297,1.04,-0.01,-0.17,3.26,-1.97,-3.47,-0.93,-79.3,-14.41,-4.73,-23,-13.87,-7.71,Right Fall while Sitting
10:46.8,1000,566,849,1000,271,2.77,360.37,1.32,11,273,149,125.62,148,15779,66306,446,1.02,0,-0.21,2.9,3.57,0.24,-0.42,-76.82,-13.97,-4.53,-22.87,-13.43,-7.42,Right Fall while Sitting
10:46.9,999,574,861,1000,272,2.76,362.18,1.33,11,273,150,125.62,148,15779,88806,596,1.02,-0.01,-0.2,-1.16,11.69,-2.64,-1.12,-77.5,-14.05,-3.32,-23.1,-13.53,-6.29,Right Fall while Sitting
10:47.0,997,582,873,1000,273,2.75,364,1.33,11,273,149,125.62,148,15779,111007,745,1.01,-0.01,-0.13,-2.82,11.62,0.18,-0.87,-81.09,-14.33,-2.11,-22.98,-13.8,-5.27,Right Fall while Sitting
10:47.1,992,589,883.5,1000,275,2.72,367.65,1.34,11,273,151,125.62,148,15779,133808,896,1.02,0.01,-0.12,-1.9,3.63,1.78,-0.17,-81.44,-14.5,-1.9,-22.66,-13.93,-5.08,Right Fall while Sitting
10:49.7,665,665,997.5,665,263,2.89,346.05,1.29,0,0,137,0,0,0,38090,276,0.88,0.07,-0.82,17.63,-86.92,-29.25,2.94,-45.4,4.92,-19.54,-6.43,4.84,-20.57,Forward Fall while Sitting
10:49.8,216,440,660,665,262,2.9,344.28,1.28,0,0,137,0,0,0,56859,413,0.48,0.09,-0.73,3.15,-96.81,7.4,5.44,-31.58,5.37,-31.69,-5.43,5.38,-31.69,Forward Fall while Sitting
10:50.0,110,330,495,665,261,2.92,342.52,1.28,0,0,136,0,0,0,75355,549,0.53,0.06,-1,3.06,-54.77,-4.81,2.56,-26.11,5.82,-38.67,-5.92,5.69,-38.17,Forward Fall while Sitting
10:50.1,227,304,456,665,259,2.95,339.01,1.27,0,0,136,0,0,0,93851,685,0.42,0.04,-1.06,1.56,-34.98,-4.34,1.39,-20.16,6.08,-43.19,-6.35,5.89,-42.26,Forward Fall while Sitting
10:50.2,42,252,378,665,257,2.98,335.51,1.26,0,0,135,0,0,0,112076,820,0.38,0.03,-1.06,-4.37,4.45,2.68,1.04,-18.03,5.61,-42.88,-5.93,5.43,-41.89,Forward Fall while Sitting
10:50.3,264,254,381,665,257,2.98,335.51,1.26,0,0,135,0,0,0,130301,955,0.39,0.03,-1.01,-2.65,9.81,1.46,0.83,-19.54,5.35,-41.92,-5.65,5.17,-41.03,Forward Fall while Sitting
10:50.5,566,298,447,665,255,3.01,332.03,1.25,0,0,134,0,0,0,148257,1089,0.43,0.02,-0.98,-1.88,5.13,-0.35,0.6,-22.13,5.19,-41.54,-5.6,5.01,-40.77,Forward Fall while Sitting
10:50.6,948,379,568.5,948,256,3,333.77,1.25,0,0,135,0,0,0,166482,1224,0.45,0.05,-0.98,-2.12,24.35,2.31,2.18,-22.93,5,-38.8,-5.22,4.89,-38.16,Forward Fall while Sitting
10:50.7,843,431,646.5,948,256,3,333.77,1.25,39.42,259,134,135.81,135,18442,0,0,0.52,0.07,-0.99,-13.77,13.24,-1.31,3.08,-26.08,3.36,-37.4,-5.28,3.35,-36.95,Forward Fall while Sitting
10:50.8,411,429,643.5,948,255,3.01,332.03,1.25,39.42,259,134,135.81,135,18442,17956,134,0.49,0.06,-0.95,-3.07,-9.18,2.46,2.72,-25.6,3.05,-38.79,-4.88,3.04,-38.26,Forward Fall while Sitting
10:51.0,274,415,622.5,948,254,3.03,330.3,1.24,39.42,259,134,135.81,135,18442,35912,268,0.53,0.09,-1.07,9.15,-5.92,2.15,3.76,-24.8,4.26,-39.78,-4.51,4.24,-39.18,Forward Fall while Sitting
10:51.1,547,426,639,948,255,3.01,332.03,1.25,39.42,259,133,135.81,135,18442,53601,401,0.47,0.04,-0.98,9.62,-9.62,-4.43,1.37,-23.96,5.53,-41.22,-4.96,5.36,-40.53,Forward Fall while Sitting
10:51.2,783,453,679.5,948,254,3.03,330.3,1.24,39.42,259,133,135.81,135,18442,71290,534,0.4,0.05,-0.98,-3.79,-7.14,1.85,1.89,-20.72,5.13,-42.35,-4.63,5,-41.49,Forward Fall while Sitting
10:51.3,850,481,721.5,948,254,3.03,330.3,1.24,39.42,259,133,135.81,135,18442,88979,667,0.45,0.03,-0.97,-4.81,-1.76,2.87,1.17,-23.1,4.59,-42.82,-4.18,4.46,-42.03,Forward Fall while Sitting
10:51.4,396,476,714,948,254,3.03,330.3,1.24,39.42,259,134,135.81,135,18442,106935,801,0.4,0.04,-0.98,0.5,-1.85,-4.66,1.4,-20.85,4.73,-43.3,-4.66,4.59,-42.4,Forward Fall while Sitting
10:51.6,314,466,699,948,254,3.03,330.3,1.24,39.42,259,133,135.81,135,18442,124624,934,0.41,0.04,-1.02,-3.17,-2.67,-6.06,1.7,-20.53,4.4,-43.88,-5.32,4.29,-42.95,Forward Fall while Sitting
10:51.7,436,464,696,948,255,3.01,332.03,1.25,39.42,259,132,135.81,135,18442,142048,1066,0.4,0.04,-1.03,-3.63,-2.49,-0.65,1.52,-19.68,4.02,-44.44,-5.3,3.92,-43.45,Forward Fall while Sitting
10:51.8,905,488,732,948,255,3.01,332.03,1.25,39.42,259,133,135.81,135,18442,159737,1199,0.39,0.05,-1,-0.61,1.62,-1.13,1.9,-19.78,4.01,-44.49,-5.34,3.93,-43.5,Forward Fall while Sitting
10:52.0,420,485,727.5,948,255,3.01,332.03,1.25,20724.29,254,132,133.1,133,17715,0,0,0.4,0.03,-1.01,-1.3,3.17,-0.7,1.26,-20.04,3.92,-44.34,-5.33,3.81,-43.37,Forward Fall while Sitting
10:52.1,301,475,712.5,948,256,3,333.77,1.25,20724.29,254,131,133.1,133,17715,17161,131,0.4,0.04,-1,-2.55,2.37,0.66,1.72,-20.12,3.67,-44.3,-5.15,3.59,-43.33,Forward Fall while Sitting
10:52.2,227,464,696,948,256,3,333.77,1.25,20724.29,254,133,133.1,133,17715,34850,264,0.4,0.03,-1,-1.11,-1.95,-2.13,1.17,-20.29,3.6,-44.79,-5.32,3.51,-43.81,Forward Fall while Sitting
10:52.3,702,474,711,948,256,3,333.77,1.25,20724.29,254,133,133.1,133,17715,52539,397,0.39,0.04,-1.01,-1.33,-0.41,-2.27,1.62,-19.52,3.51,-45.09,-5.5,3.43,-44.07,Forward Fall while Sitting
10:52.5,793,488,732,948,256,3,333.77,1.25,20724.29,254,133,133.1,133,17715,70228,530,0.4,0.04,-1,-2.15,3.15,-0.37,1.51,-20.12,3.31,-44.95,-5.45,3.24,-43.95,Forward Fall while Sitting
10:52.6,327,481,721.5,948,255,3.01,332.03,1.25,20724.29,254,130,133.1,133,17715,87128,660,0.41,0.03,-1,-1.32,3.71,-0.3,1.14,-20.44,3.21,-44.73,-5.39,3.13,-43.76,Forward Fall while Sitting
10:52.7,275,473,709.5,948,257,2.98,335.51,1.26,20724.29,254,133,133.1,133,17715,104817,793,0.41,0.04,-1,-1.38,3.52,-1.69,1.58,-20.85,3.11,-44.54,-5.5,3.05,-43.6,Forward Fall while Sitting
10:52.8,628,479,718.5,948,256,3,333.77,1.25,20724.29,254,130,133.1,133,17715,121717,923,0.42,0.03,-0.99,-3.46,6.18,-0.24,1.24,-21.39,2.75,-44.02,-5.43,2.69,-43.12,Forward Fall while Sitting
10:52.9,866,493,739.5,948,257,2.98,335.51,1.26,20724.29,254,131,133.1,133,17715,138878,1054,0.43,0.04,-1,0.07,5.07,-1.52,1.4,-21.51,2.83,-43.64,-5.52,2.77,-42.75,Forward Fall while Sitting
10:53.1,363,489,733.5,948,256,3,333.77,1.25,20724.29,254,132,133.1,133,17715,156302,1186,0.46,0.02,-1,14.19,4.76,7.5,0.7,-22.94,4.67,-43.29,-4.48,4.51,-42.48,Forward Fall while Sitting
10:53.2,376,485,727.5,948,255,3.01,332.03,1.25,0,256,129,131.51,131,17293,0,0,0.47,0.03,-1.01,16.85,47.74,-4.53,0.8,-23.08,6.81,-37.67,-4.94,6.57,-37.08,Forward Fall while Sitting
10:53.3,459,484,726,948,255,3.01,332.03,1.25,0,256,131,131.51,131,17293,17161,131,0.55,-0.04,-0.89,16.92,95.32,-8.42,-2.61,-29.85,8.98,-26.09,-5.89,8.52,-26.24,Forward Fall while Sitting
10:53.4,480,484,726,948,257,2.98,335.51,1.26,0,256,128,131.51,131,17293,33545,259,0.66,0,-0.73,18.29,119.92,-15.85,-0.72,-40.67,11.32,-11.47,-7.76,10.84,-12.64,Forward Fall while Sitting
10:53.6,321,479,718.5,948,259,2.95,339.01,1.27,0,256,132,131.51,131,17293,50969,391,0.92,0,-0.53,-0.66,103.75,1.98,-0.53,-58.3,11.31,1.35,-7.41,10.83,-1.04,Forward Fall while Sitting
10:53.7,637,484,726,948,263,2.89,346.05,1.29,0,256,131,131.51,131,17293,68130,522,0.91,-0.04,-0.24,2.93,122.89,-9.08,-3.3,-73.59,11.74,16.34,-8.43,11.14,12.74,Forward Fall while Sitting
10:53.8,999,499,748.5,999,261,2.92,342.52,1.28,0,256,130,131.51,131,17293,85030,652,0.79,0.06,0.23,12.43,139.6,2.5,3.5,-71.44,13.36,33.54,-8.02,12.97,29.34,Forward Fall while Sitting
10:53.9,467,498,747,999,262,2.9,344.28,1.28,0,256,130,131.51,131,17293,101930,782,1.01,0.01,0.24,7.14,80.05,4.84,0,-74.84,14.32,43.22,-7.33,13.74,38.49,Forward Fall while Sitting
10:54.1,556,499,748.5,999,266,2.85,351.39,1.3,0,256,137,131.51,131,17293,120699,919,0.95,-0.02,0.35,-7.34,25.26,3.01,-1.57,-67.99,13.48,46.1,-6.85,12.87,41.54,Forward Fall while Sitting
10:54.2,728,506,759,999,274,2.73,365.82,1.34,0,256,139,131.51,131,17293,140020,1058,0.91,-0.05,0.38,2.2,6.31,-12.22,-3.26,-65.76,13.82,46.64,-8.28,13.14,42.14,Forward Fall while Sitting
10:54.3,653,509,763.5,999,278,2.68,373.15,1.36,0,256,141,131.51,131,17293,159901,1199,0.91,-0.01,0.34,3.24,-5.69,-2.27,-1.4,-68.1,14.3,45.68,-8.47,13.67,41.13,Forward Fall while Sitting
10:54.4,666,513,769.5,999,282,2.63,380.57,1.38,71.67,265,140,133.98,133,17949,0,0,0.92,0.01,0.33,2.92,-13.15,-1.01,-0.25,-68.56,14.72,43.82,-8.49,14.13,39.32,Forward Fall while Sitting
10:54.6,631,516,774,999,281,2.64,378.71,1.37,71.67,265,140,133.98,133,17949,19600,140,0.95,0,0.29,-1.42,-7.21,4.06,-0.47,-71.56,14.62,42.66,-7.89,14.01,38.09,Forward Fall while Sitting
10:54.7,520,516,774,999,278,2.68,373.15,1.36,71.67,265,138,133.98,133,17949,38644,278,0.96,-0.02,0.26,-4.43,3.38,-0.09,-2.02,-73.23,14.14,42.83,-7.8,13.49,38.19,Forward Fall while Sitting
10:54.8,335,512,768,999,275,2.72,367.65,1.34,71.67,265,135,133.98,133,17949,56869,413,0.95,-0.03,0.31,-6.63,8.91,-1.04,-2.11,-70.4,13.38,43.69,-7.83,12.76,39.13,Forward Fall while Sitting
10:54.9,305,507,760.5,999,273,2.75,364,1.33,71.67,265,138,133.98,133,17949,75913,551,0.93,-0.01,0.31,-2.14,-5.6,-0.7,-1.04,-69.68,13.19,42.75,-7.82,12.62,38.25,Forward Fall while Sitting
10:55.1,207,500,750,999,265,2.86,349.6,1.3,71.67,265,134,133.98,133,17949,93869,685,0.96,-0.04,0.28,-3.55,-3.53,2.06,-2.66,-72.12,12.82,42.06,-7.47,12.2,37.49,Forward Fall while Sitting
10:55.2,278,495,742.5,999,269,2.8,356.76,1.31,71.67,265,133,133.98,133,17949,111558,818,0.95,-0.04,0.3,-1.98,-1.14,-0.31,-2.64,-70.78,12.64,41.67,-7.41,12.03,37.17,Forward Fall while Sitting
10:55.3,293,491,736.5,999,269,2.8,356.76,1.31,71.67,265,133,133.98,133,17949,129247,951,0.96,-0.04,0.28,-1.65,-0.8,-1.15,-2.73,-72.06,12.5,41.32,-7.45,11.89,36.78,Forward Fall while Sitting
10:55.4,318,487,730.5,999,269,2.8,356.76,1.31,71.67,265,133,133.98,133,17949,146936,1084,0.96,-0.03,0.28,-0.89,-0.2,-1.21,-2.45,-71.93,12.46,41.04,-7.5,11.87,36.53,Forward Fall while Sitting
10:55.6,484,487,730.5,999,269,2.8,356.76,1.31,71.67,265,134,133.98,133,17949,164892,1218,0.96,-0.04,0.28,-0.68,2.63,-1.78,-2.8,-71.9,12.45,41.12,-7.63,11.84,36.6,Forward Fall while Sitting
10:55.7,505,488,732,999,270,2.79,358.57,1.32,91.43,271,134,135.22,135,18283,0,0,0.95,-0.03,0.29,-1.9,1.34,-1.04,-2.06,-71.6,12.28,41.04,-7.66,11.71,36.54,Forward Fall while Sitting
10:55.8,624,490,735,999,269,2.8,356.76,1.31,91.43,271,133,135.22,135,18283,17689,133,0.95,-0.03,0.29,-1.18,1.65,-1.37,-2.48,-71.31,12.2,41,-7.73,11.62,36.5,Forward Fall while Sitting
10:55.9,398,489,733.5,999,267,2.83,353.17,1.3,91.43,271,131,135.22,135,18283,34850,264,0.95,-0.03,0.29,-1.73,0.63,-1.13,-2.08,-71.55,12.06,40.83,-7.77,11.49,36.33,Forward Fall while Sitting
10:56.1,501,489,733.5,999,266,2.85,351.39,1.3,91.43,271,133,135.22,135,18283,52539,397,0.96,-0.04,0.28,-2.12,0.9,-1.22,-2.7,-71.95,11.86,40.69,-7.83,11.28,36.18,Forward Fall while Sitting
10:56.2,447,488,732,999,266,2.85,351.39,1.3,91.43,271,132,135.22,135,18283,69963,529,0.96,-0.03,0.28,-1.3,2.24,-0.79,-2.51,-72.21,11.77,40.72,-7.83,11.2,36.2,Forward Fall while Sitting
10:56.3,564,489,733.5,999,267,2.83,353.17,1.3,91.43,271,133,135.22,135,18283,87652,662,0.96,-0.04,0.29,-1.21,2.33,-0.24,-2.68,-71.43,11.69,40.76,-7.76,11.12,36.27,Forward Fall while Sitting
10:56.4,609,492,738,999,267,2.83,353.17,1.3,91.43,271,132,135.22,135,18283,105076,794,0.96,-0.04,0.3,-0.84,1.15,-0.56,-2.74,-70.92,11.66,40.65,-7.73,11.08,36.19,Forward Fall while Sitting
10:56.6,337,489,733.5,999,267,2.83,353.17,1.3,91.43,271,132,135.22,135,18283,122500,926,0.96,-0.04,0.29,-2.72,1.25,-0.56,-2.82,-71.6,11.39,40.56,-7.7,10.82,36.07,Forward Fall while Sitting
11:19.0,395,395,592.5,395,294,2.48,403.29,1.44,0,0,138,0,0,0,37269,273,1.01,0.08,0.09,12.11,-19.39,-8.78,3.77,-81.62,2.5,-3.56,-1.06,2.56,-6.68,Walking
11:19.2,645,520,780,645,298,2.43,411.03,1.46,0,0,139,0,0,0,56590,412,1.03,0.04,0.08,3.13,-13.27,4.59,1.65,-83.25,2.96,-5.43,-0.4,2.91,-8.55,Walking
11:19.3,995,678,1017,995,298,2.43,411.03,1.46,0,0,139,0,0,0,75911,551,0.97,0.01,0.11,-12.81,7.73,7.47,0.26,-81.93,1.46,-4.73,0.61,1.42,-7.82,Walking
11:19.4,905,735,1102.5,995,299,2.42,412.98,1.46,0,0,139,0,0,0,95232,690,1.07,0,0.13,-21.62,19.19,-2.44,-0.37,-81.67,-1.1,-2.64,0.41,-1.08,-5.8,Walking
11:19.5,899,767,1150.5,995,300,2.41,414.94,1.47,0,0,139,0,0,0,114553,829,1.15,0.14,0.06,-23.63,-4.47,-8.8,6.26,-81,-3.94,-3.43,-0.57,-3.53,-6.54,Walking
11:19.7,617,742,1113,995,300,2.41,414.94,1.47,0,0,140,0,0,0,134153,969,0.94,0.03,0.13,-32.3,4.2,-6.46,1.04,-80.33,-7.81,-3.17,-1.27,-7.46,-6.25,Walking
11:19.8,267,674,1011,995,301,2.4,416.9,1.47,0,0,140,0,0,0,153753,1109,1.03,0.07,0.15,-7.89,-5.58,-6.38,3.37,-78.98,-8.72,-4.1,-1.95,-8.23,-7.09,Walking
11:19.9,0,590,885,995,301,2.4,416.9,1.47,0,0,140,0,0,0,173353,1249,0.94,0.09,0.1,-9.4,-1.49,-3.52,4.67,-80.56,-9.8,-4.53,-2.29,-9.22,-7.57,Walking
11:20.0,80,533,799.5,995,298,2.43,411.03,1.46,152.57,298,135,138.41,138,19156,0,0,1.08,0.05,-0.05,-5.97,-3.47,-4.47,2.2,-84.57,-10.47,-5.2,-2.74,-9.96,-8.37,Walking
11:20.2,37,484,726,995,293,2.49,401.37,1.43,152.57,298,133,138.41,138,19156,17689,133,1.09,0.05,-0.1,1.01,-13.18,-9.05,2.24,-82.38,-10.27,-7.1,-3.77,-9.77,-10.11,Walking
11:20.3,662,500,750,995,292,2.5,399.45,1.43,152.57,298,133,138.41,138,19156,35378,266,1.01,0.03,0.06,12.92,4.82,3.44,1.09,-84.74,-8.59,-6.75,-3.25,-8.2,-9.87,Walking
11:20.4,186,474,711,995,291,2.52,397.54,1.42,152.57,298,132,138.41,138,19156,52802,398,1.01,0.05,0,5.99,-8.05,1.79,2.41,-85.43,-7.77,-7.99,-2.93,-7.37,-11.09,Walking
11:20.5,76,443,664.5,995,291,2.52,397.54,1.42,152.57,298,132,138.41,138,19156,70226,530,1.03,0.05,-0.01,4.92,-7.55,0.37,2.21,-85.61,-7.09,-9.18,-2.78,-6.72,-12.23,Walking
11:20.7,628,456,684,995,290,2.53,395.63,1.42,152.57,298,133,138.41,138,19156,87915,663,1.05,0.07,-0.08,-7.38,-6.32,-5.31,3.41,-82.31,-7.95,-10.22,-3.35,-7.49,-13.1,Walking
11:20.8,834,481,721.5,995,290,2.53,395.63,1.42,152.57,298,131,138.41,138,19156,105076,794,1.13,0.12,-0.09,-8.24,-16.41,4.41,5.58,-80.85,-8.91,-12.52,-2.7,-8.33,-15.25,Walking
11:20.9,538,485,727.5,995,290,2.53,395.63,1.42,152.57,298,132,138.41,138,19156,122500,926,1.01,0.01,0.03,-44.67,30.5,12.32,0.02,-86.7,-14.42,-8.96,-1.06,-13.84,-12.07,Walking
11:21.0,316,475,712.5,995,291,2.52,397.54,1.42,152.57,298,133,138.41,138,19156,140189,1059,1.04,0.03,0.09,-17.29,0.79,4.99,0.8,-83.22,-16.53,-9.11,-0.33,-15.84,-12.07,Walking
11:21.2,261,463,694.5,995,292,2.5,399.45,1.43,152.57,298,133,138.41,138,19156,157878,1192,0.99,-0.04,0.04,14.5,8.82,1,-2.93,-85.1,-14.66,-8.26,-0.11,-14.19,-11.34,Walking
11:21.3,799,481,721.5,995,299,2.42,412.98,1.46,140.27,291,132,132.4,132,17529,0,0,0.9,0,0,32.31,-12.03,-9.7,-0.69,-88.29,-10.59,-10,-1.21,-10.19,-13.13,Walking
11:21.4,718,492,738,995,301,2.4,416.9,1.47,140.27,291,132,132.4,132,17529,17424,132,1.08,-0.08,0.04,50,-4.29,7.22,-4.93,-83.62,-4.22,-10.8,-0.2,-4.24,-13.71,Walking
11:21.5,271,482,723,995,289,2.54,393.73,1.41,140.27,291,131,132.4,132,17529,34585,263,0.96,-0.01,-0.03,25.27,4.37,9.91,-1.37,-86.54,-0.99,-10.5,1.13,-1,-13.54,Walking
11:21.7,348,476,714,995,290,2.53,395.63,1.42,140.27,291,132,132.4,132,17529,52009,395,0.99,0,-0.06,1.19,-12.79,2.56,-0.83,-84.9,-0.77,-12.35,1.55,-0.77,-15.25,Walking
11:21.8,678,485,727.5,995,289,2.54,393.73,1.41,140.27,291,128,132.4,132,17529,68393,523,1.4,-0.03,-0.26,-40.4,-22.56,-10.14,-1.85,-77.67,-5.75,-15.42,0.38,-5.59,-17.91,Walking
11:21.9,823,499,748.5,995,292,2.5,399.45,1.43,140.27,291,131,132.4,132,17529,85554,654,1.15,0.09,-0.01,-10.32,-6.4,-25.35,4.09,-83.73,-6.97,-16.47,-2.69,-6.52,-19.16,Walking
11:22.0,179,486,729,995,291,2.52,397.54,1.42,140.27,291,132,132.4,132,17529,102978,786,1.04,0.06,-0.09,4.67,20.63,-13.56,2.46,-82.55,-6.31,-14.12,-4.3,-5.96,-16.86,Walking
11:22.2,324,480,720,995,292,2.5,399.45,1.43,140.27,291,132,132.4,132,17529,120402,918,0.98,0.14,-0.11,7.48,8.23,-0.33,7.56,-78.24,-5.3,-13.34,-4.24,-4.79,-15.94,Walking
11:22.3,871,494,741,995,293,2.49,401.37,1.43,140.27,291,133,132.4,132,17529,138091,1051,1.01,0.1,-0.06,-5.35,0.19,-0.5,4.97,-81.8,-5.9,-13.57,-4.2,-5.47,-16.3,Walking
11:22.4,562,496,744,995,295,2.47,405.22,1.44,140.27,291,133,132.4,132,17529,155780,1184,1,0.08,-0.02,3.05,10.79,-1.58,3.76,-83.96,-5.45,-12.47,-4.3,-5.08,-15.33,Walking
11:22.5,275,489,733.5,995,295,2.47,405.22,1.44,141.95,292,132,131.61,131,17319,0,0,1,0.11,-0.1,-3.48,5.52,-6.89,5.73,-80.06,-5.81,-12.03,-5.06,-5.35,-14.75,Walking
11:22.7,363,485,727.5,995,294,2.48,403.29,1.44,141.95,292,132,131.61,131,17319,17424,132,0.95,0.06,0,-4.39,14.87,-5.08,3.24,-84.6,-6.29,-10.42,-5.59,-5.91,-13.39,Walking
11:22.8,806,495,742.5,995,293,2.49,401.37,1.43,141.95,292,132,131.61,131,17319,34848,264,1.14,0.11,-0.01,0.89,-14.94,-21.74,5.17,-82.65,-6.11,-12.54,-8.21,-5.66,-15.34,Walking
11:22.9,592,498,747,995,294,2.48,403.29,1.44,141.95,292,131,131.61,131,17319,52009,395,1.01,0.07,-0.04,-16.11,3.43,1.42,3.61,-83.71,-8.04,-12.36,-7.94,-7.57,-15.22,Walking
11:23.0,316,492,738,995,292,2.5,399.45,1.43,141.95,292,131,131.61,131,17319,69170,526,1.08,0.15,-0.16,-17.89,11.41,6.73,7.35,-76.97,-10.2,-11.19,-7,-9.5,-13.82,Walking
11:23.2,373,489,733.5,995,292,2.5,399.45,1.43,141.95,292,130,131.61,131,17319,86070,656,0.95,0.14,-0.04,-23.73,-15.22,5.95,7.68,-79.8,-13.1,-13.34,-6.15,-12.27,-16,Walking
11:23.3,808,498,747,995,291,2.52,397.54,1.42,141.95,292,129,131.61,131,17319,102711,785,0.99,0.08,-0.03,-2.52,-1.99,16.15,4.13,-83.34,-13.35,-13.84,-4.02,-12.65,-16.62,Walking
11:23.4,526,499,748.5,995,290,2.53,395.63,1.42,141.95,292,129,131.61,131,17319,119352,914,1.1,0.08,-0.05,7.31,-6.53,9.27,3.71,-83.52,-12.36,-14.92,-2.75,-11.71,-17.66,Walking
11:23.5,115,488,732,995,289,2.54,393.73,1.41,141.95,292,126,131.61,131,17319,135228,1040,1.15,0.04,-0.19,14.01,-0.56,8.18,1.48,-78.9,-10.54,-15.24,-1.63,-10.05,-17.78,Walking
11:23.7,154,480,720,995,288,2.55,391.84,1.41,141.95,292,127,131.61,131,17319,151357,1167,1.01,0.06,-0.16,-3.66,-6.77,0.98,2.66,-78.85,-10.93,-16.34,-1.41,-10.38,-18.84,Walking
11:23.8,805,488,732,995,286,2.58,388.06,1.4,138.18,290,128,129.51,129,16773,0,0,1.05,0.01,-0.12,-2.52,-5.56,-6.85,-0.14,-81.92,-11.17,-17.28,-2.16,-10.73,-19.86,Walking
11:23.9,534,489,733.5,995,287,2.56,389.95,1.4,138.18,290,128,129.51,129,16773,16384,128,1.06,0.01,-0.12,-8.99,0.35,-0.98,0.17,-81.99,-12.22,-17.48,-2.18,-11.73,-20.06,Walking
11:24.0,258,483,724.5,995,287,2.56,389.95,1.4,138.18,290,127,129.51,129,16773,32513,255,1,0.01,-0.13,-14.55,-0.57,-2.16,0.12,-81.01,-13.97,-17.81,-2.36,-13.41,-20.33,Walking
11:24.2,393,481,721.5,995,286,2.58,388.06,1.4,138.18,290,128,129.51,129,16773,48897,383,1.02,0.01,-0.15,-7.3,1.01,-5.07,0.22,-79.98,-14.82,-17.93,-2.89,-14.22,-20.41,Walking
11:24.3,920,491,736.5,995,287,2.56,389.95,1.4,138.18,290,128,129.51,129,16773,65281,511,1.01,0.01,-0.11,-6.15,9.58,-1.4,0.2,-81.88,-15.52,-16.98,-2.97,-14.89,-19.58,Walking
11:24.4,822,499,748.5,995,288,2.55,391.84,1.41,138.18,290,128,129.51,129,16773,81665,639,1.02,0.04,-0.09,-14.5,14.87,-3.56,1.67,-82.77,-17.26,-15.37,-3.32,-16.5,-18.07,Walking
11:24.5,238,493,739.5,995,290,2.53,395.63,1.42,138.18,290,127,129.51,129,16773,97794,766,1.01,0.03,0.06,-2.7,19.36,3.85,1.38,-84.64,-17.53,-13.19,-2.73,-16.77,-16.05,Walking
11:24.7,470,493,739.5,995,290,2.53,395.63,1.42,138.18,290,128,129.51,129,16773,114178,894,1.01,0.01,0.09,-4.27,20.01,1.66,0.14,-83.06,-17.99,-10.94,-2.42,-17.27,-13.82,Walking
11:24.8,904,501,751.5,995,290,2.53,395.63,1.42,138.18,290,129,129.51,129,16773,130819,1023,1.01,0.05,0.06,10.18,8.34,1.27,2.23,-83.88,-16.66,-10.15,-2.17,-15.91,-13.1,Walking
11:24.9,530,502,753,995,292,2.5,399.45,1.43,138.18,290,129,129.51,129,16773,147460,1152,1.04,0.06,0.01,8.08,4.18,-3.82,2.69,-85.12,-15.58,-9.88,-2.55,-14.84,-12.89,Walking
11:25.0,227,496,744,995,293,2.49,401.37,1.43,134.13,289,129,128.1,128,16409,0,0,1.02,0.03,0.04,-4.66,-6.54,-12.12,0.87,-85.72,-16.08,-10.93,-3.94,-15.4,-13.92,Walking
11:25.2,397,494,741,995,293,2.49,401.37,1.43,134.13,289,129,128.1,128,16409,16641,129,0.93,-0.02,0.02,21.42,-18.12,-7.73,-1.55,-86.81,-13.31,-13.46,-4.82,-12.84,-16.4,Walking
11:25.3,980,504,756,995,290,2.53,395.63,1.42,134.13,289,130,128.1,128,16409,33541,259,1.04,0.09,0.02,30.1,-4.02,-12.32,4.3,-83.42,-9.48,-14.21,-6.26,-8.93,-16.98,Walking
11:25.4,683,507,760.5,995,289,2.54,393.73,1.41,134.13,289,130,128.1,128,16409,50441,389,1.04,0.06,-0.02,4.32,2.09,-3.79,2.59,-85,-8.87,-14.2,-6.63,-8.41,-17.04,Walking
11:25.5,261,503,754.5,995,289,2.54,393.73,1.41,134.13,289,128,128.1,128,16409,66825,517,1.03,0.1,-0.08,-14.99,-8.56,-4.52,5.12,-81.1,-10.67,-15.52,-7.1,-10.04,-18.15,Walking
11:25.7,504,503,754.5,995,292,2.5,399.45,1.43,134.13,289,129,128.1,128,16409,83466,646,1.07,0.16,0.05,4.56,4.24,8.11,7.83,-79.63,-10.03,-15.24,-5.98,-9.31,-17.82,Walking
11:25.8,926,510,765,995,292,2.5,399.45,1.43,134.13,289,130,128.1,128,16409,100366,776,0.85,0.19,-0.01,-2.83,20.77,-10.89,11.86,-75.96,-10.31,-12.91,-7.23,-9.42,-15.44,Walking
11:25.9,581,512,768,995,295,2.47,405.22,1.44,134.13,289,132,128.1,128,16409,117790,908,1,0.17,0.03,-26.63,-3.91,-0.73,8.98,-78.75,-13.59,-13.66,-7.22,-12.69,-16.26,Walking
11:26.0,177,506,759,995,297,2.44,409.09,1.45,134.13,289,130,128.1,128,16409,134690,1038,0.97,0.12,-0.01,-20.79,-2.92,-8.73,6.58,-81.24,-16.14,-14.28,-8.22,-15.23,-16.96,Walking
11:26.2,360,503,754.5,995,297,2.44,409.09,1.45,134.13,289,132,128.1,128,16409,152114,1170,1.07,0.13,-0.02,-15.21,10.65,11.44,6.11,-81.61,-17.99,-13.19,-6.68,-17.02,-15.93,Walking
11:26.3,815,508,762,995,297,2.44,409.09,1.45,142.76,293,129,129.9,129,16874,0,0,1.11,0.14,-0.08,-6.51,-6.35,2.05,6.61,-80.02,-18.73,-14.22,-6.33,-17.71,-16.86,Walking
11:26.4,324,505,757.5,995,294,2.48,403.29,1.44,142.76,293,128,129.9,129,16874,16384,128,1,0.1,-0.04,9.98,-9.89,-8.31,4.89,-82.49,-17.41,-15.71,-7.27,-16.52,-18.38,Walking
11:26.5,75,498,747,995,294,2.48,403.29,1.44,142.76,293,128,129.9,129,16874,32768,256,1,0.11,-0.01,0.38,0.52,-4.48,5.58,-82.22,-17.29,-15.89,-7.73,-16.38,-18.55,Walking
11:26.7,469,498,747,995,294,2.48,403.29,1.44,142.76,293,128,129.9,129,16874,49152,384,0.98,0.12,-0.03,-3.93,10.5,-2.92,6.58,-81,-17.71,-14.83,-8,-16.74,-17.48,Walking
11:26.8,743,502,753,995,295,2.47,405.22,1.44,142.76,293,128,129.9,129,16874,65536,512,1.06,0.13,0.07,-8.65,34.88,-3.55,6.56,-80.22,-18.73,-10.69,-8.34,-17.72,-13.47,Walking
11:26.9,350,499,748.5,995,293,2.49,401.37,1.43,142.76,293,130,129.9,129,16874,82436,642,0.89,0.17,0,-19.25,20.42,5.93,10.21,-77.63,-21.07,-8.39,-7.5,-19.82,-11.16,Walking
11:27.0,201,495,742.5,995,294,2.48,403.29,1.44,142.76,293,128,129.9,129,16874,98820,770,1.01,0.16,-0.07,-13.5,4.33,1.73,8.68,-78.43,-22.69,-8.09,-7.19,-21.43,-10.91,Walking
11:27.2,354,493,739.5,995,294,2.48,403.29,1.44,142.76,293,127,129.9,129,16874,114949,897,1.03,0.13,0.04,-3.19,13.5,-8.37,6.86,-80.62,-23.02,-6.65,-8.14,-21.82,-9.6,Walking
11:27.3,830,498,747,995,294,2.48,403.29,1.44,142.76,293,128,129.9,129,16874,131333,1025,0.96,0.13,0.07,1.24,18.25,12.39,7.24,-79.56,-22.79,-4.61,-6.5,-21.59,-7.61,Walking
11:27.4,260,494,741,995,294,2.48,403.29,1.44,142.76,293,128,129.9,129,16874,147717,1153,0.88,0.18,-0.04,-4.08,-17.36,-7.88,11.08,-76.52,-23.23,-7.03,-7.38,-21.86,-9.81,Walking
11:27.5,241,490,735,995,294,2.48,403.29,1.44,144.57,294,127,128,128,16383,0,0,1.09,0.08,0.1,7.78,-17.96,-11.41,3.44,-81.7,-22.2,-9.51,-8.7,-21.17,-12.4,Walking
11:27.7,880,496,744,995,293,2.49,401.37,1.43,144.57,294,127,128,128,16383,16129,127,1.01,0.07,-0.01,22.37,9.9,-9.64,3.15,-84.61,-19.33,-8.52,-9.81,-18.43,-11.57,Walking
11:27.8,984,503,754.5,995,293,2.49,401.37,1.43,144.57,294,127,128,128,16383,32258,254,0.98,0.18,-0.05,6.96,11.62,-6.53,9.82,-77.61,-18.39,-7.32,-10.52,-17.26,-10.13,Walking
11:27.9,590,504,756,995,293,2.49,401.37,1.43,144.57,294,127,128,128,16383,48387,381,0.98,0.17,-0.04,-5.97,8.85,-8.84,9.09,-78.42,-19.07,-6.46,-11.54,-17.94,-9.34,Walking
11:28.0,169,499,748.5,995,292,2.5,399.45,1.43,144.57,294,125,128,128,16383,64012,506,0.77,0.2,0.04,-18.24,-10.1,9.12,14.09,-73.49,-21.28,-7.97,-10.3,-19.87,-10.59,Walking
11:28.2,537,500,750,995,292,2.5,399.45,1.43,144.57,294,126,128,128,16383,79888,632,0.89,0.26,0.28,-8.89,-0.66,1.36,14.78,-65.13,-22.32,-8.3,-10.03,-20.84,-10.57,Walking
11:28.3,861,505,757.5,995,295,2.47,405.22,1.44,144.57,294,128,128,128,16383,96272,760,0.88,0.18,0.09,-22.45,10.52,2.34,10.62,-75.77,-25.06,-7.24,-9.64,-23.63,-9.98,Walking
11:28.4,398,503,754.5,995,298,2.43,411.03,1.46,144.57,294,130,128,128,16383,113172,890,0.97,0.25,0.09,1.91,-1.97,-2.24,13.84,-73.05,-24.75,-7.73,-9.82,-23.21,-10.34,Walking
11:28.5,299,501,751.5,995,300,2.41,414.94,1.47,144.57,294,128,128,128,16383,129556,1018,0.94,0.17,0.06,10.22,14.64,-1.14,9.78,-77.35,-23.4,-6.15,-9.86,-22.07,-9,Walking
11:28.7,332,499,748.5,995,299,2.42,412.98,1.46,144.57,294,130,128,128,16383,146456,1148,0.9,0.25,-0.04,-4.43,-13.98,-3.38,14.85,-72.81,-23.89,-8.15,-10.19,-22.34,-10.74,Walking
11:28.8,836,503,754.5,995,299,2.42,412.98,1.46,147.42,295,129,127.71,127,16308,0,0,0.94,0.15,-0.07,15.63,-16.87,5.24,8.62,-78.21,-21.86,-10.51,-9.43,-20.64,-13.22,Walking
11:28.9,693,505,757.5,995,299,2.42,412.98,1.46,147.42,295,130,127.71,127,16308,16900,130,1.1,0.15,0.12,33.23,-16.93,-17.24,7.36,-78.34,-17.64,-12.87,-11.49,-16.64,-15.49,Walking
11:29.0,299,503,754.5,995,299,2.42,412.98,1.46,147.42,295,129,127.71,127,16308,33541,259,0.99,0.2,-0.03,5.48,14.25,-0.56,10.9,-76.85,-16.88,-11.33,-11.46,-15.77,-13.95,Walking
11:29.2,580,504,756,995,297,2.44,409.09,1.45,147.42,295,126,127.71,127,16308,49417,385,1.02,0.22,-0.15,-20.42,-7.01,-7.12,11.42,-73.82,-19.36,-12.46,-12.25,-18.13,-14.91,Walking
11:29.3,788,507,760.5,995,297,2.44,409.09,1.45,147.42,295,127,127.71,127,16308,65546,512,0.96,0.27,-0.05,-8.24,-13.44,-3.11,14.92,-72.59,-20.33,-14.4,-12.54,-18.92,-16.73,Walking
11:29.4,179,503,754.5,995,298,2.43,411.03,1.46,147.42,295,127,127.71,127,16308,81675,639,1.01,0.28,0.05,-22.12,1.01,-8.45,15.06,-72.53,-23.04,-14.53,-13.51,-21.52,-16.85,Walking
11:29.5,235,500,750,995,301,2.4,416.9,1.47,147.42,295,130,127.71,127,16308,98575,769,0.98,0.27,-0.03,-21.24,-3.32,-6.5,15.01,-72.75,-25.65,-15.2,-14.23,-24.02,-17.5,Walking
11:29.7,790,503,754.5,995,301,2.4,416.9,1.47,147.42,295,131,127.71,127,16308,115736,900,0.99,0.25,0.07,-0.16,15.14,-13.92,13.66,-73.55,-25.6,-13.54,-15.88,-24.03,-15.94,Walking
11:29.8,599,504,756,995,303,2.38,420.83,1.48,147.42,295,130,127.71,127,16308,132636,1030,0.95,0.27,0.02,8.82,15.27,1.43,15.38,-72.43,-24.42,-11.87,-15.6,-22.83,-14.29,Walking
11:29.9,130,500,750,995,302,2.39,418.86,1.48,147.42,295,131,127.71,127,16308,149797,1161,0.93,0.34,0.04,3.81,-5.53,13.59,19.5,-68.18,-23.87,-12.81,-13.81,-22.14,-15.03,Walking
11:30.0,421,499,748.5,995,304,2.37,422.81,1.49,156.62,300,131,129.21,129,16694,0,0,0.86,0.26,-0.09,18.16,-30.1,5.14,16.04,-70.82,-21.53,-16.82,-13.06,-20.03,-18.98,Walking
11:30.2,997,505,757.5,997,306,2.34,426.78,1.5,156.62,300,133,129.21,129,16694,17689,133,1.03,0.23,-0.22,16.4,-32.15,-8.58,11.6,-71.32,-19.41,-21.09,-14.04,-18.17,-23.1,Walking
11:30.3,983,510,765,997,307,2.33,428.77,1.5,156.62,300,135,129.21,129,16694,35914,268,0.93,0.27,-0.28,-17.32,-20.78,0.47,14.93,-65.81,-21.52,-23.96,-13.88,-20.06,-25.64,Walking
11:30.4,467,510,765,997,308,2.32,430.77,1.51,156.62,300,134,129.21,129,16694,53870,402,0.75,0.17,-0.08,-5.61,-23.86,-3.95,12.12,-74.4,-22.16,-27.22,-14.28,-20.79,-29.11,Walking
11:30.5,608,511,766.5,997,306,2.34,426.78,1.5,156.62,300,130,129.21,129,16694,70770,532,1.38,0.4,-0.33,-13.56,19.39,8.97,15.05,-67.94,-23.78,-25.05,-13.06,-22.23,-26.76,Walking
11:30.7,579,511,766.5,997,307,2.33,428.77,1.5,156.62,300,134,129.21,129,16694,88726,666,0.96,0.22,-0.22,2.73,6.88,-0.85,11.72,-70.52,-23.37,-24.44,-13.07,-21.97,-26.28,Walking
11:30.8,0,506,759,997,309,2.31,432.77,1.51,156.62,300,133,129.21,129,16694,106415,799,0.97,0.23,-0.18,5.82,16.35,10.7,12.48,-71.56,-22.57,-22.63,-11.62,-21.17,-24.59,Walking
11:30.9,133,502,753,997,310,2.3,434.78,1.52,156.62,300,135,129.21,129,16694,124640,934,1.14,0.23,-0.21,8.06,0.08,8.29,10.76,-72.99,-21.49,-22.87,-10.48,-20.2,-24.87,Walking
11:31.1,478,502,753,997,309,2.31,432.77,1.51,156.62,300,134,129.21,129,16694,142596,1068,1.13,0.27,-0.28,-17.69,-7.5,-0.79,12.35,-69.62,-23.65,-24.07,-10.48,-22.21,-25.89,Walking
11:31.2,303,500,750,997,308,2.32,430.77,1.51,156.62,300,133,129.21,129,16694,160285,1201,1.07,0.22,-0.3,-9.7,-0.53,-8.84,10.36,-69.39,-24.8,-24.39,-11.5,-23.39,-26.19,Walking
11:31.3,276,497,745.5,997,308,2.32,430.77,1.51,170.9,307,135,133.61,133,17850,0,0,0.79,0.18,-0.27,3.48,19.51,-2.33,11.5,-65.92,-24.3,-22.2,-11.69,-22.86,-23.95,Walking
11:31.4,327,496,744,997,308,2.32,430.77,1.51,170.9,307,135,133.61,133,17850,18225,135,0.9,0.25,-0.25,-8.11,57.86,6.12,14.29,-67.19,-25.24,-15.21,-10.83,-23.66,-17.29,Walking
16:55.6,608,608,912,608,312,2.28,438.82,1.52,0,0,134,0,0,0,35645,267,1.03,-0.07,-0.13,-2.15,-0.05,-1.05,-4.19,-80.35,-0.48,-0.32,-0.02,-0.62,-3.52,Relax
16:55.8,537,572,858,608,311,2.29,436.8,1.52,0,0,136,0,0,0,54141,403,1.01,-0.06,-0.11,-3.28,1.92,-0.83,-4.09,-81.36,-0.81,-0.33,-0.03,-0.94,-3.57,Relax
16:55.9,562,569,853.5,608,314,2.26,442.88,1.53,0,0,137,0,0,0,72910,540,1.02,-0.07,-0.12,-1.05,-0.61,-1.76,-4.41,-80.92,-0.87,-0.65,-0.15,-1.01,-3.86,Relax
16:56.0,547,563,844.5,608,315,2.25,444.92,1.54,0,0,136,0,0,0,91406,676,1.02,-0.06,-0.13,-3.43,0.94,-1.66,-4.19,-80.2,-1.22,-0.78,-0.25,-1.34,-3.96,Relax
16:56.1,605,571,856.5,608,316,2.24,446.96,1.54,0,0,137,0,0,0,110175,813,1.01,-0.06,-0.12,-1.66,0.94,-0.58,-4.12,-81.02,-1.36,-0.91,-0.23,-1.47,-4.11,Relax
16:56.3,493,558,837,608,316,2.24,446.96,1.54,0,0,136,0,0,0,128671,949,1.01,-0.06,-0.12,-1.86,2,-0.5,-4.19,-80.61,-1.52,-0.91,-0.19,-1.63,-4.1,Relax
16:56.4,515,552,828,608,314,2.26,442.88,1.53,0,0,135,0,0,0,146896,1084,1.02,-0.06,-0.11,-2.49,1.4,-0.35,-4.01,-81.36,-1.75,-0.98,-0.14,-1.84,-4.2,Relax
16:56.5,664,566,849,664,315,2.25,444.92,1.54,0,0,140,0,0,0,166496,1224,1.01,-0.07,-0.11,-2.23,-0.8,-0.27,-4.51,-80.88,-1.96,-1.33,-0.07,-2.06,-4.51,Relax
16:56.6,541,563,844.5,664,315,2.25,444.92,1.54,20723.84,314,135,135.91,135,18471,0,0,1.02,-0.07,-0.13,-1.56,-0.41,-1.15,-4.45,-80.35,-2.09,-1.63,-0.12,-2.18,-4.78,Relax
16:56.7,477,554,831,664,316,2.24,446.96,1.54,20723.84,314,137,135.91,135,18471,18769,137,1.02,-0.07,-0.14,-1.85,0.6,-1.01,-4.43,-79.95,-2.25,-1.8,-0.15,-2.33,-4.93,Relax
16:56.9,462,546,819,664,317,2.23,449.01,1.55,20723.84,314,136,135.91,135,18471,37265,273,1.02,-0.07,-0.13,-1.79,0.71,-1.45,-4.49,-80.17,-2.4,-1.96,-0.23,-2.49,-5.09,Relax
16:57.0,458,539,808.5,664,314,2.26,442.88,1.53,20723.84,314,138,135.91,135,18471,56309,411,1.01,-0.06,-0.11,-1.89,1.54,-1.74,-3.95,-81.24,-2.57,-2.02,-0.35,-2.62,-5.19,Relax
16:57.1,433,530,795,664,312,2.28,438.82,1.52,20723.84,314,134,135.91,135,18471,74265,545,1.02,-0.05,-0.13,-2.73,-0.29,-0.55,-3.43,-80.76,-2.84,-2.31,-0.32,-2.86,-5.45,Relax
16:57.2,491,528,792,664,314,2.26,442.88,1.53,20723.84,314,136,135.91,135,18471,92761,681,1.02,-0.07,-0.13,-2.02,1.11,-0.98,-4.67,-80.28,-3.02,-2.42,-0.34,-3.09,-5.53,Relax
16:57.4,372,517,775.5,664,313,2.27,440.85,1.53,20723.84,314,136,135.91,135,18471,111257,817,1,-0.04,-0.1,-4.74,-3.72,2.01,-3.1,-81.95,-3.55,-3.14,0.01,-3.53,-6.29,Relax
16:57.5,433,512,768,664,312,2.28,438.82,1.52,20723.84,314,138,135.91,135,18471,130301,955,1.03,-0.09,-0.15,-11.05,2.27,-5.71,-5.69,-78.9,-4.86,-3.11,-0.61,-4.89,-6.14,Relax
16:57.6,432,507,760.5,664,312,2.28,438.82,1.52,20723.84,314,135,135.91,135,18471,148526,1090,1.02,-0.07,-0.14,-4.01,7.56,-4.55,-4.61,-79.73,-5.29,-2.41,-1.08,-5.26,-5.5,Relax
16:57.7,426,503,754.5,664,313,2.27,440.85,1.53,20723.84,314,136,135.91,135,18471,167022,1226,1,-0.08,-0.06,-2.15,4.85,-10.02,-4.9,-82.77,-5.49,-2.05,-2.24,-5.47,-5.28,Relax
16:57.9,388,497,745.5,664,315,2.25,444.92,1.54,13,313,136,136.2,136,18550,0,0,1.03,-0.03,-0.12,-1.21,12.74,-0.28,-2.46,-81.51,-5.57,-0.72,-2.17,-5.45,-3.95,Relax
16:58.0,540,499,748.5,664,315,2.25,444.92,1.54,13,313,137,136.2,136,18550,18769,137,1,-0.04,-0.15,0.21,-6.04,0.26,-2.81,-79.76,-5.48,-1.72,-2.04,-5.37,-4.84,Relax
16:58.1,794,513,769.5,794,313,2.27,440.85,1.53,13,313,136,136.2,136,18550,37265,273,1.04,-0.07,0.02,-4.47,30.5,9.64,-4.37,-84.49,-5.96,1.82,-0.75,-5.9,-1.64,Relax
16:58.2,575,516,774,794,313,2.27,440.85,1.53,13,313,136,136.2,136,18550,55761,409,1.04,-0.07,-0.02,9.98,-6.16,7.1,-4.34,-84.52,-4.64,0.8,0.23,-4.63,-2.62,Relax
16:58.4,184,501,751.5,794,314,2.26,442.88,1.53,13,313,137,136.2,136,18550,74530,546,1.02,-0.08,-0.05,-1.67,-2.52,1.19,-5.12,-82.93,-4.78,0.24,0.48,-4.8,-3.09,Relax
16:58.5,224,490,735,794,314,2.26,442.88,1.53,13,313,136,136.2,136,18550,93026,682,1.03,-0.09,-0.04,-11.64,-2.53,-5.07,-5.85,-82.6,-6.16,-0.33,-0.05,-6.14,-3.62,Relax
16:58.6,826,503,754.5,826,313,2.27,440.85,1.53,13,313,135,136.2,136,18550,111251,817,0.98,-0.09,-0.08,-2.08,-7.59,-2.05,-6.01,-81.15,-6.35,-1.52,-0.21,-6.33,-4.71,Relax
16:58.8,865,517,775.5,865,312,2.28,438.82,1.52,13,313,135,136.2,136,18550,129476,952,1.04,-0.08,-0.11,-0.49,-1.61,-5.43,-4.89,-80.83,-6.34,-1.98,-0.79,-6.28,-5.13,Relax
16:58.9,447,514,771,865,312,2.28,438.82,1.52,13,313,135,136.2,136,18550,147701,1087,1.01,-0.11,-0.09,-5.11,1.21,2.2,-6.62,-80.64,-6.91,-2.07,-0.41,-6.9,-5.22,Relax
16:59.0,284,506,759,865,313,2.27,440.85,1.53,13,313,137,136.2,136,18550,166470,1224,1.02,-0.07,-0.08,5.45,-5.17,-3.21,-4.25,-82.64,-6.17,-2.96,-0.71,-6.09,-6.15,Relax
16:59.1,454,504,756,865,313,2.27,440.85,1.53,113.57,313,137,136.1,136,18522,0,0,1.02,-0.06,-0.13,-3.69,-1.37,1.31,-3.69,-80.42,-6.55,-3.38,-0.45,-6.44,-6.46,Relax
16:59.2,743,512,768,865,313,2.27,440.85,1.53,113.57,313,136,136.1,136,18522,18496,136,1.03,-0.1,-0.13,-12.27,1.92,-0.56,-5.84,-79.68,-8.02,-3.39,-0.42,-7.93,-6.44,Relax
16:59.4,798,521,781.5,865,312,2.28,438.82,1.52,113.57,313,137,136.1,136,18522,37265,273,1.02,-0.11,-0.1,-16.76,0.65,-5.37,-6.71,-80.06,-10.04,-3.56,-0.99,-9.91,-6.62,Relax
16:59.5,374,517,775.5,865,311,2.29,436.8,1.52,113.57,313,137,136.1,136,18522,56034,410,1.03,-0.07,-0.11,-2.18,-2.93,-3.98,-4.61,-80.91,-10.24,-4.18,-1.39,-10.02,-7.25,Relax
16:59.6,411,514,771,865,311,2.29,436.8,1.52,113.57,313,136,136.1,136,18522,74530,546,1.02,-0.08,-0.12,-5.23,-3.52,-2.24,-4.84,-80.63,-10.83,-4.87,-1.58,-10.59,-7.9,Relax
16:59.8,743,520,780,865,312,2.28,438.82,1.52,113.57,313,138,136.1,136,18522,93574,684,1.03,-0.08,-0.14,-5.62,-4.58,-5.33,-5.1,-79.46,-11.46,-5.69,-2.14,-11.21,-8.64,Relax
16:59.9,720,526,789,865,314,2.26,442.88,1.53,113.57,313,141,136.1,136,18522,113455,825,1.02,-0.05,-0.16,-0.27,-2.76,-0.01,-3.45,-79.27,-11.42,-6.29,-2.04,-11.1,-9.21,Relax
17:00.0,571,527,790.5,865,316,2.24,446.96,1.54,113.57,313,140,136.1,136,18522,133055,965,1.02,-0.05,-0.15,-2.99,-0.67,-2.92,-3.63,-79.36,-11.73,-6.62,-2.31,-11.4,-9.53,Relax
17:00.1,508,527,790.5,865,318,2.22,451.06,1.55,113.57,313,142,136.1,136,18522,153219,1107,1.02,-0.06,-0.16,-2.7,-1.5,-0.94,-3.9,-79.07,-12,-7.06,-2.33,-11.67,-9.94,Relax
17:00.3,979,539,808.5,979,318,2.22,451.06,1.55,113.57,313,139,136.1,136,18522,172540,1246,1.02,-0.06,-0.17,-1.3,-4.31,-2.03,-3.91,-78.24,-12.09,-7.86,-2.49,-11.76,-10.67,Relax
17:00.4,390,535,802.5,979,314,2.26,442.88,1.53,15.33,313,138,138.41,138,19157,0,0,1.01,-0.06,-0.19,-2.82,-1.76,-1.98,-4.09,-77.47,-12.37,-8.32,-2.63,-12.04,-11.09,Relax
17:00.5,153,525,787.5,979,315,2.25,444.92,1.54,15.33,313,138,138.41,138,19157,19044,138,1.01,-0.05,-0.18,-1.95,-1.21,-1.73,-3.45,-78.04,-12.54,-8.73,-2.75,-12.18,-11.5,Relax
17:00.6,440,523,784.5,979,315,2.25,444.92,1.54,15.33,313,141,138.41,138,19157,38925,279,1.01,-0.06,-0.19,-4.42,-3.91,-1.49,-3.98,-77.38,-13.03,-9.47,-2.84,-12.67,-12.19,Relax
17:00.8,805,530,795,979,316,2.24,446.96,1.54,15.33,313,138,138.41,138,19157,57969,417,1.02,-0.06,-0.21,-1.72,1.22,-1.4,-3.94,-76.2,-13.18,-9.57,-2.91,-12.81,-12.23,Relax
17:00.9,389,527,790.5,979,312,2.28,438.82,1.52,15.33,313,137,138.41,138,19157,76738,554,1.01,-0.06,-0.19,-2.12,0.92,-1.04,-3.82,-77.19,-13.37,-9.7,-2.95,-12.99,-12.4,Relax
17:01.0,66,516,774,979,311,2.29,436.8,1.52,15.33,313,140,138.41,138,19157,96338,694,1.01,-0.05,-0.19,-1.27,-2.45,-2.17,-3.6,-77.55,-13.46,-10.26,-3.12,-13.07,-12.95,Relax
17:01.1,358,513,769.5,979,313,2.27,440.85,1.53,15.33,313,138,138.41,138,19157,115382,832,1.02,-0.05,-0.22,-2.02,-2.44,-2.02,-3.48,-76.15,-13.64,-10.82,-3.27,-13.24,-13.43,Relax
17:01.3,917,521,781.5,979,312,2.28,438.82,1.52,15.33,313,138,138.41,138,19157,134426,970,1.01,-0.04,-0.2,-1.46,-3.38,-0.96,-2.87,-76.89,-13.76,-11.5,-3.29,-13.32,-14.11,Relax
17:01.4,338,517,775.5,979,311,2.29,436.8,1.52,15.33,313,138,138.41,138,19157,153470,1108,1.01,-0.06,-0.23,-1.34,-2.66,-0.24,-3.68,-75.27,-13.86,-12.08,-3.23,-13.45,-14.61,Relax
17:01.5,209,511,766.5,979,314,2.26,442.88,1.53,15.33,313,140,138.41,138,19157,173070,1248,1.01,-0.05,-0.23,-1.43,-0.07,-0.08,-3.3,-75.43,-13.96,-12.34,-3.14,-13.54,-14.86,Relax
17:01.6,570,512,768,979,314,2.26,442.88,1.53,20724.3,313,142,139.01,139,19322,0,0,1.01,-0.06,-0.24,-1.34,-0.39,1.82,-3.66,-74.95,-14.06,-12.63,-2.81,-13.65,-15.13,Relax
17:01.8,926,520,780,979,314,2.26,442.88,1.53,20724.3,313,142,139.01,139,19322,20164,142,1.01,-0.07,-0.24,-0.69,0.08,-0.07,-4.33,-74.84,-14.08,-12.88,-2.72,-13.69,-15.36,Relax
17:01.9,220,515,772.5,979,313,2.27,440.85,1.53,20724.3,313,141,139.01,139,19322,40045,283,1.01,-0.06,-0.23,-1.06,0.92,0.14,-4.09,-75.29,-14.14,-13.01,-2.6,-13.74,-15.5,Relax
17:02.0,160,508,762,979,312,2.28,438.82,1.52,20724.3,313,139,139.01,139,19322,59366,422,1.01,-0.07,-0.24,-2.01,-3.33,2.82,-4.38,-74.58,-14.32,-13.68,-2.15,-13.93,-16.12,Relax
17:02.1,707,511,766.5,979,313,2.27,440.85,1.53,20724.3,313,139,139.01,139,19322,78687,561,1.01,-0.08,-0.28,-3.02,-1.23,0.26,-5.14,-72.5,-14.63,-14.09,-2.02,-14.25,-16.43,Relax
17:02.3,593,513,769.5,979,313,2.27,440.85,1.53,20724.3,313,140,139.01,139,19322,98287,701,0.99,-0.09,-0.22,2.57,9.52,2.6,-5.39,-75,-14.24,-13.15,-1.59,-13.89,-15.63,Relax
17:02.4,43,504,756,979,310,2.3,434.78,1.52,20724.3,313,137,139.01,139,19322,117056,838,0.99,-0.09,-0.22,-2.23,0.56,-1.72,-5.54,-74.79,-14.45,-13.33,-1.71,-14.09,-15.79,Relax
17:02.5,233,500,750,979,310,2.3,434.78,1.52,20724.3,313,137,139.01,139,19322,135825,975,1,-0.09,-0.25,-2.5,-6.17,-2.69,-5.36,-73.38,-14.7,-14.36,-1.95,-14.32,-16.72,Relax
17:02.6,829,505,757.5,979,311,2.29,436.8,1.52,20724.3,313,137,139.01,139,19322,154594,1112,1.01,-0.08,-0.27,-2.43,-3.63,-1.47,-5.23,-72.96,-14.93,-15.07,-2.03,-14.54,-17.39,Relax
17:02.8,264,501,751.5,979,309,2.31,432.77,1.51,20724.3,313,138,139.01,139,19322,173638,1250,1,-0.07,-0.27,-2.18,1.23,-0.66,-4.47,-73.1,-15.14,-15.17,-2.02,-14.71,-17.49,Relax
17:02.9,261,497,745.5,979,308,2.32,430.77,1.51,157.55,311,137,138.71,138,19239,0,0,1,-0.08,-0.25,-2.5,-0.47,-1.39,-4.97,-73.67,-15.38,-15.48,-2.09,-14.96,-17.8,Relax
17:03.0,524,497,745.5,979,308,2.32,430.77,1.51,157.55,311,135,138.71,138,19239,18225,135,1,-0.09,-0.29,-0.12,4.08,-0.34,-5.57,-71.77,-15.32,-15.21,-2.03,-14.93,-17.48,Relax
